AccX,AccY,AccZ,GyrX,GyrY,GyrZ
7.681650458835065e-05,-1.1107433238066733e-05,0.00014271651161834598,1.9531039896492075e-08,-2.800422862492269e-07,-2.1461055155214129e-07
4.982101917266847,-0.7027552723884584,9.299471855163576,0.0016646769363433123,-0.015143505297601225,-0.014250703155994415
4.995462894439698,-0.716468095779419,9.273177146911623,0.003020022064447403,-0.014378636144101621,-0.01375625003129244
5.007403850555421,-0.6886893510818481,9.259780883789062,0.002133249305188656,-0.015598225407302381,-0.014314834028482437
5.002545833587647,-0.7007879018783569,9.252473831176758,0.0010161101818084717,-0.013963351026177406,-0.011855774559080602
4.98526668548584,-0.7031619548797607,9.231822013854982,0.0005036873626522721,-0.013598071411252022,-0.011020860634744169
4.961870670318604,-0.7013614177703857,9.27423095703125,0.0016157246427610519,-0.013771872967481613,-0.011739034205675125
5.015286445617676,-0.7063181400299072,9.237843513488771,0.0009609771077521146,-0.01455671712756157,-0.012881326489150526
4.993247032165527,-0.7100172638893129,9.249051094055178,0.0012806457234546544,-0.012534680776298048,-0.011912407353520393
4.95205020904541,-0.738422453403473,9.275148391723633,0.0031583418603986506,-0.01197584718465805,-0.011904998682439329
5.00661563873291,-0.7349478006362915,9.247693061828615,0.0029727004002779727,-0.012919504195451736,-0.013215230777859688
5.018463611602784,-0.6853434443473817,9.274058341979982,0.001606399891898036,-0.012741691432893278,-0.012523127719759941
5.0044097900390625,-0.6827048063278198,9.278133392333984,0.0015128931263461711,-0.012292853556573393,-0.011738698929548264
4.998770236968995,-0.6766432523727417,9.250007629394531,0.000831916171591729,-0.01348324865102768,-0.011059922166168691
4.996663570404054,-0.6931793689727783,9.274159431457521,-0.001478379243053496,-0.012707557529211044,-0.010218748822808266
4.997236728668214,-0.6919293403625488,9.252955436706545,-0.00010827906226040797,-0.01092577539384365,-0.008994798175990583
4.983427524566651,-0.7034078240394593,9.257701873779297,-0.00020295973808970305,-0.009883099235594274,-0.00889415480196476
5.0051727294921875,-0.7304590940475464,9.250363349914553,0.0007748383795842528,-0.009831548668444158,-0.0103917196393013
4.992621898651124,-0.7173009514808656,9.294391632080078,0.0014180660946294668,-0.010579124093055725,-0.010348683223128319
4.9880385398864755,-0.6870384216308594,9.272900581359865,0.00040211484883911913,-0.010614041239023209,-0.009800706990063192
4.970288753509522,-0.6984289884567261,9.292887687683107,-0.0010811007814481857,-0.011506414972245695,-0.009878739714622498
4.992108821868897,-0.7082936763763428,9.257877349853516,0.00010189472959609704,-0.013540837913751602,-0.010710011236369612
4.998871803283691,-0.6844821572303773,9.278644561767578,-0.0013906164094805717,-0.013797623105347158,-0.009481062181293966
4.9782118797302255,-0.7027375102043153,9.249687194824219,-0.0009126980439759792,-0.01298379898071289,-0.010140650905668737
4.986977577209473,-0.7188735604286195,9.275959968566896,-0.0005685008945874871,-0.015330604277551176,-0.01148841343820095
4.995889663696289,-0.7191580533981323,9.262137413024904,-0.0005154154496267438,-0.014620197005569937,-0.01127437874674797
5.001158237457276,-0.7020019292831421,9.256057739257812,0.0020625411998480563,-0.012735368683934212,-0.010616326704621315
5.005182266235352,-0.6978160738945008,9.24771022796631,-0.0004930421710014343,-0.014219476841390135,-0.012225056067109108
4.997930049896241,-0.6853132247924805,9.241971969604492,0.0012048246571794154,-0.01268326584249735,-0.010596852749586105
4.9678053855896005,-0.7215689420700073,9.25353527069092,0.0002806114207487554,-0.012967918068170547,-0.01288092788308859
5.0104737281799325,-0.7109894752502441,9.246431350708008,0.0011325215455144644,-0.014876595698297026,-0.011642572470009329
5.004703998565675,-0.7023664712905884,9.259900093078615,0.00020945259893778714,-0.013371918350458145,-0.01209689397364855
4.990506649017335,-0.712444841861725,9.282033920288086,-0.0015713233733549716,-0.014655346982181074,-0.010786784812808037
4.999934196472168,-0.7038683891296387,9.27383804321289,0.0002470255712978542,-0.016121437773108486,-0.012584991753101349
4.990385055541992,-0.7002378702163696,9.266470909118654,-0.0004899009363725781,-0.01729836128652096,-0.009791559539735319
4.999452590942383,-0.704241454601288,9.253046035766602,-0.002164647681638599,-0.01585143432021141,-0.011409475468099119
4.996910095214844,-0.6892557144165039,9.255472183227539,-0.0015916704433038833,-0.01622978784143925,-0.010313030332326889
4.987074851989746,-0.6994025111198426,9.244340896606445,-0.00040193594759330153,-0.015888368710875515,-0.012887159362435341
5.006410598754883,-0.6881706714630127,9.25986957550049,-0.00017365827807225287,-0.0154419606551528,-0.012212581001222135
4.989206790924073,-0.7027909755706787,9.22021007537842,0.0005511359195224942,-0.015216443687677383,-0.012581684626638891
5.006914615631104,-0.73599511384964,9.226360321044922,-0.00013841569307260215,-0.015196181833744049,-0.01261213328689337
4.954301834106445,-0.6874525547027588,9.249913215637209,0.00137784646358341,-0.015208113938570023,-0.01368729490786791
5.007961273193359,-0.7116013169288636,9.275968551635742,0.0020275991410017014,-0.016927545890212062,-0.014679488725960256
5.026471614837647,-0.6688497066497803,9.238312721252443,0.001024107914417982,-0.016916418448090557,-0.014981573447585106
5.038734912872315,-0.691473424434662,9.227902412414553,0.0008168114000000061,-0.013745962642133238,-0.01265585795044899
5.006351947784425,-0.7014118432998657,9.245440483093263,-3.4124841477023444e-05,-0.011552529409527779,-0.012614036910235884
5.021885871887207,-0.7116296291351318,9.260617256164553,0.004396536853164435,-0.011717496439814568,-0.013321256265044212
5.015392780303956,-0.6761752367019653,9.278902053833008,0.0033596388529986147,-0.009244794026017189,-0.01158325467258692
4.985086917877198,-0.6871817111968994,9.279003143310547,0.0025852653197944164,-0.008815210312604904,-0.012297405861318113
4.980522632598878,-0.6964945197105409,9.257438659667969,0.0011988129699602725,-0.012506486847996712,-0.011103122495114805
4.994664192199707,-0.7124555110931396,9.254702568054201,0.0005976182874292135,-0.012807116843760015,-0.010459386743605139
4.9901185035705575,-0.6947539448738099,9.259884834289553,-0.00046357844257727265,-0.01360809337347746,-0.011906467378139496
5.020475864410401,-0.6882097721099854,9.24884033203125,-0.00121588003821671,-0.013468286022543907,-0.010862444527447225
5.000400543212891,-0.6926872730255127,9.254836082458498,-0.002707764972001314,-0.012554864399135114,-0.009667396545410156
4.994746685028077,-0.705535888671875,9.258267402648928,-0.0024069547653198242,-0.012802355922758581,-0.01038909610360861
5.016775131225586,-0.6741216778755189,9.25498676300049,-0.00304278451949358,-0.014116556383669378,-0.009520601481199265
5.003930568695069,-0.6927928924560547,9.232830047607422,-0.0018272915622219445,-0.013109537772834303,-0.009349634870886803
5.016296863555909,-0.715145468711853,9.268874168395998,-0.002373557537794113,-0.011910836212337019,-0.010321307927370071
5.018111228942871,-0.7145824432373047,9.245065689086914,0.0005895603680983186,-0.011994768865406515,-0.011515880934894087
5.01955509185791,-0.7153494954109193,9.265768051147461,-0.0003827472392003984,-0.009885022416710854,-0.011161354370415212
5.017580509185792,-0.70769602060318,9.25111484527588,0.0014224124606698751,-0.00810452550649643,-0.011194509454071523
4.975337982177734,-0.6949775218963623,9.264342308044435,0.002684148959815502,-0.007444635499268771,-0.01165587455034256
4.965373992919922,-0.7046318650245668,9.246286392211914,0.0022729733027517796,-0.008539521135389807,-0.012542464770376684
4.998182773590089,-0.6989960074424745,9.299109458923342,0.0025947496760636572,-0.01106301136314869,-0.014173359610140325
5.003797054290772,-0.6924428939819336,9.249747276306154,0.0010937614133581521,-0.01153745409101248,-0.01569170504808426
4.996434688568116,-0.6834647059440614,9.29478168487549,-3.721121402122663e-06,-0.012859905138611794,-0.011968526057899
5.01746940612793,-0.6718059182167054,9.288601875305178,-0.00040568111580796545,-0.014244923368096352,-0.010425331071019173
5.009955406188965,-0.672383487224579,9.259030342102053,-0.001945290481671691,-0.015181091614067556,-0.010258041322231293
5.014765739440918,-0.6971503496170044,9.245660781860352,-0.0023612531367689375,-0.013876541517674925,-0.009406670928001404
5.006155014038086,-0.710486888885498,9.242564201354982,-0.001008689985610545,-0.012032464146614075,-0.008398507721722128
5.014491558074952,-0.720111608505249,9.263979911804201,-0.0006065070629119873,-0.010216445662081243,-0.00822338741272688
4.983019828796387,-0.7195336818695068,9.25804328918457,0.00043018269934691494,-0.009680310264229774,-0.010074428282678129
4.9884915351867685,-0.7043343782424927,9.269437789916992,0.0012478391872718932,-0.010596527718007566,-0.012902097776532173
5.026284217834473,-0.6942082643508911,9.253893852233888,0.0024342318065464497,-0.011661826632916929,-0.012173302471637726
5.019477844238281,-0.6788122057914735,9.263224601745607,0.0011377050541341305,-0.010148362256586553,-0.012110655196011068
5.020606994628906,-0.67433762550354,9.271529197692873,0.0029787179082632065,-0.008128729648888113,-0.010712340474128723
4.9978909492492685,-0.7388589382171631,9.247271537780763,0.00303131015971303,-0.0071007972583174706,-0.011679788120090963
5.0242371559143075,-0.694756031036377,9.288532257080078,0.004108160268515349,-0.008283469825983047,-0.014010653831064703
5.014523506164551,-0.7242978811264038,9.28708267211914,0.006008320953696967,-0.006587635725736618,-0.013680640608072281
5.011568546295167,-0.6973878145217896,9.259134292602539,0.006377978716045619,-0.006817103363573551,-0.0130631634965539
5.028823375701905,-0.6651215553283691,9.280346870422365,0.004902590997517109,-0.007200424559414387,-0.012702577747404577
4.985049724578858,-0.7120165824890137,9.244161605834961,0.0033577443100512028,-0.005508023779839278,-0.014084897935390472
4.9963788986206055,-0.6955707669258119,9.272610664367678,0.004660846199840308,-0.007810634560883045,-0.012363038957118988
4.983979225158691,-0.7019006013870239,9.275068283081055,0.002525373594835401,-0.005728650838136673,-0.014344883151352407
4.975194931030273,-0.691832721233368,9.26354503631592,0.0029987525194883347,-0.009418528527021408,-0.014877275563776495
5.0138869285583505,-0.6705363988876343,9.25558376312256,0.0001290360523853451,-0.013797384686768057,-0.011962998658418655
4.968055248260499,-0.7100604772567749,9.251620292663576,0.0015582505147904158,-0.011587412096560003,-0.011687728576362135
5.024892807006836,-0.6694924831390381,9.251060485839844,0.002745893551036716,-0.01290164515376091,-0.014254615642130377
4.9744839668273935,-0.7203571796417236,9.25548839569092,0.002289484487846494,-0.011035840027034284,-0.012126212939620018
5.024700164794922,-0.675018608570099,9.297068595886232,0.004092507995665073,-0.00990018341690302,-0.012256961315870285
5.01220464706421,-0.7143728733062744,9.272671699523928,0.0022483102511614565,-0.01009519025683403,-0.010661642998456955
4.985499858856202,-0.6666216850280762,9.27470111846924,0.001972396858036518,-0.009805333800613882,-0.009962031617760658
5.001392364501953,-0.7321051955223085,9.274920463562013,0.0020134092774242167,-0.008450102992355825,-0.01096823439002037
4.976826190948487,-0.6542963385581971,9.265941619873047,0.000948868808336556,-0.010341151617467405,-0.012927904725074768
4.9909868240356445,-0.7134122848510742,9.268966674804688,0.0012607279932126405,-0.0123472660779953,-0.013226909562945366
5.006088733673097,-0.6857717037200928,9.269914627075195,0.0005629247752949595,-0.011216272599995138,-0.014323554933071136
5.00787353515625,-0.7168611288070679,9.254372596740724,0.00017185491742566228,-0.009257599711418152,-0.010845073498785497
5.002748489379883,-0.6657360792160034,9.257623672485352,0.0033715246245265007,-0.00878474395722151,-0.013413520529866219
4.987476348876953,-0.7099298238754272,9.288494110107422,0.004193722270429134,-0.009782041423022749,-0.01317791733890772
5.018297672271729,-0.6861093044281006,9.276020050048828,0.0026206823531538252,-0.007863074541091919,-0.01285615097731352
4.972145557403565,-0.674544394016266,9.266423225402834,0.001218691235408187,-0.010052986443042755,-0.012458582408726217
5.023687362670898,-0.6806385517120361,9.284507751464844,-0.0010002873605117204,-0.009796900674700737,-0.011168180964887144
5.014521598815918,-0.6723190546035767,9.266935348510742,0.00030659587355330586,-0.009216194041073324,-0.009396872483193876
5.003122329711914,-0.6899514198303223,9.266011238098146,0.0001807838707463816,-0.008147621527314186,-0.009017321281135084
4.989226818084718,-0.6982787847518921,9.288533210754396,0.0015390124171972275,-0.006457542069256306,-0.00893820356577635
4.9806060791015625,-0.7009870409965516,9.280028343200685,0.0004885278758592905,-0.007560885511338711,-0.01080975402146578
4.990370750427246,-0.7031680345535278,9.270387649536133,0.0009560142643749714,-0.00754488678649068,-0.012103659100830557
4.993663787841797,-0.6855207681655884,9.274335861206055,0.0027998995501548056,-0.009099682793021202,-0.01123322080820799
4.978688716888429,-0.6890209317207338,9.290607452392578,-0.0001842285419115797,-0.010998289100825788,-0.013898620381951332
4.9791975021362305,-0.664604663848877,9.297603607177734,0.00164717307779938,-0.01225162111222744,-0.012086023576557638
5.01362419128418,-0.6963708400726318,9.280416488647461,-0.000703252968378365,-0.012402349151670935,-0.010735587216913702
4.995739936828613,-0.6572607159614564,9.271437644958498,-0.001845126389525831,-0.012207204475998878,-0.010093434713780882
5.004308223724366,-0.6960197687149048,9.270797729492188,0.0014001141535118224,-0.010981320403516294,-0.00915796123445034
5.0192885398864755,-0.6805284619331361,9.28312397003174,-0.0005511424969881773,-0.011553858406841757,-0.009630372747778893
5.031122684478761,-0.7076115012168885,9.23400402069092,-5.34158170921728e-05,-0.008081878535449507,-0.009885816834867002
4.995229244232179,-0.6968103647232056,9.251938819885256,0.005195229314267635,-0.005555288400501014,-0.013236401602625847
5.005228519439698,-0.6968631148338319,9.273681640625,0.0048145717009902,-0.007030296139419079,-0.011400789953768255
4.990811824798585,-0.698489010334015,9.274736404418945,0.0035095950588583946,-0.006813593674451114,-0.012097138911485672
5.003403663635254,-0.664780080318451,9.271347045898438,0.0012621770147234201,-0.007786165457218886,-0.011885649524629118
4.9774489402771005,-0.6732930541038514,9.247260093688967,-0.0002184794138884172,-0.011604290455579758,-0.012329963035881521
4.968574047088624,-0.6861175894737245,9.268619537353516,-0.002052316209301353,-0.014232776127755644,-0.010281126946210861
4.99918031692505,-0.6775684356689453,9.261491775512695,-0.0021323610562831168,-0.015426339581608772,-0.009792775847017767
5.019085407257081,-0.6731613874435425,9.260477066040039,-0.003540211590006948,-0.01533261127769947,-0.0068899886682629585
4.992298126220703,-0.6795536875724794,9.27946186065674,-0.004727823659777641,-0.013638085685670378,-0.0070082321763038635
4.99006462097168,-0.7096447944641113,9.281317710876467,-0.0040105292573571205,-0.013491133227944374,-0.007976743392646314
5.00563907623291,-0.6776112914085389,9.265944480895998,-0.002962811151519418,-0.012298213317990303,-0.008370689116418363
4.990223407745362,-0.6885258555412294,9.26034927368164,-0.0035829499829560523,-0.013032279908657074,-0.011156974360346794
4.98435115814209,-0.6868737339973451,9.241796493530273,-0.0039002492558211093,-0.013145433738827705,-0.011055770330131056
4.9809417724609375,-0.6844456195831299,9.251665115356445,-0.0018917121924459934,-0.013760196045041084,-0.008769287727773191
4.977619171142578,-0.6859281659126283,9.2135009765625,-0.0009758267551660538,-0.013069245032966139,-0.009831422939896584
4.987701416015625,-0.6973705291748047,9.269610404968263,-0.0014182195300236347,-0.01106320135295391,-0.010042289271950722
4.983654975891113,-0.6987922787666322,9.28317642211914,-0.0004706218314822764,-0.01282077468931675,-0.010673270560801031
4.998969554901124,-0.6693246960639955,9.279824256896974,-0.0001248721091542393,-0.013238547369837761,-0.013463870622217657
5.004833221435547,-0.6796464920043945,9.286014556884766,-0.0024451687932014465,-0.015742870047688488,-0.012582452967762947
5.020268440246582,-0.657835841178894,9.294461250305178,-0.0024420730769634247,-0.017000107094645504,-0.010281841270625593
4.997794628143311,-0.6887129545211792,9.278088569641115,-0.005007929634302855,-0.016500461846590042,-0.007451426703482867
5.006290435791016,-0.6855569481849672,9.257049560546875,-0.006801771931350231,-0.01718180999159813,-0.008708045817911627
4.997884750366211,-0.7004578709602357,9.27337169647217,-0.005615894682705402,-0.014687688089907171,-0.007781064137816429
4.991521835327148,-0.6950258016586304,9.24873161315918,-0.004500860348343849,-0.015441394411027433,-0.007005868013948203
4.98203182220459,-0.6985095739364624,9.244521141052248,-0.003224506974220276,-0.013944164849817755,-0.0094778873026371
4.985157489776612,-0.7287204265594482,9.250563621520998,-0.0026863527018576865,-0.013944067992269995,-0.010460987687110901
4.98612928390503,-0.7109607458114624,9.264227867126467,0.0001553831534693018,-0.013020029291510582,-0.010475798510015013
4.974479198455811,-0.7031444907188417,9.255724906921388,0.0011229474330320956,-0.01364811696112156,-0.011263741180300713
5.015527725219727,-0.6934003233909608,9.252220153808594,0.00034426985075697303,-0.012207028456032278,-0.012902423739433289
4.997378826141358,-0.6828335523605347,9.265670776367188,0.0006029430078342557,-0.010851101949810982,-0.012842115946114065
5.004769802093507,-0.746082067489624,9.256322860717773,0.0017998195253312588,-0.011457667686045172,-0.014685474336147308
4.9772233963012695,-0.7180861234664917,9.285805702209474,0.004979581106454135,-0.013689765706658363,-0.014444710686802864
5.007668495178223,-0.659073293209076,9.253390312194826,0.001704583177343011,-0.014538773335516455,-0.012756247073411942
4.990631103515625,-0.6693702936172485,9.264337539672852,0.0018329368904232979,-0.01501716673374176,-0.011515931226313116
5.013923645019531,-0.678512692451477,9.259033203125,5.581677396548912e-05,-0.01510113198310137,-0.011935150250792503
5.022258281707765,-0.6681302785873413,9.249970436096193,7.462671783287078e-05,-0.015933787450194362,-0.011571657843887808
4.989126205444336,-0.6735061407089233,9.271241188049318,0.0008433268521912397,-0.014634659513831139,-0.0116266580298543
4.986806392669679,-0.7078858613967896,9.277002334594727,0.001135529950261116,-0.015575110912322998,-0.011715830303728582
5.007643699645996,-0.6716768145561219,9.27596187591553,0.0016651485348120334,-0.015926919877529144,-0.01154045481234789
5.00302791595459,-0.6861055493354798,9.240227699279787,0.0013326316839084031,-0.015740565955638885,-0.012369105592370033
5.005159378051758,-0.6760703325271606,9.257011413574219,0.0020047957077622414,-0.01333263795822859,-0.011455513536930084
5.004703521728516,-0.6876805424690248,9.260163307189943,0.0004660958366002888,-0.013287504203617575,-0.012735269963741302
5.014592170715332,-0.6824246644973755,9.255807876586914,0.002300032414495945,-0.013158502988517286,-0.012232357636094093
4.989240646362305,-0.7049505710601807,9.264683723449709,-0.00014495947107207033,-0.014022912830114365,-0.010980766266584396
4.996321678161621,-0.7126734256744385,9.280027389526367,0.0011750153498724105,-0.011813156306743622,-0.010839463211596014
5.000064849853516,-0.6718106269836426,9.254536628723146,0.0026880591176450253,-0.01358615793287754,-0.012299629859626295
4.9944963455200195,-0.687463641166687,9.272200584411623,0.0015235728351399305,-0.015008730813860893,-0.011166603304445745
5.005948066711426,-0.6866882443428041,9.28032112121582,0.0014302924973890188,-0.012677231803536415,-0.014773987233638763
5.016043186187745,-0.6467466354370117,9.245446205139162,0.0014306888915598392,-0.014499488286674024,-0.01316823996603489
5.01008415222168,-0.6510671973228456,9.246026039123537,-0.0006528589874505997,-0.013941209763288498,-0.010507063008844854
5.0025391578674325,-0.66664719581604,9.251016616821289,0.0004862075729761273,-0.014240365475416183,-0.00928409304469824
5.016094207763672,-0.6712181568145752,9.27626705169678,-0.0011529831681400537,-0.009509134106338026,-0.010101129300892355
5.014125823974609,-0.6900240182876587,9.232990264892578,-0.0011897719232365491,-0.008742345497012138,-0.007465481292456389
5.019743442535401,-0.6924062371253968,9.247869491577148,0.00022117901244200766,-0.0076935263350605965,-0.009886511601507665
5.0062255859375,-0.707498610019684,9.258110046386719,0.0013786554336547852,-0.006079431157559157,-0.010866809636354446
4.983798027038574,-0.6893453598022461,9.269134521484375,0.0015203761868178844,-0.00664685806259513,-0.011419950984418394
4.98457145690918,-0.7138448357582093,9.259349822998047,0.002256492851302028,-0.007435694336891174,-0.010345230810344221
5.002903938293457,-0.6770637631416322,9.2899169921875,0.0007379820453934373,-0.00856985989958048,-0.012069327756762505
4.993898391723633,-0.6734416484832764,9.28080463409424,-0.00027769460575655103,-0.011893819086253645,-0.012822948396205902
4.990038394927979,-0.6709109544754028,9.255836486816406,-0.0008432178874500097,-0.013176769018173218,-0.01063559390604496
4.989161968231202,-0.6718955039978027,9.269965171813967,-0.0008882566471584142,-0.015057675540447235,-0.009532489813864233
4.999024391174316,-0.6950624585151673,9.26024055480957,-0.0026289778761565685,-0.017177846282720566,-0.009061985649168493
5.014137744903565,-0.6917459368705751,9.256555557250977,-0.003234282368794084,-0.014715498313307762,-0.009258392266929151
4.999904155731202,-0.6761088967323304,9.250025749206545,-0.0034605406690388922,-0.013994738459587097,-0.011035248637199402
5.011588573455811,-0.695358157157898,9.252805709838867,-0.0030831734184175734,-0.014302076771855354,-0.009789227508008482
5.024601936340332,-0.7047908902168275,9.257798194885256,-0.0003252091992180795,-0.012968611903488638,-0.012049049139022827
4.9836931228637695,-0.6764169335365297,9.26858425140381,-0.0010023117065429688,-0.012517160736024381,-0.010597892105579376
4.984736919403077,-0.7054120302200317,9.279741287231445,0.0007091018487699331,-0.012348620221018791,-0.011892249807715416
4.9903016090393075,-0.6922380328178407,9.272479057312013,-0.0011181948939338329,-0.014474060386419296,-0.01335937809199095
4.999822139739991,-0.6685003042221069,9.279358863830568,-0.001878552488051355,-0.015282307751476766,-0.013091862201690674
5.016725540161133,-0.6607318520545961,9.240197181701662,-0.00027636604500003164,-0.014745155349373817,-0.010573503561317922
5.01017713546753,-0.6701631546020508,9.244939804077148,-0.0025053294375538826,-0.012839357368648054,-0.00975510384887457
5.037158966064453,-0.6812721490859985,9.300697326660156,-0.0025633745826780796,-0.011336398310959341,-0.0101801548153162
5.018516063690186,-0.685149073600769,9.252634048461914,-0.0023897048085927963,-0.011751029640436172,-0.010383547283709051
5.014662742614746,-0.6938582062721254,9.249208450317383,-0.0024514319375157356,-0.010465006344020368,-0.00972433015704155
4.998171806335449,-0.6932891607284546,9.266978263854982,-0.001912393607199192,-0.011815329082310201,-0.008797378279268743
4.987471580505371,-0.7271015644073486,9.264928817749023,0.00012610324483830484,-0.013513520359992981,-0.01117698196321726
5.0011916160583505,-0.6864144802093506,9.283563613891602,-0.0024121804162859917,-0.0158524252474308,-0.013206816278398039
4.986452102661133,-0.6873692274093628,9.26393222808838,-0.004273957107216121,-0.018273886293172836,-0.012958181090652944
5.020765781402589,-0.6528935432434082,9.27482795715332,-0.003105712588876486,-0.020131839439272884,-0.012522407807409765
5.01871395111084,-0.6864410638809204,9.242632865905763,-0.004485286306589843,-0.016535069793462753,-0.011020903475582601
5.0070390701293945,-0.6896666288375854,9.232139587402344,-0.0027851415798068047,-0.01482662744820118,-0.010146253742277624
5.015006542205811,-0.6970857977867128,9.243091583251953,-0.000979013158939779,-0.012821076437830925,-0.010905194096267225
5.033912658691406,-0.7142159938812256,9.2390832901001,0.0004350206872913987,-0.012939870357513428,-0.011418057605624199
5.005838871002198,-0.7064996957778931,9.249923706054688,0.0013816498685628176,-0.010985969565808775,-0.010679561644792557
5.010581493377686,-0.7058415412902832,9.252588272094727,0.0018106852658092976,-0.011169742792844772,-0.013824210502207281
5.010328769683839,-0.6967154741287231,9.270594596862795,0.004002649802714587,-0.009313387796282768,-0.015767605975270275
4.998316764831543,-0.6758252382278442,9.242277145385742,0.0069691892713308334,-0.009674775414168836,-0.012732827104628088
4.9981536865234375,-0.6893153190612793,9.267328262329102,0.004299544263631106,-0.011260807514190674,-0.013532257638871672
5.014423370361328,-0.6705185174942017,9.255009651184084,0.005960469134151936,-0.009829558432102203,-0.013931083492934706
5.005205154418945,-0.6627452969551088,9.293317794799805,0.003158209146931768,-0.009947316721081734,-0.012359407730400564
5.010531902313233,-0.6793009042739868,9.257092475891115,0.003469736082479358,-0.009911119937896729,-0.011910082772374153
5.014150619506836,-0.6628148555755615,9.296398162841797,0.004122697748243809,-0.011600212194025518,-0.010484063997864723
5.015573978424073,-0.6650765538215638,9.271115303039553,0.002934316406026483,-0.011376273818314077,-0.0074130818247795105
5.041393280029297,-0.6570144891738892,9.270588874816896,0.0004583919944707305,-0.01100110448896885,-0.0078036594204604634
5.027803897857667,-0.6584911942481996,9.247989654541016,0.00244627264328301,-0.0073651960119605064,-0.006626118905842304
4.974547863006593,-0.6854072213172914,9.268257141113281,0.0013170200400054455,-0.0067389686591923246,-0.006191598251461983
5.017775535583496,-0.7133949398994447,9.243914604187013,-0.0011828135466203096,-0.0077681425027549275,-0.007154366001486778
5.011335372924805,-0.6734253764152528,9.260734558105469,-0.0006438654963858427,-0.010693226009607315,-0.006866302806884051
5.039535999298097,-0.66904616355896,9.256184577941896,-0.001971706748008728,-0.009226220659911634,-0.006599233951419593
5.017343997955323,-0.6354216933250428,9.245205879211428,-0.0033169318921864033,-0.007485678885132075,-0.004926430061459541
5.050688266754151,-0.6652649641036987,9.261428833007812,-0.002964172745123506,-0.006086636800318957,-0.0050805239006876945
5.050012111663819,-0.7172318100929261,9.249320983886719,-4.3813335651066154e-05,-0.0003757797239813954,-0.0029868166893720627
4.966127872467042,-0.6866090893745423,9.248714447021484,0.0012385566951707008,0.002400387544184923,-0.005717332474887371
5.001983165740968,-0.7438299655914307,9.242774963378906,0.00170228723436594,0.0008932341006584467,-0.006583621725440025
5.032351016998292,-0.7092076539993286,9.249621391296388,0.005160893779248,0.004619325045496226,-0.006279925815761089
5.039081096649171,-0.6568658351898193,9.27920150756836,0.003984929993748665,0.003450359450653196,-0.006523868069052696
5.034282684326172,-0.657645583152771,9.255208015441896,0.0031675901263952255,0.005646609235554934,-0.004613215569406749
5.012204170227051,-0.6345794200897217,9.228353500366211,0.0037771959323436026,0.00962565466761589,-0.0014774607261642816
4.936357021331788,-0.6974804997444154,9.265298843383789,0.0008161235600709915,0.009662602096796036,-0.0038652776274830107
5.022502899169922,-0.7331783771514893,9.271458625793459,0.003674361389130354,0.00857339520007372,-0.004760958254337311
4.9758501052856445,-0.662243127822876,9.277210235595703,0.003011913038790226,0.008677751757204534,-0.004273824859410525
4.980271339416504,-0.7970346808433534,9.265679359436037,0.004265075549483299,0.005716560874134303,-0.0070115989074110985
5.0153398513793945,-0.5326555967330933,9.281383514404297,0.004466891754418612,0.006617533508688212,-0.006104187108576298
4.978990077972413,-0.742806077003479,9.28000259399414,0.0009966774377971888,0.005574540700763465,-0.005048652179539204
4.9400634765625,-0.685335636138916,9.29692268371582,0.004338726866990329,0.001035131048411131,-0.006084967404603958
4.989190101623535,-0.7343481779098511,9.283457756042482,0.003582760458812118,0.0018629017286002636,-0.009235783480107786
5.00108289718628,-0.6250090599060059,9.258639335632326,0.006410958711057902,0.0010783482575789096,-0.009658019989728928
5.006141662597656,-0.6236891746520996,9.267847061157227,-0.00030252741998992866,0.004537814296782017,-0.006622061599045993
4.9773664474487305,-0.6990193128585815,9.267690658569336,0.0018987414659932258,0.003070807084441185,-0.005123728886246681
4.824608325958253,-0.654944896697998,9.238729476928711,-0.0020941179245710373,-0.0020900249946862464,-0.007597962394356728
4.85236406326294,-0.7432674765586854,9.31880855560303,-0.006341743282973766,-0.014201847836375237,-0.011214918456971647
4.928881168365479,-0.6874459385871888,9.317770004272461,-0.00628024758771062,-0.02598380297422409,-0.013322400860488416
4.973635196685792,-0.6020985841751099,9.312901496887209,-0.013299106620252134,-0.031091421842575073,-0.010828748345375061
5.011052131652832,-0.6705080270767212,9.256988525390625,-0.01421219948679209,-0.0297413133084774,-0.009346998296678068
4.989836692810059,-0.7378361225128174,9.25618648529053,-0.010474479757249357,-0.02846060506999493,-0.011149855330586433
4.956337451934815,-0.7103753685951234,9.20458984375,-0.004435885231941939,-0.025957811623811722,-0.015338589437305929
4.939249515533448,-0.7224322557449341,9.28150272369385,-0.004923610482364894,-0.027070529758930206,-0.01683054491877556
4.980094909667969,-0.6917200684547425,9.286840438842773,-0.0050874422304332265,-0.02967231348156929,-0.018783861771225933
5.009546756744386,-0.676482081413269,9.286605834960938,-0.0041722492314875135,-0.02865126915276051,-0.01831347495317459
5.018698692321777,-0.677086353302002,9.286768913269045,-0.005154328420758247,-0.029687667265534404,-0.01674114540219307
5.017289638519288,-0.6764713525772095,9.252169609069826,-0.005015960428863765,-0.024970177561044693,-0.014476936310529709
4.886701583862305,-0.7370071411132812,9.269218444824219,-0.003440648084506393,-0.028343841433525085,-0.01772606931626797
4.98206901550293,-0.7808268070220947,9.282205581665039,-0.004105697385966778,-0.036163195967674255,-0.021753704175353054
5.032256126403809,-0.6022625565528871,9.225787162780763,-0.0048423390835523605,-0.03401980176568032,-0.020410612225532532
5.078644275665284,-0.6136417984962464,9.236835479736328,-0.002037225523963571,-0.02781938761472702,-0.020626690238714218
5.042962551116944,-0.6249141693115234,9.25969123840332,-0.0049780341796576985,-0.02052844688296318,-0.015059265308082105
5.017229080200195,-0.7067899107933046,9.277261734008789,-0.002812285209074617,-0.018996382132172588,-0.0151063222438097
5.018831253051758,-0.7264986634254457,9.273171424865724,-0.0029547312296926975,-0.019215175881981853,-0.014085760340094566
5.065583229064941,-0.6910736560821533,9.26087760925293,-0.004113861825317145,-0.019745420664548874,-0.009120985865592957
5.069828510284425,-0.6764363050460815,9.252632141113281,-0.004703430924564601,-0.014956720173358917,-0.007596554700285197
5.054317474365234,-0.6899163722991943,9.239753723144531,-0.005462965928018093,-0.01064160093665123,-0.0068400981836020955
5.029437065124512,-0.7188519835472108,9.24542236328125,-0.00247470079921186,-0.005858008749783039,-0.005348185542970897
4.9852447509765625,-0.7338128089904785,9.279046058654787,0.0024438330437988047,-0.003774307668209076,-0.007774430327117443
5.02088737487793,-0.7345154285430908,9.262644767761232,0.003851712448522449,-0.0038227858021855354,-0.006906966213136912
5.049411296844483,-0.7100878953933716,9.236577033996584,0.006518887821584941,-0.0013639059616252782,-0.0069588953629136086
5.028984546661378,-0.6886118650436401,9.257439613342287,0.009307753294706345,0.002979127457365394,-0.00608555693179369
5.075183391571046,-0.6680656671524048,9.239311218261719,0.010630305856466293,0.010506308637559416,-0.006486852187663318
5.051516532897949,-0.7300741672515869,9.244771957397461,0.013874004594981672,0.016204319894313812,-0.00617892062291503
5.058102607727051,-0.6659631729125977,9.273243904113771,0.015452079474925995,0.020937655121088028,-0.00367383030243218
5.088898181915284,-0.6439139246940614,9.27566432952881,0.015924442559480667,0.02492204494774342,-0.00018971491954289377
5.115593910217285,-0.6286733150482178,9.298505783081055,0.015982238575816158,0.036381207406520844,0.003338515292853117
5.1586880683898935,-0.6431939005851747,9.232886314392092,0.018200783059000972,0.047037191689014435,0.012278660200536253
5.179299354553223,-0.6305388808250428,9.240607261657717,0.027035586535930634,0.0684463381767273,0.018473206087946895
5.079646110534668,-0.698581337928772,9.250231742858888,0.0349169634282589,0.08429458737373352,0.02036106772720814
5.031658649444581,-0.6709979772567749,9.295852661132812,0.044082701206207275,0.09264982491731645,0.0204207506030798
4.972949504852296,-0.6326795816421509,9.286305427551271,0.0438414141535759,0.09879770129919054,0.01955150067806244
4.939169883728027,-0.6200878620147705,9.333284378051758,0.0402834415435791,0.0949530154466629,0.022649759426712993
4.804078102111816,-0.6719682216644287,9.449801445007326,0.03075472824275494,0.08853107690811157,0.026374941691756252
4.603909969329835,-0.9800719618797303,9.449548721313477,0.025849176570773128,0.06636536121368408,0.013284502550959587
4.567339420318604,-0.9946028590202333,9.344765663146974,0.03323855623602868,0.04139900952577591,-0.012056696228682997
4.926505088806152,-0.5817008614540101,9.262842178344727,0.03135276585817337,0.018463008105754852,-0.03056750632822514
5.182306289672852,-0.5692943334579468,9.217535018920898,0.02852022647857666,0.0415373407304287,-0.019690360873937607
5.0897674560546875,-0.722736120223999,9.16575813293457,0.031133780255913738,0.06824477016925812,-0.010188164189457893
4.847197532653809,-1.0362610816955566,9.252986907958984,0.05189361050724984,0.07849538326263428,-0.01883315853774548
4.811155319213867,-0.7208281755447388,9.321325302124023,0.06427361816167833,0.07780223339796068,-0.02885829657316208
4.805584430694581,-0.5169430375099183,9.381568908691406,0.05588731542229653,0.065606027841568,-0.026643926277756694
4.84919309616089,-0.4200155735015869,9.380016326904297,0.039479460567235954,0.051718056201934814,-0.015929169952869415
4.817309856414796,-0.4638329744338989,9.384278297424318,0.02249235846102238,0.04227285832166672,-0.008751799352467062
4.752836227416992,-0.6420701146125795,9.305170059204102,0.01578464172780514,0.03521890565752984,-0.006518268957734108
4.827476501464844,-0.5125951766967773,9.310661315917969,0.012306208722293379,0.0294492170214653,-0.002366879722103477
4.898185253143311,-0.4702032208442688,9.342399597167969,-0.0004676694807130844,0.025900527834892273,0.01193818636238575
4.869150161743164,-0.5431715250015259,9.347787857055664,-0.009418746456503868,0.03195996209979058,0.021676000207662582
4.813676357269288,-0.6503453850746156,9.315857887268068,-0.008556649088859558,0.03103424608707428,0.020327372476458553
4.962488651275636,-0.5811049938201904,9.336743354797365,-0.005083060357719661,0.032184869050979614,0.0216797236353159
4.875177383422852,-0.7461613416671753,9.28254508972168,-0.008124710060656072,0.04142048954963684,0.027141951024532318
4.8355984687805185,-0.7064347267150879,9.33404541015625,0.0004020403430331499,0.04364696890115738,0.023209994658827785
4.904831409454347,-0.5969974994659424,9.319355010986328,0.004739080555737019,0.050539396703243256,0.026033496484160427
4.858198165893555,-0.6610122919082642,9.310364723205568,0.0028625507839024067,0.0569683499634266,0.03125257045030594
4.924274921417237,-0.7015789747238159,9.234833717346193,0.011823176406323911,0.0681757777929306,0.02943728119134903
4.965348243713379,-0.724714994430542,9.168856620788576,0.02887884341180325,0.08640420436859131,0.03257793560624123
4.86743974685669,-0.6009320616722108,9.24096202850342,0.03818545863032342,0.10191946476697923,0.034877389669418335
4.792331695556641,-0.6850264668464662,9.265459060668945,0.04485609382390976,0.11273869127035142,0.03032136708498001
4.720196247100831,-0.7316539287567139,9.273818016052248,0.05119751021265984,0.12156818807125092,0.0238134004175663
4.6548566818237305,-0.7577234506607056,9.354863166809084,0.053443700075149536,0.12065396457910539,0.014137724414467812
4.746269226074219,-0.7058557271957397,9.45663833618164,0.060578957200050354,0.12132705748081207,0.0038705684710294013
4.6451077461242685,-0.7027772665023804,9.545198440551758,0.05606365203857422,0.10765654593706132,0.0012357914820313454
4.475938320159913,-0.7894420623779297,9.530205726623537,0.05360568314790726,0.085744746029377,-0.009655716829001905
4.785198688507081,-0.9005299806594849,9.470595359802248,0.06663414090871812,0.07843238115310669,-0.020420888438820842
4.694131851196289,-0.6255744695663452,9.43353271484375,0.07988958805799486,0.0793045535683632,-0.02879449352622032
4.807919502258301,-0.39328205585479736,9.615791320800781,0.06821607798337938,0.07091568410396576,-0.02617348171770573
4.570013999938965,-0.39568090438842773,9.551854133605959,0.050140514969825745,0.061755541712045676,-0.015362293459475042
4.600118637084961,-0.47947555780410767,9.5866174697876,0.03265337646007538,0.0433248095214367,-0.012495091184973717
4.559041500091554,-0.36447232961654663,9.616220474243164,0.01166330371052027,0.01491838973015547,-0.012450108304619789
4.681595325469972,-0.34225988388061523,9.609620094299318,-0.01361352112144232,-0.0021691760048270226,-0.004239558707922698
4.487732887268066,-0.4859798550605774,9.38613796234131,-0.03521042689681054,-0.015910297632217407,0.001745828427374363
4.02795171737671,-0.6264576315879823,9.48766613006592,-0.0533323734998703,-0.05432045087218285,-0.01340465061366558
4.748917102813722,-0.7803381085395814,9.545512199401857,-0.046314217150211334,-0.08520497381687164,-0.035691689699888236
4.704501152038574,-0.45986190438270574,9.593325614929201,-0.05492809787392617,-0.09112958610057831,-0.026831315830349926
4.779832363128663,-0.630862832069397,9.499299049377443,-0.07897668331861497,-0.10573083162307739,-0.020693369209766388
4.801484107971191,-0.614441990852356,9.385684967041016,-0.07598028331995012,-0.10841313004493713,-0.011499025858938696
4.542445659637452,-0.6695996522903442,9.267118453979492,-0.07647892832756042,-0.10502314567565918,-0.013277548365294935
4.5520901679992685,-0.9659895896911621,9.419730186462404,-0.0754351392388344,-0.11821481585502625,-0.02349534444510937
4.698113918304444,-0.707201361656189,9.503479957580568,-0.06023864448070526,-0.13070137798786166,-0.03898697718977929
4.722594261169434,-0.551429271697998,9.513129234313967,-0.06586173921823503,-0.13479918241500854,-0.046512667089700706
4.601763248443604,-0.6396434307098389,9.33794689178467,-0.0781037285923958,-0.1465207785367966,-0.053141772747039795
4.58619499206543,-0.645987868309021,9.267118453979492,-0.07668630033731462,-0.15577664971351624,-0.06558413058519365
4.437677383422852,-0.4402667284011841,9.284826278686523,-0.09806753695011139,-0.1716289669275284,-0.06167239323258401
4.248304843902589,-0.5875673890113832,9.635401725769045,-0.1404042094945908,-0.21443355083465576,-0.06165155395865441
4.663385868072511,-0.7223163843154907,9.647597312927248,-0.16061854362487793,-0.27348512411117554,-0.07716835290193559
4.714493274688722,-0.4385214745998383,9.446391105651857,-0.1662911027669907,-0.29995155334472656,-0.07821255177259447
4.843671321868897,-0.33142814040184027,9.416930198669435,-0.19080999493598938,-0.3032544553279877,-0.0874910280108452
4.878438949584961,-0.7889055609703065,9.315793991088867,-0.1763066798448563,-0.3371618390083313,-0.09319254010915758
4.383681297302246,-1.0355117321014404,9.299800872802734,-0.12867374718189242,-0.3681614696979523,-0.12126992642879486
4.603161334991456,-0.3761331737041474,9.684778213500977,-0.12946985661983493,-0.4249037504196167,-0.15184183418750766
4.903303623199464,-0.6688322424888612,9.604028701782227,-0.16821838915348056,-0.4915199279785156,-0.16495519876480103
5.331644058227539,-0.4720143377780915,9.431695938110352,-0.1839871108531952,-0.5402432084083558,-0.1565641164779663
5.257791996002198,-0.633989691734314,9.248884201049805,-0.20237605273723605,-0.5669671893119813,-0.1257498562335968
5.039399147033691,-0.3155367374420166,9.46498775482178,-0.19853156805038452,-0.6392243504524232,-0.1068689376115799
5.237637519836426,-0.584969162940979,9.046806335449219,-0.20048443973064425,-0.6918511390686035,-0.08546996116638184
4.446243762969972,0.17394627630710605,9.972846031188967,-0.1550513952970505,-0.8809072971343994,-0.010068279691040518
4.537038803100586,-0.3790402412414551,9.968242645263672,-0.31564080715179443,-0.9803159236907959,0.015214405022561552
4.271827220916749,-0.8604472875595093,9.90951442718506,-0.36220297217369085,-1.1891005039215088,0.03149012848734856
4.018795967102051,-1.2553541660308838,9.96310043334961,-0.3482330143451691,-1.4326696395874023,0.0055559854954481125
4.222980499267578,-1.0958383083343506,9.968547821044922,-0.3483941853046418,-1.7192976474761963,-0.024181475862860683
4.44676399230957,-1.1153147220611572,10.114429473876953,-0.36181905865669256,-2.0006244182586674,-0.04999089986085892
4.687749385833741,-0.9762397408485414,9.934507369995117,-0.3490421772003174,-2.288441419601441,-0.07096303999423981
4.654755592346191,-1.2516567707061768,9.728477478027344,-0.32974010705947876,-2.5745499134063725,-0.08179936558008195
5.257452964782715,-1.0096855163574219,9.666420936584474,-0.32161903381347656,-2.890783071517945,-0.09637588262557983
5.162226676940918,-1.3767244815826416,9.404110908508303,-0.3162738382816315,-3.17917275428772,-0.13831153512001038
5.054171562194824,-1.4261445999145508,9.081792831420898,-0.27451410889625555,-3.5266432762145996,-0.2160996347665787
4.980202198028565,-1.6873358488082888,8.704142570495607,-0.17911186814308167,-3.9587104320526127,-0.2769818007946015
4.808420181274414,-2.0909056663513184,8.505302429199219,-0.01101712789386511,-4.453921318054199,-0.4688983857631684
4.7340087890625,-2.5582482814788823,7.843854427337647,0.2205622345209122,-5.066972255706788,-0.6459393501281738
5.43351697921753,-2.2786502838134766,8.188473701477053,0.38187184929847723,-5.75,-0.7918300032615663
6.204540729522706,-1.9086108207702637,8.91724967956543,0.4228063523769379,-6.50459098815918,-0.8097319602966309
6.451175212860108,-1.0991997718811035,9.249454498291016,0.4366840720176697,-7.399352550506593,-0.8769735097885132
7.684009552001953,-1.8403565883636475,9.89068603515625,0.4059679210186005,-8.171145439147951,-1.0677082538604736
10.886834144592287,-2.953171014785767,9.624232292175295,0.32921811938285833,-8.77973747253418,-1.2457426786422732
13.605270385742188,-2.23080849647522,10.425682067871094,0.26295268535614014,-9.177479743957521,-1.4672077894210818
22.291341781616214,-0.8962828516960145,12.14778804779053,0.1403777450323105,-9.077808380126953,-1.5386959314346316
28.090320587158203,-1.7308447360992432,12.676445960998537,0.008250441402196884,-8.536430358886719,-1.4150940179824831
28.582012176513672,-4.375560760498047,14.066251754760742,-0.04090756177902222,-7.803110599517823,-1.1540699005126953
18.820230484008793,-5.493387699127198,11.128501892089844,-0.07188802212476732,-7.419261932373047,-1.2017595767974854
21.75429916381836,-6.518201351165772,11.401376724243164,-0.2010249346494675,-7.670375823974609,-1.610159754753113
20.68465805053711,-4.964259147644043,15.310412406921388,0.01079490873962641,-6.801782131195069,-1.841954231262207
16.267822265625,-7.220267295837402,18.45445060729981,0.44156551361083984,-6.417748928070069,-2.0883655548095703
18.500286102294922,-7.315235137939453,18.646568298339844,0.8833547234535218,-4.8328962326049805,-1.8324470520019531
10.656023025512695,-1.3404296636581423,17.38567352294922,1.0971091985702517,-3.347282886505127,-1.6821280717849734
29.857688903808594,-5.4625868797302255,27.434915542602543,0.890373706817627,-1.3887112140655518,-1.6523567438125613
13.033092498779297,-1.89250123500824,22.34042549133301,0.313004732131958,1.230439066886902,-1.1780009269714355
9.123847007751467,-4.537797451019288,18.108163833618168,0.03172697126865387,2.83361029624939,-0.9134828448295594
5.082840442657472,-3.291762351989746,13.1200647354126,-0.024948570877313614,3.850538015365601,-0.7341961860656738
1.5223006010055544,-3.126187324523926,9.059225082397461,-0.15098392963409424,4.271514892578125,-0.5431957840919496
-0.7691868543624878,-3.896514415740967,6.283862113952637,-0.19190391898155212,4.3633770942688,-0.48356086015701294
-1.5237410068511963,-3.7057809829711914,5.255838871002198,-0.10199427604675293,4.225516796112061,-0.42300269007682806
-0.5643905997276307,-2.8932492733001713,5.579122543334961,-0.11408153176307678,4.095390796661378,-0.26444023847579956
0.9870460629463197,-2.2044565677642827,6.815937519073487,-0.24055813252925876,4.146069049835206,-0.07806482911109924
3.1398487091064453,-1.7320804595947266,8.222103118896484,-0.43568670749664307,4.408589839935304,0.10981813073158264
4.87876033782959,-1.587110996246338,9.218724250793459,-0.6550385355949403,4.8688154220581055,0.3197239637374878
6.12237548828125,-1.8256953954696657,9.579529762268068,-0.8146782517433168,5.428671836853027,0.5124582648277284
6.901035308837891,-2.1716802120208745,9.302322387695312,-0.8505200147628784,5.937948226928711,0.7114668488502504
6.452015399932862,-1.9338924884796143,8.309285163879396,-0.7872008085250854,6.314740657806397,0.911002516746521
5.823050022125245,-1.0158139467239382,7.229035377502441,-0.7340922951698304,6.473753929138184,1.1159770488739014
5.639568805694581,-0.041142188012599945,6.486563205718995,-0.775417685508728,6.4819703102111825,1.327702522277832
5.888679027557374,0.6847996711730957,6.446329593658448,-0.8894742727279663,6.403545379638672,1.4989944696426394
6.877950668334961,0.9511870741844178,7.0864014625549325,-1.0184998512268066,6.29002332687378,1.606921911239624
8.056415557861328,0.7884435057640077,8.038368225097656,-1.0712493658065798,6.208160400390625,1.616652250289917
9.171256065368654,0.4899752140045166,9.101825714111328,-1.0225445032119753,6.1734161376953125,1.551953434944153
10.284621238708498,0.5648744106292725,10.077256202697756,-0.9084237217903138,6.156978130340577,1.4546687602996826
11.289395332336428,0.786765456199646,10.780969619750977,-0.8244118094444276,6.157506942749023,1.3669222593307497
11.827010154724123,0.8714067339897157,11.194786071777344,-0.7825006246566772,6.142541408538819,1.296129107475281
12.390022277832031,0.6496892571449281,11.469610214233398,-0.7703492641448975,6.072232723236085,1.2616384029388428
13.073933601379396,0.25206100940704346,11.811509132385256,-0.7428495287895204,5.9401307106018075,1.2676353454589844
13.940967559814453,0.28007936477661133,12.309328079223633,-0.700433611869812,5.750279903411866,1.3086049556732178
14.939098358154297,0.8022080659866333,13.177101135253906,-0.727540671825409,5.550819396972656,1.3751332759857178
16.63057899475098,0.4125973284244538,14.398000717163086,-0.7983382940292358,5.386530399322511,1.4102396965026855
19.104110717773438,-0.591496467590332,15.634289741516115,-0.7731113433837891,5.302541732788086,1.4161819219589236
21.406749725341797,-1.028222441673279,16.56122589111328,-0.6524398326873779,5.31509828567505,1.4277503490447998
23.515569686889652,-0.6107877492904663,16.843643188476562,-0.5822113752365112,5.4394803047180185,1.464715123176575
24.258974075317386,-0.3919879198074341,15.654932975769045,-0.5724735260009766,5.624820232391358,1.4458732604980469
23.78267860412598,0.19357067346572876,12.731527328491211,-0.6068534255027772,5.727524280548097,1.352184772491455
22.343683242797855,0.7105348706245423,9.2357177734375,-0.7118996977806092,5.579642295837402,1.1872478723526003
20.866466522216797,1.8083771467208865,6.187325477600098,-0.8928042650222778,5.147476673126222,0.9085862040519715
22.204645156860355,5.993025779724121,1.7807956933975222,-1.4184516668319704,4.599298477172852,0.7150183320045472
22.84204864501953,7.117650985717773,-3.1853687763214116,-2.220387220382691,4.006433010101319,0.6514320373535156
25.526329040527344,4.630000114440918,-9.280313491821289,-2.5859570503234863,3.3401958942413335,0.6413955688476562
29.41900634765625,-0.45223236083984375,-16.123819351196293,-1.895998239517212,2.5105288028717045,0.6654627919197084
26.57793426513672,0.3409589231014252,-19.48535919189453,-0.5092110037803651,1.2298219203948975,0.7173510193824769
20.73434066772461,4.492976665496827,-16.83393096923828,0.29997164011001587,-0.3552359938621521,0.5912035107612611
19.148256301879886,5.973714828491211,-9.5988245010376,0.4367664754390717,-1.6168534755706787,0.2120393663644791
21.023080825805668,5.396254539489746,-1.3965617418289187,0.31033352017402654,-2.1139578819274902,-0.2370610535144806
21.66401863098145,4.907072067260742,4.33356523513794,0.1307676583528519,-1.931354284286499,-0.4842204153537751
8.235118865966797,-3.6348490715026855,9.023625373840334,1.4294750690460205,-2.921297550201416,-0.38511267304420477
-17.733226776123047,1.5202132463455202,4.248893260955811,1.750870943069458,-3.1178119182586674,-1.1628391742706299
1.9834213256835938,1.020555377006531,18.045343399047855,0.7080532312393188,-4.295807361602784,-1.411084055900574
7.709192752838136,-7.770586013793945,14.384486198425295,0.08411642909049988,-4.465077877044679,-1.4456603527069092
20.9691333770752,-5.6367249488830575,13.24764919281006,0.5026884078979492,-4.592435836791992,-0.9661706089973451
22.16912651062012,-0.22097267210483554,16.907186508178714,0.369523972272873,-4.089964866638184,-0.22463734447956088
22.041635513305668,3.100193977355957,17.476417541503906,0.19352269172668457,-3.491090059280396,-0.23801399767398837
16.87786102294922,4.171767234802246,15.846650123596193,0.06846889853477478,-2.757837057113648,-0.4053930640220642
10.693406105041506,2.8690614700317383,13.118008613586428,-0.1241014301776886,-2.2261013984680176,-0.40634688735008245
8.406381607055664,0.31799882650375366,11.23035526275635,-0.19428555667400363,-1.8950622081756592,-0.4476005136966706
8.919635772705078,-3.9047203063964844,10.410257339477539,0.04243253171443939,-1.603779196739197,-0.6095044016838075
9.733728408813477,-6.332498073577882,9.785017013549805,0.3758449256420136,-1.2502951622009277,-0.593060076236725
8.89140510559082,-2.619034767150879,10.568815231323242,0.47440576553344727,-0.8684335947036743,-0.43502447009086614
7.870941162109375,-0.22851648926734924,10.932888984680178,0.41063722968101507,-0.5465881824493408,-0.2617816627025605
6.21375846862793,-1.0575792789459229,10.393984794616701,0.3647396266460419,-0.3355238437652588,-0.2798704504966736
5.165746688842773,-2.1135847568511967,9.696442604064943,0.2298007309436798,-0.24278424680233004,-0.20794141292572021
5.191634178161621,-1.1016958951950075,10.205253601074219,0.1310724914073944,-0.23452132940292358,-0.13054205477237704
5.203102588653565,-0.6331322789192201,10.263025283813477,0.059137497097253806,-0.21642276644706726,-0.0896153971552849
5.04642391204834,-1.0393977165222168,9.866889953613281,0.013635488227009773,-0.21627919375896457,-0.06372138112783433
4.839001655578613,-0.7762235403060913,9.846314430236818,-0.009513766504824163,-0.21604549884796143,-0.06118225678801537
4.8388428688049325,-0.948165774345398,9.774193763732912,-0.012820777483284475,-0.22836147248744967,-0.08382155001163483
4.8395586013793945,-1.983875870704651,9.187698364257812,0.010475050657987595,-0.20791302621364596,-0.08696947991847992
4.541516304016113,-1.9328052997589111,9.012422561645508,0.044894415885210044,-0.24096262454986572,-0.056085728108882904
4.401571273803711,-1.3737031221389773,9.152770042419435,0.05967717245221139,-0.25681954622268677,-0.061566334217786796
3.7518811225891113,-2.390048742294312,9.093528747558594,0.08208235353231431,-0.2935971915721894,-0.11863067746162415
4.692505359649659,-2.3513383865356445,9.307308197021484,0.08395560085773468,-0.3255322873592377,-0.15200164914131165
5.028510093688965,-1.8255178928375244,9.124688148498537,0.10131748020648956,-0.33281895518302923,-0.14548893272876742
5.114855766296387,-1.6100974082946777,9.118372917175295,0.09355422109365465,-0.3056564927101135,-0.1345762759447098
5.170950889587402,-1.6602519750595095,9.238200187683107,0.08836213499307634,-0.2846477329730988,-0.13458892703056335
5.245197772979737,-1.4083365201950075,9.215988159179688,0.08174212276935577,-0.25131830573081976,-0.14296212792396545
5.229931354522706,-1.3361265659332275,9.227901458740234,0.0586795099079609,-0.2136036455631256,-0.14958330988883972
5.266851425170898,-1.4101719856262207,9.126506805419922,0.04490627348423004,-0.18677221238613131,-0.150587797164917
5.107622623443604,-1.2694257497787478,8.96377944946289,0.06619172543287279,-0.16426371037960055,-0.17623725533485413
4.949699878692628,-1.5936485528945925,8.843056678771974,0.10208194702863695,-0.1423972249031067,-0.22208221256732943
4.17845106124878,-2.3621878623962402,8.641497611999513,0.14881631731987,-0.10992427915334703,-0.3130448758602143
3.8658437728881836,-2.668469667434693,8.809099197387695,0.20792223513126376,-0.1056695431470871,-0.4547476470470429
4.493203639984132,-2.359164237976074,8.823069572448732,0.26391795277595526,-0.09091641753911973,-0.5645685195922852
4.710699081420898,-1.584975242614746,9.129730224609375,0.30791828036308294,-0.09700238704681396,-0.6221734881401063
5.606791019439698,-0.46287262439727783,9.282721519470217,0.2760382294654846,-0.11838176101446153,-0.6011479496955873
6.219819068908691,1.033228874206543,9.580366134643555,0.15613855421543124,-0.1413140594959259,-0.4420547783374787
4.647753238677979,-0.5856280326843262,9.553994178771974,0.06802703440189362,-0.18293777108192444,-0.3588648140430451
4.941273212432862,-0.7927091717720033,9.590532302856445,0.02611283026635647,-0.26306575536727905,-0.3920393884181977
5.295053958892823,-0.35457453131675726,9.486675262451172,-0.01597079262137413,-0.3386011421680451,-0.361259013414383
4.997199058532715,-0.2520865201950073,9.43634033203125,-0.040109917521476746,-0.42294582724571234,-0.3397652506828308
5.204176902770996,-0.5848037004470825,9.436281204223633,-0.05287382751703262,-0.5358281135559082,-0.30295333266258245
4.763644695281983,-0.7525578141212464,9.572662353515625,-0.06090796738862991,-0.6497867703437806,-0.2730090618133545
4.569025039672852,-1.3858187198638916,9.713706970214844,-0.05034474655985833,-0.828872561454773,-0.28888988494873047
4.6622633934021005,-0.9523412585258485,9.749604225158693,-0.012986565940082075,-1.039513349533081,-0.2638829648494721
4.457108020782472,-0.111441008746624,9.853782653808594,-0.0631893128156662,-1.2708232402801514,-0.20384646952152255
4.446263313293457,-0.19275458157062533,10.173195838928224,-0.1863097846508026,-1.5352722406387331,-0.153588205575943
4.14594602584839,-0.676837980747223,10.280793190002443,-0.2613035142421723,-1.8421556949615479,-0.15199384093284607
4.43440055847168,-0.39099371433258057,10.33730220794678,-0.31745147705078125,-2.187944650650025,-0.1513954997062683
4.675887107849121,0.18288421630859375,10.244002342224123,-0.3807822763919831,-2.5591528415679936,-0.10925164818763733
5.081123352050781,0.4433775544166565,10.192820549011232,-0.4358215928077698,-2.9698836803436284,-0.03649381548166275
4.986387729644776,-0.1544477939605713,10.115408897399904,-0.48869833350181585,-3.411637306213379,0.00182235985994339
4.672147274017335,-0.7920193672180176,10.214666366577148,-0.4822285771369934,-3.9740087985992436,-0.06535334885120392
2.9483914375305176,-1.6651214361190798,9.840371131896974,-0.4942145347595215,-4.676796913146973,-0.1315731853246689
2.615459203720093,-2.5222249031066895,9.486600875854492,-0.3528875708580017,-5.6376614570617685,-0.3223240375518799
2.869483470916748,-2.796905040740967,9.497657775878906,-0.21520107984542847,-6.769404888153077,-0.5026795268058778
3.8459248542785645,-1.9931631088256836,9.909622192382812,-0.17875649034976962,-8.072690963745117,-0.611341416835785
4.2734880447387695,-2.1242728233337402,9.974807739257812,-0.10494890064001085,-9.477919578552248,-0.7600835561752319
6.044650554656983,-2.5983870029449467,10.385055541992188,-0.15587459504604342,-10.831110000610352,-0.9350888133049012
13.634562492370607,-4.184656143188477,12.31254768371582,-0.4739759564399719,-11.805880546569826,-1.004280209541321
21.07372093200684,-3.862916707992554,14.014633178710938,-0.6302057504653931,-12.151494026184084,-1.2282750606536865
34.16154861450196,-3.479146242141724,13.843787193298342,-0.6026045083999634,-11.336776733398438,-1.556211829185486
38.934974670410156,-2.356297016143799,13.859793663024904,-0.8183417916297914,-9.98794937133789,-1.4498599767684939
30.371629714965824,-7.4930419921875,12.526000022888185,-1.3096679449081423,-8.977794647216797,-1.2662959098815918
23.7376708984375,-9.792558670043945,14.705854415893555,-1.0760649442672732,-8.477853775024414,-1.5279539823532107
18.587774276733402,-7.809611797332765,17.466476440429688,-0.8055379986763002,-7.986968517303468,-2.010690212249756
19.755113601684574,-7.047150135040284,22.1956787109375,-0.8068278431892396,-7.046566963195801,-1.8055692911148074
10.093970298767092,-3.5979456901550293,15.11789321899414,-0.8782981634140015,-6.098764896392823,-1.7411402463912966
25.61750030517578,-2.6257710456848145,18.691141128540043,-1.0583250522613525,-5.3271498680114755,-1.8552498817443848
34.89612579345703,-11.85646724700928,31.643512725830078,-0.7314544916152954,-1.4402031898498535,-1.9480453729629519
17.212484359741214,-9.63305187225342,25.30908012390137,-0.30447950959205633,1.9129457473754883,-1.2589725255966189
12.800979614257812,-10.81039047241211,20.12127494812012,0.6678546667098999,4.320829868316651,-0.8515787720680238
8.642577171325685,-7.969089508056641,13.72341823577881,1.3320181369781494,5.8085904121398935,-0.6495137214660645
4.835488796234132,-4.674251079559327,9.240782737731935,1.7172685861587527,6.49404001235962,-0.6183968782424927
0.00046938657760620117,-2.3378400802612305,5.660943031311035,1.6074775457382204,6.53986930847168,-0.5525333285331727
-2.7136909961700444,-1.0831409692764284,2.875194311141968,1.1062827110290527,6.301558017730714,-0.38436844944953924
-3.942502975463867,-0.49769967794418335,1.9208784103393555,0.5881299376487733,5.9019060134887695,-0.23786805570125583
-2.564191579818726,0.42502522468566895,2.6388924121856694,0.05787602812051773,5.471993446350098,0.01786443777382374
-0.04077661409974099,0.26899129152297974,4.400025367736816,-0.4923686385154724,5.277362346649171,0.25529736280441284
2.247997760772705,-0.7501660585403442,6.244710922241211,-0.8272319436073304,5.382288932800293,0.4566803574562073
4.620781421661378,-1.833357334136963,7.896222114562988,-0.8862234950065614,5.755311012268066,0.5855968594551088
5.997113227844238,-2.5623602867126465,8.38278102874756,-0.6548723578453065,6.249270915985108,0.6680257320404053
6.135022640228272,-2.2998857498168945,7.810600280761719,-0.35113206505775457,6.617262840270996,0.7338566184043885
6.009642124176026,-1.426293134689331,7.0738677978515625,-0.15391990542411804,6.7982449531555185,0.8353261351585389
6.138089179992676,-0.5709501504898071,6.706673622131348,-0.1264074146747589,6.828216075897218,1.006120204925537
6.898497581481934,-0.20440754294395447,7.106494426727296,-0.19796185195446017,6.800981044769288,1.2191424369812012
8.33293342590332,-0.09162207692861558,7.942646503448487,-0.28533837199211126,6.798029899597168,1.418119788169861
9.884637832641602,-0.03412453830242157,8.698789596557617,-0.349642425775528,6.849047660827637,1.5623400211334229
11.235708236694336,-0.24135702848434448,9.275322914123537,-0.403720110654831,6.890698432922363,1.653755307197571
12.362058639526367,-0.8590908646583558,9.894093513488771,-0.3490827381610871,6.87746286392212,1.7039310932159424
13.130724906921388,-1.2368024587631228,10.526294708251953,-0.18306939303874972,6.8275861740112305,1.7246204614639284
13.96945571899414,-1.1763330698013308,11.294482231140138,0.0010043495567515495,6.755025863647461,1.7435650825500488
15.20277500152588,-1.270951271057129,12.073137283325195,0.15644049644470215,6.686608791351319,1.7835288047790527
16.141160964965824,-1.3230946063995361,12.892679214477539,0.2789773941040039,6.60891056060791,1.8372417688369753
17.46026611328125,-1.2650976181030273,13.899302482604982,0.3414247930049897,6.51807975769043,1.8972324132919314
19.04984855651856,-1.9027764797210693,15.008471488952638,0.35654085874557495,6.435885906219483,1.9279900789260866
20.955186843872074,-3.1684691905975346,16.00478553771973,0.40364947915077215,6.326764106750488,1.9450205564498904
23.603118896484375,-4.690956115722656,16.60296630859375,0.5393927097320557,6.20556640625,1.9086135625839236
27.295330047607422,-4.9812116622924805,16.093481063842777,0.6398385763168335,6.147112369537354,1.8378124237060547
30.266277313232422,-4.30396318435669,14.021074295043945,0.49481892585754395,6.15760087966919,1.753550171852112
30.092735290527344,-3.759498834609986,10.198009490966797,0.11165578663349152,6.128051280975343,1.6085190773010254
27.72439956665039,-1.2384418249130251,5.562275409698487,-0.48242500424385076,5.858229160308839,1.3662786483764648
28.035142898559574,6.649561882019043,-0.6997631192207338,-1.6380624771118164,5.360156536102296,1.2881970405578613
28.792978286743168,10.16703987121582,-7.863904476165772,-3.4370911121368413,4.808296203613281,1.6014535427093506
32.585914611816406,1.8879456520080566,-16.934383392333984,-4.067298889160156,4.166182041168214,1.9081757068634033
32.4101905822754,-6.53895378112793,-23.982583999633793,-2.3703806400299077,2.879205942153931,1.7877323627471924
23.756097793579105,-3.573283910751343,-24.647430419921875,0.11146289855241777,0.5642260313034058,1.154321074485779
16.15981674194336,3.582277774810791,-16.49004936218262,1.3815028667449951,-1.6748448610305788,0.1735704988241196
19.343832015991214,5.622174263000488,-4.8947110176086435,1.1066206693649294,-2.884860038757324,-0.6347300410270692
13.46198844909668,3.002042293548584,7.633790969848633,0.5444530844688417,-2.935425996780396,-1.0119388103485107
17.02945137023926,-1.6531325578689577,3.7686352729797363,0.9691366553306581,-4.165209770202637,-0.946407973766327
-7.6852827072143555,5.052552223205566,3.3257803916931152,0.3361204564571381,-4.568094253540039,-1.4062793254852295
7.129430294036866,1.2913101911544802,17.82671165466309,-0.976069450378418,-5.005609035491944,-1.0404539108276367
17.049215316772464,-9.166724205017092,14.810537338256836,-0.862279236316681,-5.181783199310304,-1.0024075508117676
18.749200820922855,-3.071992635726929,13.934276580810547,-0.448289692401886,-4.907779216766358,-0.5680032968521118
20.17541313171387,-1.9591386318206787,16.05268096923828,-0.515263855457306,-4.574315071105957,-0.14546862244606018
24.13995361328125,-1.61509644985199,17.779891967773438,-0.2948495447635651,-3.7401537895202637,-0.5401046872138978
19.91500282287598,-3.706793785095215,14.770004272460938,-0.16338565945625305,-2.7932915687561035,-0.7251760363578797
14.696656227111818,-5.574492454528809,12.313618659973146,0.14599706232547763,-2.191115379333496,-0.6411855816841127
10.282946586608888,-5.168095111846925,11.159359931945803,0.44729301333427435,-1.663454532623291,-0.6318573951721191
8.407018661499023,-2.28568696975708,10.04090690612793,0.6297447681427002,-1.3375307321548464,-0.6523230075836182
9.081584930419922,-0.7982518076896669,10.81800174713135,0.6555838584899902,-1.0425713062286377,-0.6425499320030214
8.859352111816406,-0.3007160425186157,11.22598648071289,0.6572139859199525,-0.6490414142608643,-0.4976219832897187
6.905819892883301,-1.0459167957305908,10.360677719116211,0.5130369067192079,-0.3798485994338989,-0.3073834776878357
5.892050743103027,-0.5562923550605775,10.317119598388672,0.33216467499732977,-0.2298126518726349,-0.19126264750957492
4.632904052734375,0.03481799364089966,10.378934860229492,0.172519788146019,-0.20814390480518344,-0.11505651473999023
4.750504493713379,-0.5624030828475952,10.414163589477539,0.04725560545921326,-0.24455867707729342,-0.09164607524871826
4.747328758239746,-1.0549641847610476,10.052751541137695,-0.029278986155986786,-0.2688198387622834,-0.07842703908681871
4.6263089179992685,-0.849475920200348,9.885351181030273,-0.0715145990252495,-0.3179662823677063,-0.09551119059324266
5.305366039276124,-1.05238676071167,9.75318241119385,-0.11187432706356049,-0.3248929977416992,-0.08952542394399644
5.261534690856934,-1.4849193096160889,9.474630355834961,-0.13410991430282593,-0.3173960745334626,-0.04941853880882263
5.262607574462891,-1.3029847145080566,9.250075340270998,-0.13202022016048434,-0.29812633991241455,-0.02815891057252884
4.931258201599121,-1.764737606048584,9.149600028991701,-0.10105394572019578,-0.2849040627479553,-0.029020955786108974
4.905857086181641,-0.9462188482284546,9.371744155883789,-0.11329838633537292,-0.28170478343963623,0.0162640642374754
4.950961112976074,-1.4754406213760378,9.23054599761963,-0.12457810342311859,-0.278048723936081,0.04957302659749985
4.668754100799561,-1.894562602043152,9.162660598754883,-0.11988478899002075,-0.285719782114029,0.033806961029768
4.813365936279297,-2.152125835418701,8.915749549865724,-0.0893697813153267,-0.31041085720062256,0.038280088454484947
5.035518646240234,-2.0268054008483887,8.906429290771484,-0.0671307072043419,-0.3216539919376374,0.008720343932509422
5.218713760375977,-1.8860294818878174,8.857559204101562,-0.06547193974256517,-0.30605119466781616,0.01149686146527529
5.1750335693359375,-1.9834389686584473,8.795373916625977,-0.04372260719537735,-0.2908636629581452,-0.03062796033918858
5.163080692291261,-2.3442440032958984,8.827537536621094,-0.014900763519108297,-0.27949559688568115,-0.0697036311030388
5.0788283348083505,-2.4389662742614746,8.775578498840334,0.005448274780064822,-0.2556197345256806,-0.1182946264743805
4.8673110008239755,-2.456377744674683,8.93663215637207,0.04256850853562356,-0.2361728847026825,-0.18367095291614535
4.159241199493409,-2.333786249160767,8.44356441497803,0.09404207766056061,-0.20225183665752414,-0.28530427813529974
4.5631728172302255,-2.335721969604492,8.826809883117678,0.11180411279201508,-0.21846435964107516,-0.35956037044525146
5.025815963745117,-2.3244271278381348,8.821145057678224,0.13307432830333712,-0.2072781473398209,-0.43176037073135376
4.17437505722046,-2.5365710258483887,8.758556365966797,0.17525187134742737,-0.1949373930692673,-0.5299609899520874
4.699689388275147,-1.3440499305725098,9.189355850219727,0.17158453166484836,-0.21396532654762268,-0.6085602045059204
5.689187526702882,-1.4322289228439333,8.914953231811523,0.16154162585735324,-0.1970953345298767,-0.6116620898246766
5.432990074157715,-1.2157046794891357,8.70620632171631,0.17434825003147128,-0.1579486280679703,-0.5893721580505371
5.508193492889405,-0.2812902331352234,9.069172859191896,0.13640205562114718,-0.16497007012367249,-0.5286502242088319
5.870759963989258,0.0860195904970169,9.340331077575685,0.08035649359226227,-0.19833327829837802,-0.4122066795825959
4.6538052558898935,-1.1834282875061035,9.394392013549805,0.06463491171598436,-0.2909642457962036,-0.3818487226963044
4.707779884338379,-1.568845510482788,9.633305549621584,0.06665554642677307,-0.40070921182632446,-0.46342059969902044
5.689896583557129,-1.5458710193634033,9.603965759277344,0.09536392241716386,-0.5218685865402222,-0.5156109929084779
5.020377159118652,-1.2313326597213747,9.421379089355469,0.12105616182088853,-0.6685960292816162,-0.5112096071243286
4.691899299621582,-0.4658641815185547,9.750903129577638,0.10684897750616075,-0.885776162147522,-0.4623039066791535
4.806959629058839,-0.60046523809433,9.825030326843263,0.08005866408348083,-1.136364221572876,-0.37387743592262274
4.66675615310669,-0.7668033838272095,9.873988151550295,0.07689113169908525,-1.397263526916504,-0.3315733373165131
5.219130992889405,-0.06240898370742798,9.766284942626953,0.020733268931508068,-1.6288464069366455,-0.2923639416694641
5.2286577224731445,-0.4166983962059021,9.697135925292969,-0.030520023778080944,-1.8482155799865723,-0.2470691949129105
5.337197303771973,-0.3682511746883393,9.550386428833008,-0.08110249042510986,-2.075808048248291,-0.21612520515918734
5.210357666015625,-0.6034400463104248,9.453190803527834,-0.11344587057828905,-2.3032689094543457,-0.21022956073284152
5.201192378997804,-0.7630833387374878,9.370549201965334,-0.10652443021535875,-2.6033873558044434,-0.2074275016784668
5.463762760162354,-0.8073673248291016,9.495572090148928,-0.10742307454347612,-2.906555652618408,-0.24164344370365146
5.149136543273926,-1.201552987098694,9.217671394348146,-0.10963508486747742,-3.2696948051452637,-0.3350232541561127
5.261649131774902,-1.5764198303222656,9.349016189575195,-0.12168125063180925,-3.7245845794677734,-0.48753967881202703
4.838653564453125,-1.6569061279296875,8.977898597717287,-0.10978116840124132,-4.236688613891602,-0.6215951442718506
4.416998863220215,-1.5851246118545534,8.740516662597656,-0.029325840994715694,-4.901344299316406,-0.7630667090415956
4.835169315338136,-1.7513209581375124,8.517387390136719,0.05012742057442666,-5.643177509307862,-0.8697655200958252
4.970402240753175,-2.16110897064209,8.602725982666016,0.11105159670114519,-6.550819396972656,-0.998713791370392
4.75620174407959,-2.09923529624939,9.197519302368164,0.18926246464252475,-7.713720321655273,-1.1883313655853271
5.367055892944336,-1.7531968355178835,10.374054908752443,0.24894802272319796,-9.048336029052734,-1.4865297079086306
8.613176345825195,-2.4888968467712402,11.599953651428224,0.11748728901147844,-10.335207939147951,-1.702071189880371
16.901180267333984,-4.539576053619386,13.231439590454102,-0.09600076079368591,-11.287819862365724,-1.8848903179168701
26.30008316040039,-4.251357555389405,13.793896675109865,-0.20941697061061862,-11.240764617919922,-2.0905489921569824
35.06939697265625,-1.9667729139328005,11.391777038574219,-0.08321964740753174,-10.113417625427248,-2.283431053161621
35.21586990356446,0.5040912628173828,13.016544342041016,-0.7577309608459473,-8.852413177490234,-1.6496900320053103
22.983448028564453,-7.402282238006593,15.285140037536623,-1.3784812688827517,-8.040355682373047,-1.6241794824600222
22.66324234008789,-8.07696056365967,17.9967041015625,-1.4436303377151491,-7.430850982666016,-1.794145107269287
23.598289489746094,-4.141787052154542,19.50351333618164,-1.2442098855972292,-6.574174880981445,-2.1759483814239506
15.545769691467287,-5.745201587677003,13.959709167480469,0.07217655330896379,-4.855326175689698,-2.882749557495117
5.319933891296387,-6.8697357177734375,24.105201721191406,1.011608600616455,-3.059181451797486,-2.758448600769043
42.832672119140625,-7.47607421875,30.49316215515137,0.7189866304397583,-0.44090101122856146,-2.2882392406463627
19.502735137939453,-7.770155429840089,26.065170288085938,0.6942184567451478,3.2422919273376465,-1.5482486486434939
3.802223920822144,-7.623040199279785,15.099679946899414,0.9453551769256592,4.897184371948242,-1.3039220571517947
2.530518054962158,-5.291336536407472,10.460163116455078,0.9509833455085756,5.642491340637207,-0.8166869282722474
-2.1799805164337163,-4.684626102447511,5.101550579071046,0.7891191244125366,5.601245403289796,-0.34508064389228826
-4.980804920196534,-4.136008262634277,2.7915382385253906,0.5514631271362305,5.213377475738526,0.08767636120319366
-3.5155415534973145,-2.303741455078125,2.913275480270386,0.2944216430187226,4.814052104949952,0.511141300201416
-1.3421425819396973,-0.8365928530693055,4.376487731933594,-0.16903802752494812,4.6226258277893075,0.9506840705871582
0.33008939027786255,0.4603659808635712,5.972220897674561,-0.7232192158699037,4.650877952575684,1.3373548984527588
2.3800871372222905,0.8870936036109925,7.531067848205566,-1.1843817234039307,4.921338558197022,1.5622401237487793
4.329745292663574,0.7709583044052124,8.559562683105469,-1.4390745162963867,5.334314346313477,1.6149381399154665
5.686077594757081,0.9741141200065614,9.114710807800295,-1.4830546379089355,5.79694700241089,1.5171170234680176
6.474925994873047,2.1223099231719975,8.98373317718506,-1.4737762212753298,6.207465171813965,1.3299248218536377
6.919823169708253,2.909682989120484,8.503658294677734,-1.5588325262069704,6.525330543518066,1.1278284788131716
7.5837602615356445,3.1583936214447026,7.8134660720825195,-1.68730366230011,6.734008312225343,0.9658405780792236
8.356781005859375,3.3917036056518555,7.077168941497804,-1.8152030706405642,6.836424827575684,0.8608497977256776
9.408238410949709,3.4524736404418945,6.47548532485962,-1.9602555036544802,6.83705997467041,0.817764163017273
10.649952888488771,3.4267127513885502,6.026176929473878,-2.0958967208862305,6.754140377044679,0.8255188465118408
11.801136970520021,3.217069149017334,5.619573116302491,-2.1846477985382085,6.605640888214112,0.8936301469802856
12.727678298950195,2.1692581176757812,5.3111371994018555,-2.157295942306519,6.421137809753418,0.9843419194221498
13.233304977416992,1.8221728801727295,5.310155868530273,-1.928537726402283,6.182130813598633,1.1303296089172363
13.704865455627443,2.9031469821929936,5.8502197265625,-1.6819406747817995,5.859000205993652,1.3125716447830202
14.907514572143555,3.6998744010925293,6.8416242599487305,-1.569742202758789,5.533881187438965,1.4170933961868288
17.039791107177734,3.804261922836304,7.86846685409546,-1.4975672960281374,5.292986869812012,1.4283350706100466
18.88046455383301,4.329514980316163,8.87464714050293,-1.4254888296127322,5.106319427490234,1.4011449813842773
19.88028144836426,5.3477067947387695,9.78658962249756,-1.4281064271926882,4.948862075805664,1.3235939741134646
20.620634078979496,5.950014591217042,10.524242401123047,-1.5205388069152832,4.801802635192871,1.1487442255020144
21.461969375610355,6.112600803375245,10.532571792602539,-1.613008975982666,4.670941829681397,0.8782098293304443
21.709095001220703,7.436999320983887,9.890849113464357,-1.7325123548507693,4.501252174377441,0.5621387958526611
22.04711723327637,8.5457763671875,9.297282218933107,-1.9578541517257693,4.323244094848633,0.15918733179569247
22.320837020874027,9.376411437988281,8.076903343200685,-2.1856188774108887,4.166341781616211,-0.3602451384067536
21.27141571044922,10.961891174316406,6.075625896453858,-2.455803394317627,3.977693319320679,-0.9188543558120728
19.531148910522464,10.859869956970217,3.503242731094361,-2.7552080154418945,3.6699550151824956,-1.4802356958389284
17.715667724609375,11.631471633911133,0.8973900079727173,-2.9854547977447514,3.169234275817871,-2.0203831195831303
18.062570571899418,14.395796775817873,-2.164423227310181,-3.432642221450806,2.61444640159607,-2.4096531867980957
18.501182556152344,13.723592758178711,-4.646955013275147,-3.950099468231201,2.071083784103394,-2.7737278938293457
19.8043384552002,11.247406959533693,-6.1953582763671875,-4.0508317947387695,1.5696598291397097,-3.194341897964478
21.049386978149418,8.225906372070312,-7.063811779022218,-3.545212030410767,1.1435420513153076,-3.5875551700592045
19.98068428039551,6.329669475555421,-7.703413963317871,-2.689729452133179,0.730148732662201,-3.8401145935058594
16.677865982055668,5.336234092712402,-7.596200942993164,-1.8469932079315186,0.09704608470201494,-3.960179328918457
9.866598129272461,-6.270046234130859,-3.788655042648316,-0.4129689335823059,-0.924590289592743,-4.050053119659425
10.948385238647461,-4.2994704246521005,-4.618334770202637,3.7579898834228516,-2.65317177772522,-5.325665473937988
4.4291653633117685,2.215875864028931,10.723529815673828,3.9751465320587163,-2.864083051681519,-5.462236404418945
9.213218688964844,-6.925727367401124,19.695699691772464,3.3382139205932617,-2.9807150363922124,-4.634052276611328
21.136333465576172,-17.895267486572266,18.054204940795902,2.257787942886353,-3.044715404510498,-3.2028021812438965
18.724481582641605,-21.821100234985355,14.167979240417482,2.272968292236328,-2.289087533950806,-2.053513526916504
21.403795242309574,5.878420829772949,12.623262405395508,2.2493689060211186,-1.6222606897354128,-0.7237257957458496
21.0066089630127,31.048894882202152,13.181982040405273,1.3849306106567383,-0.5557425618171693,-0.28441739082336426
5.0980682373046875,10.480802536010742,13.666792869567873,0.18499080836772921,0.15216726064682007,-0.426735520362854
2.8586776256561284,-5.879690647125245,10.275609970092773,-0.09942212700843811,-0.11489287763834001,-0.30545902252197266
6.2853970527648935,2.2151851654052734,9.555158615112305,-0.02067443542182446,-0.1705635339021683,-0.2502046823501587
6.605352401733398,2.9918653964996342,8.629558563232422,0.09048639237880707,0.061826635152101524,-0.23165932297706604
4.90742063522339,-2.7837424278259277,8.574249267578125,0.1339600682258606,0.14607881009578708,-0.17349551618099215
3.3852615356445312,-2.3083667755126953,9.478218078613281,0.10678233206272125,0.05911969020962716,-0.16866371035575867
7.02767276763916,-0.4819425344467163,9.615586280822756,0.08266571164131165,0.024159304797649384,-0.2206375747919083
6.2292218208313,-0.8027252554893495,9.553652763366701,0.10901470482349396,-0.004474713932722808,-0.14574673771858215
5.624582290649414,0.09162162244319916,9.58275032043457,0.02718637697398663,-0.03908326476812363,-0.105007603764534
6.313530921936035,-0.6819016933441162,9.390405654907227,-0.03818583115935326,-0.025812257081270218,-0.04889835044741631
5.811603546142578,-1.1286380290985107,9.471838951110842,-0.013204602524638176,-0.031838320195674896,-0.028411081060767177
5.469362258911133,-0.7084013223648071,9.447595596313477,-0.010427713394165039,-0.04163451865315438,-0.01334204152226448
5.011783123016358,-0.668120563030243,9.668378829956055,-0.04435649141669274,-0.07690680027008057,0.002690413035452366
5.086730003356934,-0.5490229725837709,9.573638916015625,-0.07380621135234833,-0.12776710093021396,0.021314900368452072
5.225697994232179,-0.556104600429535,9.435457229614258,-0.10277768969535828,-0.16042429208755493,0.04968983307480813
5.227287292480469,-0.8157431483268739,9.263105392456055,-0.1429216116666794,-0.17614665627479553,0.06344162672758104
4.87923288345337,-0.9599474668502808,9.159242630004883,-0.1629650890827179,-0.18786813318729403,0.0733265206217766
4.773478984832765,-0.9237107038497925,9.254115104675295,-0.17146000266075134,-0.22507475316524508,0.06196855753660202
5.0945401191711435,-1.3470306396484375,9.029794692993164,-0.15520356595516208,-0.23896606266498568,0.05029541254043579
5.050044536590577,-1.550037741661072,8.830659866333008,-0.10355421155691148,-0.22261235117912292,0.020956812426447872
4.908066272735597,-1.7973215579986572,8.679853439331055,-0.06424894183874132,-0.21272411942481995,-0.005457964725792408
5.102293968200684,-1.8801208734512331,8.830889701843263,-0.025243705138564113,-0.1961563527584076,-0.03693325445055962
4.663211345672608,-1.803152322769165,8.808906555175781,0.0060246684588491925,-0.2109402269124985,-0.0713907778263092
4.628055572509766,-1.7253937721252441,9.059977531433107,0.027220947667956356,-0.26442426443099976,-0.11960259824991228
5.085186004638672,-1.8086092472076416,8.984930038452148,0.05012348666787148,-0.29577142000198364,-0.1658686101436615
5.275289058685304,-1.201547384262085,9.097970962524414,0.05885924026370049,-0.30601000785827637,-0.19851626455783847
5.492696285247804,-0.8926824927330018,9.043859481811523,0.046830758452415466,-0.30054664611816406,-0.20928604900836947
5.362110614776612,-0.9625076055526733,9.022516250610352,0.021566033363342285,-0.28954216837883,-0.19407886266708374
5.074435234069824,-0.9798232913017274,9.3129358291626,-0.005035749636590481,-0.31597557663917547,-0.19217292964458468
5.355517387390137,-0.8795033097267152,9.256586074829102,-0.03161973133683205,-0.3429279923439026,-0.20509426295757296
5.494643688201905,-0.8124014139175415,9.121375083923342,-0.05549136921763421,-0.3738375008106232,-0.1979506015777588
5.59535837173462,-0.6719474792480469,9.044122695922852,-0.07116402685642242,-0.3930788934230805,-0.189267098903656
5.613879203796387,-0.6905729174613954,9.055582046508789,-0.11258195340633392,-0.40281048417091375,-0.16786931455135348
5.552722454071046,-0.956574559211731,9.107075691223146,-0.1584274917840958,-0.4245070815086365,-0.1691386550664902
5.553345680236816,-0.8399245142936708,9.057132720947266,-0.19573079049587253,-0.4592293202877045,-0.1854095160961151
5.579690933227539,-1.1525702476501465,8.839349746704102,-0.23727585375308993,-0.48204272985458374,-0.19767059385776523
5.50859260559082,-1.0566643476486208,8.753891944885256,-0.20871736109256747,-0.5088802576065063,-0.1845950484275818
5.502924442291261,-1.1083691120147705,8.961518287658693,-0.19551286101341248,-0.5565336346626283,-0.18518397212028503
5.582440376281738,-1.078428030014038,8.865546226501467,-0.18287944793701172,-0.6040122509002686,-0.16733093559741977
5.626769542694093,-1.2511184215545654,8.836503982543945,-0.14889422059059143,-0.6529366374015809,-0.16091185808181763
5.721323490142823,-1.0537288188934326,8.793018341064453,-0.14524167776107788,-0.7058061957359315,-0.15444014966487887
5.8326826095581055,-1.1532487869262695,8.728962898254396,-0.13721175491809848,-0.7599402666091919,-0.13346986472606662
5.814260959625245,-0.9770804047584535,8.71204948425293,-0.1351057142019272,-0.8085690140724183,-0.10999301075935364
5.986537456512452,-0.9060666561126709,8.577906608581545,-0.14391806721687317,-0.8404515385627748,-0.08871807157993317
5.925806522369386,-0.8406265377998353,8.532259941101076,-0.16452345252037048,-0.8735775351524354,-0.07986994832754137
5.690787792205811,-1.1857783794403076,8.53518581390381,-0.17536507546901706,-0.9222794771194458,-0.08286491781473161
5.951918601989746,-1.0220583677291872,8.521181106567383,-0.2020188868045807,-0.9873175621032715,-0.08554574102163316
6.284421920776367,-0.951639473438263,8.404383659362795,-0.22005808353424072,-1.0502387285232546,-0.06081385165452957
6.023261547088624,-1.005780339241028,8.480126380920412,-0.2149571180343628,-1.1245983839035036,-0.024553513154387478
5.963411331176758,-1.3866300582885742,8.615065574645998,-0.2156699001789093,-1.2279297113418581,-0.01814461499452591
6.041457176208496,-1.1098310947418213,8.658562660217287,-0.2009526491165161,-1.368044376373291,-0.01888942159712315
5.908397674560547,-1.2096291780471804,8.612264633178711,-0.21877333521842957,-1.5300096273422243,-0.023627087473869324
5.983588218688965,-1.070875883102417,8.631633758544922,-0.24667534232139587,-1.7316256761550906,-0.03456921502947808
6.086186408996582,-0.576904594898224,8.554649353027344,-0.2855287194252014,-1.9448496103286745,-0.016801729798316956
6.147642612457276,-0.6795883178710938,8.336671829223633,-0.3027973771095276,-2.184215545654297,0.03734988346695901
5.734967708587647,-0.26964855194091797,8.396318435668945,-0.35894155502319336,-2.497010946273804,0.10437323153018951
6.325580120086671,0.17488914728164673,8.30007076263428,-0.4324794411659241,-2.884253263473511,0.19856862723827365
5.9498610496521005,0.28248679637908936,8.401679039001467,-0.604442834854126,-3.336431741714478,0.30175691843032837
6.00411081314087,0.7860553860664369,8.495196342468263,-0.8718393445014955,-3.9009096622467045,0.4084736704826355
6.437765121459961,0.6730788350105287,8.030948638916016,-1.1867594718933105,-4.485257625579835,0.5655333995819092
7.773250102996827,1.7218694686889648,8.304595947265625,-1.598470687866211,-5.062077999114991,0.8908526301383973
7.923918247222901,2.711690902709961,8.524899482727053,-2.1462655067443848,-5.567529201507569,1.1916439533233643
9.300605773925781,1.7858154773712158,8.690794944763185,-2.7523837089538574,-6.113343238830566,1.6462343931198122
10.172462463378906,1.2943644523620605,10.187572479248047,-3.2597820758819585,-6.502016067504883,2.323536634445191
12.579032897949219,0.9913891553878784,11.003043174743654,-3.39620852470398,-6.678860664367676,2.8802123069763184
13.50239372253418,1.3109877109527588,11.92462158203125,-3.807709217071533,-6.935673236846925,3.698530673980713
19.726360321044922,-3.1192879676818848,12.435779571533203,-4.257499217987061,-6.832387447357179,3.9326229095458984
20.82276153564453,-4.333624839782715,11.754158020019531,-4.588761329650879,-6.758891582489015,3.8049068450927734
20.907466888427734,-5.673643112182617,13.955485343933107,-5.119682312011719,-6.235009670257569,3.340833425521851
18.74538612365723,-6.794604778289796,10.901442527770998,-5.6104888916015625,-6.326749324798585,2.9911575317382812
24.307392120361328,-4.451018810272218,12.789241790771484,-6.455862045288086,-5.79410457611084,2.958363771438599
17.498662948608402,-1.9261775016784668,12.38204574584961,-8.110038757324219,-5.076651096343995,3.4469704627990723
20.003305435180668,-1.7095041275024414,19.40352058410645,-10.404927253723146,-4.2596635818481445,3.8455376625061035
17.60527610778809,-4.750741004943848,16.332923889160156,-10.829431533813477,-2.1346180438995366,2.6246705055236816
26.079532623291016,-13.462756156921388,14.718076705932617,-8.604189872741701,-0.470253735780716,-1.033036708831787
28.419809341430668,-20.076360702514652,25.777812957763672,-4.6219801902771005,3.1369285583496094,-3.2427928447723393
14.515103340148928,-11.279946327209474,20.77895545959473,-1.8716404438018799,5.149401187896729,-3.601120233535767
8.578371047973633,-4.983817100524902,14.079817771911623,-0.3516500890254975,5.9520673751831055,-3.8807981014251713
1.6573402881622314,0.16630026698112488,8.917837142944336,-0.06001869961619378,6.132012844085694,-3.9683046340942383
-2.2003540992736816,3.863261938095093,5.615133285522461,-0.6202144026756288,5.729219436645508,-3.8805587291717534
-2.9660167694091797,3.8438746929168706,4.408014774322511,-1.4737313985824587,5.1230621337890625,-3.650312900543213
-1.0762979984283447,1.3396984338760378,4.635857582092285,-2.0431892871856694,4.640931129455566,-3.373660802841187
0.03927125036716461,-1.7485605478286745,6.443486690521241,-2.1164290904998784,4.393583774566651,-3.0342745780944824
1.5764398574829102,-3.880481719970703,8.86927127838135,-1.6848971843719482,4.424738407135011,-2.595032215118408
3.69316840171814,-4.193934917449952,10.464308738708498,-0.9836915135383607,4.740067481994629,-2.0815186500549316
4.6181092262268075,-2.3109743595123295,11.748739242553711,-0.5395560264587402,5.267930507659913,-1.4902076721191406
5.931317806243897,0.2102002501487732,11.706587791442873,-0.5256260633468628,5.906977653503418,-0.7999022603034974
4.823760032653809,1.1875177621841433,10.347044944763185,-0.6377230882644653,6.4211745262146005,-0.06964333355426788
3.02463173866272,1.469152331352234,8.756837844848633,-0.6702084541320801,6.633086681365968,0.5508262515068055
2.5733275413513184,1.7576645612716677,7.979081153869629,-0.5336377620697021,6.541635990142823,1.018644094467163
3.4256432056427006,2.5791115760803223,8.241012573242188,-0.3152990639209748,6.325548648834229,1.3570747375488281
5.3132290840148935,3.5109691619873047,9.291576385498047,-0.12625786662101746,6.159611225128175,1.5957872867584229
7.041280269622804,4.099552154541016,10.358708381652834,0.052174367010593414,6.136277675628663,1.6805723905563357
8.406067848205568,4.337327480316163,11.195080757141115,0.2389228641986847,6.224958896636964,1.5848398208618164
9.052806854248047,4.355628490447999,11.482934951782227,0.4376828670501709,6.363600730895996,1.3479381799697878
9.223305702209474,4.020032405853272,11.52751350402832,0.6436326503753662,6.436016559600831,1.0094468593597412
9.747505187988281,3.5707309246063237,11.769610404968263,0.817363977432251,6.397595882415772,0.6146042943000795
10.613183975219727,2.8511221408844,12.469669342041016,0.9269897341728212,6.306946754455566,0.20025508105754855
12.383730888366701,2.141458034515381,14.048853874206545,0.9642436504364014,6.216848373413086,-0.20116643607616427
15.317499160766602,1.6671568155288699,16.075057983398438,0.9402285814285278,6.218789577484132,-0.5173046588897705
17.905353546142578,1.6773433685302734,17.626567840576172,0.8135964870452881,6.357045650482179,-0.7219163775444032
19.896921157836918,1.659066915512085,18.13813018798828,0.5105925798416138,6.546962261199952,-0.7981891632080078
21.345333099365234,0.9190528988838197,17.846752166748047,0.1472822278738022,6.640185832977296,-0.735999584197998
22.800064086914062,-0.9487062692642212,16.87753677368164,-0.11253195255994798,6.564997673034668,-0.6190946698188783
24.583139419555668,-2.156756162643433,15.484557151794435,-0.16867241263389587,6.340032100677491,-0.4799421131610871
26.808813095092777,-1.1905231475830078,13.135815620422365,-0.25842234492301946,6.028959274291992,-0.26956638693809515
27.842605590820312,-1.7550340890884402,9.656925201416016,-0.5412881374359131,5.699034690856934,0.053168144077062614
29.103736877441406,-1.7665197849273682,8.09965705871582,-0.839662253856659,5.4682722091674805,0.2374747544527054
32.02812576293946,4.150699138641358,3.113359689712525,-1.3181328773498535,5.207360744476319,0.5860742926597596
32.61549377441406,9.555087089538576,-6.778336524963379,-2.4070963859558105,5.00118112564087,1.182922601699829
34.17433166503906,4.995217323303223,-18.832044601440433,-3.083226203918457,4.519412040710449,1.760533928871155
34.3970947265625,-2.7195956707000737,-29.370374679565433,-2.0826597213745117,3.3771927356719975,1.9250614643096924
27.08631134033203,-1.2443397045135498,-30.778505325317386,-0.34721845388412476,0.9240631461143495,1.3452228307724001
18.42857170104981,3.6776740550994877,-22.69341850280762,0.6917753219604492,-1.5633920431137087,0.20518752932548523
8.181907653808594,10.326591491699219,-7.678974628448487,0.6649879217147827,-3.415097713470459,-1.017128109931946
13.800330162048342,7.898249626159668,-1.3904649019241335,0.032243449240922935,-4.668665885925293,-0.8704219460487367
-0.6002464294433594,-0.8818552494049072,9.109498977661133,0.17359232902526855,-5.653432369232179,-2.2484834194183354
10.539915084838867,-0.11045116186141968,24.069461822509766,-0.8011770844459535,-5.582427978515625,-2.738758802413941
23.199098587036136,-15.33939838409424,15.206933975219727,-0.914046049118042,-4.940135955810547,-2.397958040237427
22.947532653808594,-11.240586280822756,13.14468288421631,-0.43163853883743286,-4.354007244110108,-1.1127095222473145
24.037435531616214,-7.365911483764648,18.189502716064453,-0.6193367838859559,-3.437023162841797,0.3089742064476013
23.24124336242676,-1.5157378911972048,19.18701171875,-0.5692209601402284,-2.552438259124756,0.4086324274539948
15.130272865295412,2.8100283145904545,14.260189056396484,-0.5033192038536073,-2.1635749340057377,0.09759344160556793
9.280999183654787,0.0663217306137085,11.87630844116211,-0.5929623246192933,-1.906717300415039,0.04901066049933434
7.332036018371582,-3.372945785522461,10.255309104919435,-0.5526352524757386,-1.63362717628479,0.012013625353574753
8.281344413757326,-4.588885307312012,9.894903182983398,-0.2347754091024399,-1.423570156097412,-0.19236536324024203
9.265053749084474,-5.013972282409668,9.965743064880373,0.20731666684150696,-1.1417384147644043,-0.36892697215080267
5.9585723876953125,-2.404665946960449,9.665925025939943,0.32126230001449585,-0.9471819996833802,-0.35191237926483154
4.221365928649902,-0.9455429315567017,10.786211967468263,0.20814140141010287,-0.9324902296066284,-0.3779090642929077
6.581598758697511,0.20867285132408142,11.313709259033203,0.19790127873420715,-0.7593179345130922,-0.40792709589004517
5.512517929077148,-2.4789910316467285,9.815426826477053,0.12956772744655612,-0.6219761967658998,-0.3510957956314087
7.43334722518921,-0.9064675569534302,10.471982002258303,0.014858128502964973,-0.5163479447364808,-0.23586899042129517
6.706515312194824,-0.4910411238670349,10.447743415832521,-0.06968683004379272,-0.3446705639362336,-0.13390050828456881
5.6862640380859375,-1.1367242336273193,9.910780906677248,-0.14857082068920138,-0.28091520071029663,-0.06881070882081987
5.166481971740723,-1.47575318813324,9.71218490600586,-0.18985046446323398,-0.2611206471920014,-0.028697140514850616
5.091277599334718,-1.6144937276840212,9.3663330078125,-0.19949628412723544,-0.2641071677207947,-0.009175640530884268
4.557584285736085,-1.416182279586792,9.269126892089844,-0.19930781424045566,-0.28701305389404297,0.04974088817834854
4.980253219604492,-1.3555487394332888,9.373479843139648,-0.23002591729164124,-0.31000939011573797,0.11489984393119812
4.862996578216554,-1.6572461128234863,9.32280158996582,-0.24159289896488192,-0.3342935144901276,0.0875190794467926
4.562631130218507,-2.0395905971527104,9.272905349731445,-0.2316586971282959,-0.3698857128620148,0.04769451916217804
4.797173976898194,-2.1642231941223145,9.32393550872803,-0.21862785518169406,-0.42168545722961426,-0.005692989565432072
4.908664226531983,-1.8814035654067995,9.003615379333498,-0.2265889495611191,-0.4460700750350952,-0.03446746245026589
5.024411201477051,-1.915175199508667,8.911909103393555,-0.23367458581924438,-0.48913508653640747,-0.07003635913133623
5.226861953735352,-1.5852327346801758,9.057436943054201,-0.25418174266815186,-0.5139146447181703,-0.06080762296915054
5.285224437713624,-1.4903050661087038,9.025456428527834,-0.29319000244140625,-0.49478784203529363,-0.03979777172207833
5.327299118041992,-1.9950996637344363,8.658197402954102,-0.33063095808029175,-0.4855193197727204,-0.02010190859436989
5.3686890602111825,-2.6699502468109135,8.448864936828615,-0.3234127163887024,-0.4664766788482666,-0.03703994676470757
5.64997148513794,-2.6492457389831543,8.325867652893068,-0.28296092152595526,-0.43823230266571045,-0.05007902905344964
5.478855133056641,-2.7842869758605957,8.200539588928224,-0.23166905343532565,-0.3911290168762207,-0.08543902635574341
5.185155868530273,-3.0387198925018315,8.19523811340332,-0.17803846299648288,-0.3470844030380249,-0.12009377032518388
4.982202053070069,-3.154317855834961,8.128913879394531,-0.10693536698818207,-0.33092087507247925,-0.16094048321247104
4.914515495300293,-2.6355600357055664,8.396867752075195,-0.06526093930006029,-0.3232875466346741,-0.1970881670713425
5.216378211975098,-2.672369241714478,8.563358306884766,-0.048826172947883606,-0.32290121912956243,-0.24028129875659945
5.17276668548584,-2.3028039932250977,8.325702667236328,-0.00931161642074585,-0.3406240046024323,-0.2652849555015564
5.380361557006836,-2.3767499923706055,8.324602127075195,0.02483506686985493,-0.3361825644969941,-0.2811446785926819
5.256629943847656,-2.4860436916351323,8.526557922363281,0.07702668756246568,-0.36048293113708496,-0.2957963645458222
5.263339519500733,-2.330486059188843,8.748224258422852,0.1336354911327362,-0.3952657878398896,-0.32071092724800115
5.312125682830811,-2.510665655136109,8.60448741912842,0.195751890540123,-0.39541274309158325,-0.37043669819831854
5.20028018951416,-2.6252658367156987,8.580082893371584,0.25993183255195623,-0.40063384175300604,-0.40344035625457764
5.505234718322754,-2.195029973983765,8.515509605407717,0.3241071105003357,-0.450311690568924,-0.4139959216117859
5.827639102935792,-0.7930894494056703,9.16177272796631,0.2954228818416596,-0.5200563669204712,-0.33996492624282837
5.392146110534668,-1.1500011682510378,9.426795959472656,0.2094993442296982,-0.6262503862380981,-0.3194246590137482
5.489099502563477,-0.7061327695846558,9.698662757873537,0.09589732438325883,-0.7718541026115419,-0.28697532415390015
5.163769245147706,-0.6086854338645936,9.680065155029297,-0.01629674807190895,-0.9531527161598207,-0.2642357349395752
5.0754151344299325,-0.6687850952148438,9.720568656921388,-0.09564586728811265,-1.204685926437378,-0.25603145360946655
5.002064228057862,-0.6805732846260072,9.859124183654787,-0.1378425657749176,-1.5247849225997927,-0.2161119282245636
4.5442776679992685,-1.121129035949707,10.06402111053467,-0.1317978799343109,-1.8967735767364502,-0.1770715266466141
4.584938526153565,-1.081999182701111,10.140045166015625,-0.15970565378665927,-2.345095157623291,-0.15880422294139865
4.899650573730469,-1.07395875453949,10.205407142639162,-0.2149268835783005,-2.8097715377807617,-0.17980876564979553
4.480813980102539,-1.098884105682373,10.772979736328125,-0.3300576508045197,-3.3307909965515137,-0.25977775454521185
3.3237743377685547,-2.5383520126342773,10.961639404296875,-0.43074032664299017,-4.087879657745362,-0.35536766052246094
2.1461069583892827,-4.246989727020265,10.676913261413576,-0.420734167098999,-5.008268833160401,-0.5829888582229614
2.2212023735046387,-4.672566890716554,9.911334037780763,-0.2654604911804199,-6.10352373123169,-0.9384378790855409
3.6211295127868652,-3.6204633712768555,9.862337112426758,-0.1873753517866135,-7.305995941162109,-1.1710690259933474
4.1838698387146005,-2.086287021636963,10.357040405273438,-0.20193116366863254,-8.620947837829592,-1.3759074211120605
4.410188674926758,-2.0572972297668457,10.443279266357422,-0.17855836451053622,-10.023923873901367,-1.6081115007400515
8.174959182739258,-3.894507884979248,11.35574245452881,-0.30295097827911377,-11.353543281555178,-1.8236259222030642
17.780096054077152,-5.29958438873291,12.586012840270998,-0.4121277034282685,-12.140897750854492,-1.9753459692001345
28.153026580810547,-3.588698387145996,13.570961952209474,-0.38079443573951727,-12.050160408020021,-2.172553062438965
40.562877655029304,-2.8465363979339604,14.051939964294435,-0.5396482944488525,-10.79591464996338,-2.0461931228637695
38.11269760131837,-4.273764610290527,15.272499084472656,-1.10913622379303,-9.376443862915039,-1.5187392234802246
28.366222381591797,-11.600543975830078,15.004323959350586,-1.2059935331344607,-8.576301574707031,-1.603180527687073
22.496835708618168,-10.513045310974123,18.327709197998047,-0.9915347099304199,-8.012788772583008,-2.1062600612640385
20.552783966064453,-9.111351966857912,21.95261955261231,-0.6438615918159486,-7.253714561462402,-2.30773138999939
12.644066810607912,-8.217496871948242,18.20458984375,-0.04161332920193673,-6.012946128845215,-2.424867630004883
19.18034934997559,-3.1720142364501953,20.764842987060547,0.2980047166347504,-5.188298225402832,-2.5789539813995366
38.1396827697754,-9.121393203735352,33.43166732788087,0.38619405031204224,-2.0159783363342285,-2.6547806262969975
14.390878677368164,-5.423408031463624,26.838363647460938,0.19298967719078064,1.1376756429672243,-2.060314655303955
10.877387046813967,-6.984893321990968,22.339822769165043,0.2831544280052185,3.1905748844146733,-1.6825338602066042
7.88725233078003,-5.652025699615479,17.04092025756836,0.30135408043861395,4.625271797180176,-1.3258067369461062
4.389658451080323,-4.970839500427246,12.670546531677248,0.2720986008644104,5.45797061920166,-0.955521047115326
0.9099278450012207,-4.6890015602111825,9.039613723754883,0.3001362085342407,5.83832597732544,-0.637218713760376
-0.870890736579895,-4.428025245666504,6.298959732055664,0.3001841604709626,5.911324501037598,-0.3863632082939148
-1.5788085460662842,-4.179859638214112,4.8443756103515625,0.3044632971286774,5.726503372192383,-0.16871635615825656
-0.9255133867263794,-3.6372892856597905,4.805992126464844,0.3099644482135773,5.517070293426515,-0.01681600511074066
1.520428538322449,-2.6652135848999023,5.966858863830566,0.19192743301391602,5.470942020416261,0.19298303127288818
3.651911020278931,-2.252359390258789,7.285524845123292,-0.014164057560265066,5.677822113037109,0.46867918968200684
5.339224815368652,-2.2496495246887207,8.16292476654053,-0.2254878580570221,6.078542232513429,0.7543536424636841
6.403615951538086,-2.5697684288024902,8.585902214050295,-0.31803455948829656,6.52867078781128,0.9671981334686279
6.965893268585206,-2.612017393112183,8.397585868835451,-0.31991919875144964,6.909833908081055,1.1141871213912966
7.0290069580078125,-2.151258230209351,7.601108551025391,-0.2642842829227448,7.1804304122924805,1.2382235527038574
7.071222782135011,-1.3185479640960693,7.013106346130371,-0.2855920493602753,7.283812522888184,1.3768776655197146
7.885716438293457,-1.1110670566558838,7.1163330078125,-0.39440116286277777,7.3038039207458505,1.5346786975860596
8.571662902832031,-1.673603177070618,7.542078018188477,-0.45179995894432073,7.310962677001953,1.6573005914688113
9.65454959869385,-2.4630556106567383,8.362022399902344,-0.3828260004520417,7.310894012451172,1.7486748695373535
10.837030410766602,-2.4781970977783203,9.049657821655273,-0.19241750240325928,7.292487621307374,1.8531901836395264
11.87385654449463,-1.1429318189620974,9.893030166625977,-0.07324375212192535,7.244750022888184,1.9923895597457888
13.091763496398928,-0.1253881007432938,10.914494514465334,-0.16671901941299438,7.198891162872315,2.1362013816833496
14.413875579833984,-0.31176191568374634,11.946299552917482,-0.302711546421051,7.161918163299561,2.23690676689148
15.543618202209474,-1.0334863662719727,12.958414077758789,-0.27461886405944824,7.105724811553956,2.2580184936523438
16.61309623718262,-1.300715684890747,14.255713462829592,-0.11910665780305864,7.005033969879151,2.196653366088867
18.197406768798828,-1.2602057456970215,15.676868438720703,0.020130448043346405,6.893770694732667,2.09666109085083
20.37850379943848,-1.4050085544586182,16.98408699035645,0.0890091583132744,6.816485404968262,1.9719159603118896
22.918529510498047,-1.2538213729858398,17.844295501708984,0.07230374962091447,6.736865997314453,1.8632265329360964
26.017892837524418,-0.13216406106948853,18.198009490966797,-0.1171519383788109,6.63614320755005,1.7839233875274658
29.75888442993164,0.6917842626571655,17.596925735473636,-0.5556674003601074,6.584998607635499,1.6700315475463867
32.34729766845703,-0.057860761880874634,14.712243080139162,-1.0826333761215212,6.552529335021973,1.4605114459991455
33.44799041748047,-0.7238752245903016,9.736294746398928,-1.4641780853271484,6.430362224578858,1.17378568649292
35.197410583496094,2.0627036094665527,2.000697135925293,-1.765744924545288,6.226169586181641,0.9308282732963563
37.375030517578125,7.43876838684082,-8.590952873229982,-2.4671730995178223,5.748171329498292,0.841517448425293
43.00359344482422,6.188212871551515,-23.450052261352543,-3.2246146202087402,5.144398212432862,1.0525432825088503
41.44968032836915,0.6408408880233765,-34.76074600219727,-2.6132006645202637,3.6021640300750737,1.239471435546875
28.591869354248047,-0.42199987173080444,-34.0987548828125,-1.2551702260971072,0.5979891419410707,0.8347737789154053
19.127321243286136,0.7413439750671387,-22.58946990966797,0.17808309197425842,-2.219415903091431,-0.24486148357391357
11.359713554382326,-0.6509122252464296,-3.686989068984986,1.2184183597564697,-3.947421789169312,-1.0919841527938845
20.41885566711426,-2.205392837524414,2.118722438812256,2.9348254203796387,-5.713927745819093,-1.7894783020019531
1.1037657260894775,8.603525161743164,12.283867835998537,1.9270914793014529,-5.499327182769776,-1.9586291313171387
6.312468051910401,3.4821684360504155,22.529424667358402,-0.07907541841268541,-5.421916961669922,-1.4514914751052859
17.539030075073246,-4.101559638977051,12.068703651428224,-0.03309490531682968,-6.06317949295044,-1.7469998598098757
29.680828094482422,3.4441883563995366,18.947565078735355,-0.025021506473422054,-5.764727592468262,-0.9614825844764711
34.67406845092774,-2.093888282775879,21.324777603149418,-0.17777830362319946,-4.503168106079102,-0.49533101916313177
23.711700439453125,-3.106047868728638,17.722146987915043,-0.01347564160823822,-3.330572366714478,-0.8262515068054199
14.204132080078125,-5.425742149353027,13.593791961669922,0.19436123967170715,-2.7233512401580815,-0.7282902598381044
10.08369255065918,-0.6923900842666626,11.444218635559084,0.37026965618133545,-2.2913935184478764,-0.684799075126648
11.127125740051271,1.0551689863204958,11.319048881530763,0.42868986725807195,-1.8098324537277224,-0.8045058250427246
11.62829113006592,-2.167241096496582,11.29924201965332,0.439791738986969,-1.1632095575332644,-0.7338056564331055
7.5425171852111825,-3.614449977874756,9.73769283294678,0.544015645980835,-0.8114706873893739,-0.5261499285697938
7.290445327758789,0.580603837966919,11.51205825805664,0.4312386810779572,-0.6128865480422974,-0.3175449669361115
6.371173858642578,0.495153158903122,10.615470886230469,0.31802088022232056,-0.36958736181259155,-0.2861690819263459
5.136894702911378,-2.701276540756226,9.429739952087404,0.1790308654308319,-0.30166646838188177,-0.19282960891723633
5.005623817443848,-1.1881290674209597,10.003425598144531,0.040535688400268555,-0.30863633751869207,-0.11758127063512804
5.692811012268066,-0.9601414799690248,10.15229606628418,0.004629095550626517,-0.2912144064903259,-0.11669994145631792
4.920166015625,-1.5854952335357666,9.797525405883789,-0.00024228455731645226,-0.2850002646446228,-0.1114553287625313
4.959816932678223,-1.0514637231826784,9.713180541992188,0.007872991263866425,-0.30917039513587957,-0.10987085103988647
5.1623430252075195,-1.0721349716186523,9.608381271362305,0.015620159916579725,-0.3034796118736267,-0.09981471300125122
5.404358386993409,-1.1860954761505127,9.531402587890625,0.013353939168155195,-0.27709686756134033,-0.062296811491251
5.503150463104249,-1.0907597541809082,9.390682220458984,-0.004209027625620365,-0.25061535835266113,0.008185247890651228
5.262363433837891,-1.1751947402954102,9.348422050476076,-0.036810476332902915,-0.24281224608421326,0.014241621829569341
4.919488906860352,-1.4569224119186404,9.342865943908693,-0.0922120064496994,-0.2729488909244538,0.04096657410264016
4.768455505371094,-1.7183723449707031,9.295874595642092,-0.11996305733919145,-0.3145127296447754,0.01811504550278187
4.73267936706543,-1.8886699676513672,9.166686058044435,-0.13587848842144015,-0.3512687981128693,0.009644217789173126
5.020617008209229,-1.71399462223053,9.018574714660646,-0.1445622742176056,-0.37734112143516546,-0.007067828439176083
5.062432765960694,-1.6366450786590576,8.935458183288576,-0.15029855072498324,-0.3877161145210266,-0.01690211147069931
5.16347360610962,-1.4478662014007568,8.966888427734375,-0.16980193555355075,-0.3917819857597351,-0.020492469891905788
5.463064670562745,-1.4445675611495974,8.83120346069336,-0.1798139214515686,-0.3785720467567444,-0.019566578790545467
5.633417606353761,-1.339289665222168,8.746496200561523,-0.181469663977623,-0.3387390375137329,-0.003144751070067287
5.479396820068359,-1.2477548122406006,8.629610061645508,-0.18930774927139282,-0.28420028090476995,0.00586643209680915
5.119226932525636,-1.6174204349517822,8.699076652526857,-0.19808341562747958,-0.25448352098464966,0.00863961409777403
5.006180763244629,-2.1817212104797363,8.64504623413086,-0.18812118470668796,-0.24828560650348666,-0.01820874586701393
4.889338493347168,-2.440675497055054,8.629310607910156,-0.16848835349082947,-0.23854161798954013,-0.06528627872467041
4.840216636657715,-2.6367256641387944,8.58604145050049,-0.13166542351245883,-0.23820438981056213,-0.13345736265182495
4.485624313354492,-2.9176399707794194,8.38661003112793,-0.05863508954644204,-0.23819249868392944,-0.24638940393924716
4.300291061401367,-3.3594734668731694,8.23893451690674,0.04727023094892502,-0.2660393714904785,-0.38978937268257147
4.50489616394043,-3.138165712356568,8.179667472839357,0.17879949510097506,-0.26421451568603516,-0.5351306796073915
4.529544353485108,-2.4812750816345215,8.453265190124513,0.31026750802993774,-0.23109824955463412,-0.6825378537178041
5.712333679199219,-1.220619082450867,8.747554779052734,0.3510150909423828,-0.2323398143053055,-0.7127547264099121
6.2650957107543945,0.10075494647026062,9.178285598754883,0.26477977633476263,-0.2668530642986298,-0.5908612012863159
5.46258544921875,0.3750864267349243,9.646692276000977,0.14366744458675387,-0.35874056816101074,-0.4509266316890717
5.173851013183594,-0.4308357238769531,9.757412910461428,0.04487868770956994,-0.5297362804412842,-0.37075120210647583
5.303281784057617,-0.569865345954895,9.760447502136232,-0.03664347156882287,-0.7061864137649536,-0.3207459151744843
4.816734790802003,0.17030690610408786,9.902472496032717,-0.09992318600416185,-0.9385886788368226,-0.26058560609817505
4.498813152313233,0.11264929175376892,10.015844345092773,-0.1760956346988678,-1.2363389730453493,-0.17556586861610413
4.36130428314209,-0.31871217489242554,10.35776996612549,-0.25009182095527654,-1.5701205730438232,-0.09002776443958282
4.018362998962402,-0.6770186424255371,10.571093559265138,-0.2811965346336365,-1.9751807451248171,-0.047755204141139984
4.276081085205078,-0.4328375160694123,10.734346389770508,-0.3308375179767609,-2.4525287151336674,-0.013164442032575607
4.487726211547852,-0.20881587266921997,10.961266517639162,-0.43359673023223877,-2.989477396011353,0.012023665010929108
4.297206401824952,-0.7718840837478638,11.223862648010256,-0.5454426407814027,-3.667325973510742,-0.03986962139606476
3.2490780353546147,-2.8034491539001465,11.417824745178224,-0.6537951827049256,-4.427515983581543,-0.19907234609127047
1.8618370294570925,-4.050142765045167,10.987876892089844,-0.6600848436355591,-5.424980163574219,-0.44009062647819525
1.1453880071640017,-4.656923294067383,10.399523735046388,-0.4708042442798615,-6.610380172729492,-0.7808982729911805
1.7868142127990723,-3.600801229476929,10.308330535888672,-0.26705500483512884,-8.072530746459961,-1.0719585418701172
3.1530818939208984,-3.0305166244506836,10.460700988769531,-0.17587862908840182,-9.675424575805664,-1.3381131887435915
3.54381012916565,-2.6077792644500737,10.241162300109865,-0.169869065284729,-11.314273834228516,-1.6346408128738406
10.468456268310547,-4.7527222633361825,12.491189002990724,-0.3880378901958466,-12.665851593017578,-1.846168398857117
22.20615005493164,-6.36439323425293,14.85902214050293,-0.6111150979995728,-13.180336952209474,-1.9906431436538699
35.80322265625,-5.376698970794679,14.66150760650635,-0.36791932582855225,-12.499314308166506,-2.5824575424194336
45.12192153930665,-3.2584960460662846,14.198596000671388,-0.33887854218482977,-10.701037406921388,-2.3777003288269043
35.19309616088868,-4.153183937072754,13.595604896545412,-1.118234992027283,-9.424581527709961,-1.7858396768569949
26.58280754089356,-10.948782920837404,18.033946990966797,-1.3099656105041504,-8.71827793121338,-1.881120800971985
22.30196571350098,-10.589906692504883,24.760221481323246,-1.4565694332122803,-8.064257621765138,-2.1919102668762207
20.015237808227543,-7.436704635620117,22.890399932861328,-1.302117109298706,-6.737151145935059,-1.9721423387527468
7.932559490203858,-4.980933666229249,16.50703620910645,-0.656244158744812,-5.427825450897218,-2.2115631103515625
41.244823455810554,-10.499783515930178,29.170297622680668,-0.4505137503147126,-3.3103866577148438,-2.54478120803833
23.119274139404297,-10.754026412963867,31.342245101928714,-0.0867890864610672,0.41665604710578924,-2.060396194458008
8.97926139831543,-9.335912704467773,21.659774780273438,0.6385440230369569,2.531936883926392,-1.771399736404419
7.126800060272218,-8.328833580017092,17.94027328491211,1.0891029834747314,3.9898912906646733,-1.4473602771759033
4.859473705291749,-5.26056718826294,12.98763179779053,1.254096269607544,4.82605791091919,-1.2210289239883425
1.317137122154236,-3.9356274604797363,9.791640281677248,1.1459448337554932,5.27521848678589,-0.9398441314697266
-0.7629024386405946,-3.428401470184326,7.0817766189575195,0.9407907128334047,5.473906993865968,-0.6922930479049683
-1.5988787412643435,-2.7021217346191406,5.62574338912964,0.6121015548706055,5.480501651763917,-0.4421941637992859
-0.9763928055763246,-2.0198707580566406,5.524703025817871,0.20263592898845675,5.367493629455566,-0.18385887145996094
0.6893985867500306,-1.5259034633636475,6.147665977478027,-0.20284853875637057,5.360925674438477,0.09684184938669206
2.74253511428833,-1.6552186012268066,6.908878803253175,-0.6029393076896669,5.537875652313233,0.3944779634475708
4.069077014923097,-2.8577125072479252,7.425951957702637,-0.7935188412666322,5.819958686828613,0.6769234538078309
4.733015537261964,-3.852185487747193,7.60186767578125,-0.6786024570465088,6.132555484771729,0.8776130080223085
5.454996109008789,-3.897977828979492,7.601612091064453,-0.40254902839660645,6.378196239471436,1.011894941329956
6.4273223876953125,-2.873274326324463,7.726565361022949,-0.1707645505666733,6.576099872589112,1.1422808170318604
7.3509111404418945,-1.234990477561951,7.895042419433594,-0.1458523124456406,6.792362213134766,1.3055986166000368
8.007092475891115,-0.08547236025333405,7.877644062042237,-0.3439712226390839,7.006217956542969,1.5137975215911865
8.418936729431154,-0.05550511181354523,7.91545057296753,-0.6006747484207153,7.16930913925171,1.7065043449401855
8.851396560668945,-0.7626233696937562,8.193589210510256,-0.7345659136772157,7.267906665802003,1.8292593955993652
9.356016159057617,-1.4575995206832888,8.755980491638185,-0.6762378215789795,7.295094966888429,1.861454725265503
10.381540298461914,-1.9384777545928955,9.581685066223146,-0.5081080794334413,7.276385307312012,1.8742425441741943
11.725335121154787,-1.7823671102523806,10.704714775085451,-0.31942200660705566,7.230879306793214,1.9259710311889648
13.06524658203125,-0.9931264519691468,11.976367950439453,-0.2425864785909653,7.200640201568604,2.047992706298828
14.6204833984375,-0.6014206409454346,13.41227912902832,-0.28756916522979736,7.192134380340577,2.1944808959960938
16.416183471679688,-1.1889562606811523,14.765295982360842,-0.33636155724525457,7.186958312988281,2.345524311065674
18.46093559265137,-1.5662617683410645,16.210346221923828,-0.29177418351173406,7.162250518798828,2.5007441043853764
21.056480407714844,-2.356770753860474,17.883749008178714,-0.17329834401607516,7.142559528350831,2.6180524826049805
24.77823257446289,-3.1964054107666016,19.428121566772464,0.045933153480291374,7.169558525085449,2.689264535903931
29.04574203491211,-2.2343380451202397,20.169950485229496,0.26565310359001165,7.214238166809082,2.767111301422119
32.76685333251953,0.19062286615371704,19.489322662353516,0.16393232345581055,7.22843885421753,2.821143627166748
34.79161834716797,0.6769901514053345,16.8488941192627,-0.3011966347694397,7.168265342712402,2.7907741069793706
35.732616424560554,-2.393754482269287,11.509618759155273,-0.5782052278518677,6.9821486473083505,2.4962635040283203
37.90580749511719,-2.654793024063111,2.1131234169006348,-0.3865811824798584,6.693354129791261,1.8121124505996706
44.403717041015625,6.761293411254883,-12.368318557739258,-0.808994233608246,6.336091995239258,0.9937073588371278
55.80034637451172,8.513209342956545,-32.803260803222656,-2.3415017127990723,6.08033561706543,0.836453139781952
44.63572692871094,6.889804840087891,-45.96998596191406,-2.9974160194396973,4.235811710357667,1.0413999557495117
23.392057418823246,0.8496561646461488,-40.06928253173828,-2.896318674087525,0.32577502727508545,0.4533084034919739
13.870354652404787,-3.6684746742248535,-23.15200996398926,-1.2722157239913943,-3.073425769805908,-1.0740252733230593
13.885015487670898,-7.204277515411378,-1.9049247503280642,0.6600600481033325,-4.805312156677246,-2.3569500446319585
20.573223114013672,-10.398911476135256,11.473817825317383,3.9597008228302006,-6.556656837463379,-2.755163431167603
0.15506573021411899,11.062708854675295,14.384099006652834,2.7134253978729252,-5.530451774597168,-2.153012275695801
7.034836769104004,6.506331443786621,19.495563507080078,0.27164855599403387,-5.688812255859375,-0.9977527260780336
20.76896476745606,-2.4687886238098145,12.951849937438967,-0.40706476569175726,-6.241871356964112,-1.0140151977539062
38.12327575683594,6.2268643379211435,21.44301795959473,-0.22857515513896945,-5.398263931274414,-0.5323166251182557
32.04383087158203,4.234031677246094,21.184844970703125,-0.28355634212493896,-3.9264037609100346,-0.5759053826332093
20.947750091552734,-2.8080716133117676,15.843669891357422,0.0567363165318966,-3.044079303741455,-1.1926647424697878
11.892235755920412,-8.466598510742188,12.186971664428711,0.34260824322700506,-2.5428349971771245,-1.2003045082092285
9.792299270629883,-4.913126468658448,9.24063491821289,0.7948040962219238,-2.274731874465943,-1.0815699100494385
14.982660293579102,4.003623485565186,14.891613006591797,0.87836891412735,-1.6203553676605225,-1.1655287742614746
8.125288963317873,2.8750803470611577,10.779903411865234,0.9585561752319336,-0.7004218697547914,-1.2387983798980713
8.44474983215332,-6.152081489562988,9.755327224731445,1.0463275909423828,-0.6022433042526245,-1.0691035985946657
8.67367458343506,0.27955606579780584,11.494640350341797,0.9170077443122865,-0.29068470001220703,-0.6479057669639589
6.467887401580811,1.6412646770477295,10.830800056457521,0.7337456345558168,-0.0550893098115921,-0.6319719552993774
6.4250688552856445,-2.2580001354217534,9.445109367370607,0.532785713672638,0.04690676927566528,-0.4688990414142609
5.264081001281738,-0.6274930238723755,10.079357147216797,0.5148680210113525,0.07544706761837006,-0.37969467043876654
5.461082458496094,-0.9652401208877563,10.123435974121094,0.45869830250740057,0.06648725271224976,-0.33516225218772894
5.395528793334961,-0.33652418851852417,10.032372474670412,0.36400905251502996,0.035950616002082825,-0.25849705934524536
5.189308166503906,-0.05054637789726257,9.888097763061523,0.2781730890274048,0.007964423857629301,-0.20048236846923828
5.189301490783691,0.0931219607591629,9.74072265625,0.2143096625804901,-0.008877307176589966,-0.13952241837978366
5.006662368774414,0.3936149477958679,9.655935287475586,0.14275045692920688,-0.020337361842393875,-0.06134904548525811
5.059637069702148,0.2783823907375336,9.590047836303711,0.05556986480951309,-0.02619624696671963,0.01755631156265736
4.920212268829347,0.145395502448082,9.65537738800049,-0.007387383840978146,-0.037166807800531394,0.07596562802791595
4.39730167388916,-0.34913069009780884,9.439220428466797,-0.061183564364910126,-0.07901279628276825,0.11120522767305376
4.174092769622804,-1.3284811973571777,9.399218559265138,-0.09917576611042023,-0.11242114752531053,0.08314131200313568
4.645787715911866,-1.369858980178833,9.148937225341797,-0.08482015132904053,-0.14280505478382113,0.053249057382345207
4.486737728118897,-1.4300916194915771,9.07734489440918,-0.06654425710439683,-0.14982452988624573,0.01640412397682667
4.955783843994141,-1.4033721685409548,9.072907447814943,-0.03685345500707626,-0.1525399088859558,-0.022668821737170223
5.2489423751831055,-1.115055799484253,8.999574661254883,0.004920735955238342,-0.1277754753828049,-0.03877288103103638
4.9354095458984375,-1.3912153244018555,8.850977897644045,0.04445825889706612,-0.09154067933559418,-0.06422968208789825
4.792360305786133,-1.0637828111648562,9.026056289672852,0.07788240164518358,-0.07320745289325714,-0.09627700597047807
4.746462821960449,-0.3022149503231049,9.21680545806885,0.07814065366983415,-0.07495599240064622,-0.11664870381355286
4.274433612823487,0.07823356986045837,9.103419303894045,0.04866085201501846,-0.09769662469625474,-0.10842913389205933
4.142469882965089,0.20189878344535828,9.327455520629883,-0.011929091997444631,-0.16276788711547852,-0.09904365241527557
4.625776767730714,0.4906744360923767,9.41678237915039,-0.08615892380476,-0.22260692715644836,-0.06668057292699815
4.51800537109375,0.30812495946884155,9.322838783264162,-0.15597264468669894,-0.26297649741172796,-0.03769297152757645
3.924410343170166,-0.6415654420852661,9.414805412292482,-0.19246545433998108,-0.32839986681938177,-0.07719053328037262
4.53705644607544,-0.5232241153717041,9.705418586730959,-0.20175595581531527,-0.4150778651237488,-0.12646174430847168
4.468919277191163,-0.9343218803405762,9.677974700927734,-0.22761866450309753,-0.49166461825370794,-0.17946040630340576
4.631110668182374,-1.579838752746582,9.586677551269531,-0.1801457405090332,-0.5714677572250366,-0.2710538804531098
5.025400161743164,-1.299473524093628,9.411136627197266,-0.08692955225706102,-0.6576199531555176,-0.32122054696083074
5.102053165435792,-1.1061367988586426,9.417347908020021,-0.0019200339447706938,-0.7377371191978456,-0.356592744588852
