AccX,AccY,AccZ,GyrX,GyrY,GyrZ
0.00015380959666799757,-2.1793966880068183e-05,0.00028367433696985245,-1.8234270759975859e-09,-1.8208206142844574e-07,-3.2725208143347123e-07
4.992443084716797,-0.7049446105957031,9.28267574310303,0.0025769744534045462,-0.004407709930092097,-0.00847732275724411
4.987723827362061,-0.7228041887283325,9.271847724914553,0.0036684356164187197,-0.005249272100627422,-0.00940490607172251
4.9356689453125,-0.7183734178543091,9.253997802734375,0.0031242980621755123,-0.005923434626311065,-0.007695230189710856
4.933379650115968,-0.7163187265396118,9.29983139038086,0.003000230062752962,-0.00934447627514601,-0.010288184508681297
4.970102310180664,-0.659155309200287,9.284235000610352,0.0028420197777450085,-0.011132745072245598,-0.010206212289631368
4.963256359100343,-0.6745874881744385,9.276196479797365,0.00013537678751163185,-0.01090915407985449,-0.008548356592655182
4.973301887512207,-0.6729453802108765,9.287373542785646,0.0005106555181555451,-0.014504639431834221,-0.009179351851344109
4.970954418182374,-0.7159152030944824,9.251087188720703,-0.0015523808542639017,-0.014975643716752531,-0.007935220375657082
4.972209930419922,-0.7382184267044067,9.24783229827881,0.0005206630448810757,-0.0129116652533412,-0.009443197399377823
4.962136745452882,-0.7369914650917054,9.282799720764162,0.005594864021986724,-0.01310744695365429,-0.014569549821317198
4.981128215789796,-0.6663262844085693,9.295262336730959,0.003693751059472561,-0.011832154355943205,-0.012316520325839521
4.980557441711426,-0.6719497442245483,9.269545555114748,0.0015560599276795985,-0.011391639709472656,-0.011107097379863264
4.979840755462647,-0.71544748544693,9.263003349304201,0.0008469853783026338,-0.013490995392203331,-0.01099567022174597
4.996635913848878,-0.6848164796829224,9.281238555908203,-0.0003050725208595395,-0.013724171556532385,-0.010704908519983292
4.97613525390625,-0.6956393122673036,9.282709121704102,0.002226045820862055,-0.011541877873241903,-0.010358524508774282
4.960315704345703,-0.7103153467178345,9.294146537780763,0.0009521179599687457,-0.01214661914855242,-0.012093527242541313
4.971343517303468,-0.7079793214797974,9.272372245788576,0.0029555496294051413,-0.010832029394805433,-0.013794207945466042
4.97306776046753,-0.6988139152526855,9.26455307006836,0.0028063089121133093,-0.011927511543035507,-0.013337734155356886
4.991476058959961,-0.6944189071655273,9.251357078552248,0.005304817575961352,-0.009319128468632698,-0.015342561528086662
4.995697021484375,-0.6824142932891846,9.259029388427734,0.007169562857598067,-0.009883493185043335,-0.014323177747428419
4.977219581604004,-0.6968854069709779,9.265772819519045,0.0043754694052040586,-0.011255924589931967,-0.013368695974349976
4.9802093505859375,-0.6993776559829712,9.271791458129883,0.006463042926043273,-0.011518469080328941,-0.015109932981431486
4.958596706390382,-0.6402819156646729,9.285232543945312,0.003275979077443481,-0.011403867974877357,-0.01291775330901146
4.966031074523926,-0.6853496432304383,9.277289390563967,-0.0008490821346640587,-0.012478063814342024,-0.010201597586274147
4.978512763977051,-0.7130014896392822,9.302656173706055,0.0011176819680258634,-0.013793344609439375,-0.013449117541313171
4.9761810302734375,-0.6678165197372437,9.279924392700195,0.0017348976107314231,-0.01638852432370186,-0.013309276662766935
4.975101947784425,-0.7104390263557435,9.285166740417482,0.0009800172410905361,-0.01680497266352177,-0.013868301175534727
4.980891227722168,-0.6810596585273744,9.287600517272951,0.0016966599505394697,-0.01778356917202473,-0.015821002423763275
4.9933819770813,-0.683517575263977,9.255376815795898,0.0015248795971274376,-0.017831120640039444,-0.01432891469448805
5.002470493316651,-0.6513789892196655,9.2630090713501,0.0010986197739839554,-0.018509143963456157,-0.01326553151011467
4.998040676116944,-0.6961007118225098,9.275415420532227,0.001180827501229942,-0.015281686559319496,-0.011350695043802261
4.980127334594727,-0.6638928651809692,9.263982772827148,0.0008220995659939946,-0.01191161759197712,-0.010749191977083685
5.000642776489258,-0.6621315479278564,9.275732994079592,-0.0013300759019330146,-0.013812066055834295,-0.00868847407400608
4.987409114837647,-0.7066355347633363,9.235875129699709,-0.00280315219424665,-0.011650195345282555,-0.00770842144265771
4.972620487213136,-0.712489128112793,9.304733276367188,0.0019493293948471546,-0.01278574485331774,-0.01061335112899542
4.983768939971925,-0.7027138471603394,9.2646484375,0.0014469943707808854,-0.01409982517361641,-0.012071927078068258
4.9650678634643555,-0.6792844533920288,9.28561305999756,0.0009251433075405658,-0.014961143024265768,-0.01228749006986618
4.981327533721925,-0.6934908032417298,9.263406753540039,0.002030490431934595,-0.018345413729548458,-0.014777271077036858
4.972848415374757,-0.7236485481262207,9.274364471435547,0.001752489362843335,-0.01626286283135414,-0.013641148805618286
5.014389514923097,-0.6783173084259033,9.248959541320803,0.00366378016769886,-0.015573407523334028,-0.017045028507709503
5.013951301574707,-0.6531078219413758,9.249501228332521,0.004131632391363383,-0.013748793862760069,-0.015055542811751366
5.009102821350098,-0.6446569561958314,9.295547485351562,0.00123100180644542,-0.011673582717776299,-0.01173019874840975
4.989447593688965,-0.6819639801979066,9.275081634521484,-0.0005157067207619548,-0.012077442370355131,-0.009796367026865484
4.989822864532472,-0.7080441117286683,9.216018676757812,0.0006660277722403407,-0.012072402052581312,-0.009608635678887367
4.973024368286133,-0.6916385889053345,9.297271728515625,0.0008550558122806252,-0.01436546351760626,-0.010871434584259987
4.959949016571046,-0.727017104625702,9.271108627319336,0.0006364897708408536,-0.014268279075622559,-0.01086381543427706
4.9517107009887695,-0.6885385513305664,9.256217002868654,0.002531972480937839,-0.01649187132716179,-0.012801704928278923
4.96842908859253,-0.6730505228042603,9.308364868164062,-0.0006856383988633752,-0.019600609317421917,-0.013081319630146027
4.98176383972168,-0.6737462878227235,9.26419448852539,-0.002589890733361244,-0.020573295652866364,-0.012981872074306013
4.995444774627686,-0.7048672437667847,9.263311386108398,-0.0003637740446720273,-0.01747070997953415,-0.012786044739186765
5.02664852142334,-0.6645337343215942,9.289202690124513,0.0018468769267201424,-0.01746751554310322,-0.010612684302031996
5.029987335205078,-0.6710249781608583,9.255077362060547,-0.0002260638138977811,-0.016506340354681015,-0.008278603665530683
4.991022586822511,-0.7095321416854858,9.263763427734375,0.00014305578952189538,-0.01379129942506552,-0.009768391028046608
4.971387386322022,-0.7190605998039247,9.285545349121094,0.003117333864793182,-0.012138163670897484,-0.01306287292391062
5.028057575225831,-0.6915755271911621,9.272722244262695,0.0021725262049585585,-0.014797883108258247,-0.012833194807171822
4.9797682762146005,-0.6897792220115663,9.267426490783693,0.002284756861627102,-0.012586547993123533,-0.012512166053056717
4.971797466278077,-0.6986855864524842,9.258364677429201,0.0047133644111454496,-0.013790930621325971,-0.013781905174255371
4.9815568923950195,-0.6695653200149536,9.287390708923342,0.005573079455643893,-0.014524821192026138,-0.01405588071793318
5.01624345779419,-0.6454120874404907,9.274283409118654,0.0025506711099296813,-0.014228595420718193,-0.014645349234342575
4.991569519042969,-0.6684337854385376,9.256495475769045,0.002202496863901615,-0.01231267396360636,-0.01166832260787487
4.972558498382569,-0.7142366170883179,9.25822639465332,0.002534701954573393,-0.012824149802327156,-0.011172438971698286
4.972525119781495,-0.7031935453414917,9.240690231323242,0.005299458745867015,-0.013541677966713905,-0.015256411395967008
4.97906255722046,-0.6738647222518921,9.280862808227539,0.0038323795888572936,-0.015733197331428528,-0.01531936414539814
4.99068307876587,-0.6607742309570312,9.25767707824707,0.0023139708209782843,-0.016121409833431244,-0.01420248579233885
4.997422695159913,-0.6736112236976625,9.278069496154787,0.001109094126150012,-0.01709005981683731,-0.012423864565789701
4.989322185516358,-0.6796145439147949,9.262171745300295,0.002758723683655262,-0.012257265858352186,-0.011410629376769066
5.035155773162843,-0.6508800387382508,9.263439178466797,0.0021849689073860645,-0.01150071155279875,-0.012508693151175978
5.008237838745117,-0.6355909109115601,9.270750999450685,0.00016035808948799968,-0.009987953118979933,-0.009778901934623718
4.959205150604249,-0.6919656991958618,9.308500289916992,-6.548644159920514e-05,-0.010419933125376701,-0.009538705460727217
4.974210262298585,-0.7060902118682861,9.267258644104006,-0.00017958252283278855,-0.012498509138822556,-0.01030764263123274
4.9829864501953125,-0.6852307319641113,9.264498710632326,-0.0014247363433241844,-0.010919681750237943,-0.010704454965889456
4.963395595550538,-0.6709214448928833,9.265518188476562,-0.0012625368544831874,-0.013841342180967331,-0.010567977093160154
5.00376033782959,-0.686903715133667,9.249563217163086,0.001585089834406972,-0.014385093003511429,-0.012041642330586912
4.991059303283691,-0.6948519349098207,9.27273941040039,-0.0018333339830860498,-0.013810694217681885,-0.011312720365822317
4.993077278137207,-0.6854281425476074,9.285859107971193,0.00046764116268604994,-0.013014194555580618,-0.011482476256787779
5.003899574279785,-0.6643381714820863,9.259132385253906,-0.001174136996269226,-0.012459081597626211,-0.010899186134338379
5.027178287506104,-0.6583555936813354,9.292186737060547,-0.0011400588555261495,-0.011794607155025007,-0.009024839848279953
4.9930481910705575,-0.6841760277748109,9.268662452697756,-0.0013800659216940403,-0.010039663873612882,-0.00956844910979271
4.9739580154418945,-0.6739785075187684,9.233742713928224,-0.0014190330402925613,-0.009903959929943085,-0.0083478894084692
4.95361328125,-0.7057266235351562,9.273014068603516,-7.683979492867367e-05,-0.010269062593579292,-0.010928130708634855
5.001401901245117,-0.6787509918212891,9.280162811279297,0.0014038102235645056,-0.011973567306995392,-0.013189462013542654
4.99178409576416,-0.6926441788673402,9.25215244293213,0.0009577405289746822,-0.013847244903445244,-0.013640434481203558
4.993212699890137,-0.6571640968322754,9.268813133239748,0.001987191149964929,-0.011507323011755943,-0.01356840692460537
4.9843854904174805,-0.6854031085968018,9.309292793273928,0.001173288095742464,-0.013524820096790792,-0.01133640669286251
4.953078269958496,-0.6885049343109131,9.291674613952638,0.000963064725510776,-0.014502407982945442,-0.01264618430286646
4.978877067565918,-0.6492071151733398,9.288009643554688,-0.0005605475162155927,-0.01696842908859253,-0.01250813063234091
5.021227836608887,-0.6926216483116151,9.277808189392092,-0.002733496017754078,-0.018499841913580898,-0.011049169115722181
4.999215602874757,-0.6611462235450746,9.26882076263428,-0.001563869300298393,-0.01532118208706379,-0.012391236610710623
4.984388828277589,-0.672562837600708,9.225344657897951,-0.0004138085350859911,-0.01416257116943598,-0.011261414736509323
4.985316276550293,-0.723524808883667,9.275226593017578,0.0004417485906742513,-0.014248448424041273,-0.010596081614494324
5.003966808319093,-0.6936922669410707,9.305676460266115,0.002172856591641903,-0.01419899705797434,-0.01296589430421591
4.994375705718995,-0.6784616112709047,9.249098777770998,0.0019971758592873816,-0.01148991473019123,-0.01463566441088915
5.000055789947511,-0.677705228328705,9.239837646484375,0.002935993019491434,-0.011761724948883057,-0.013709948398172857
5.013192176818848,-0.6496564745903016,9.275759696960451,0.002827301854267717,-0.011490488424897194,-0.012864948250353338
4.997535228729249,-0.6651269197463989,9.262116432189943,0.0025228580925613646,-0.008866855874657631,-0.0118027925491333
5.010907649993897,-0.6971887946128846,9.253751754760742,0.003152672899886966,-0.009999822825193405,-0.01164777483791113
4.997369289398194,-0.6912623643875122,9.296622276306154,0.002040351973846555,-0.008158124051988127,-0.011540841311216354
4.997353553771973,-0.7023758888244629,9.252197265625,0.004242762457579375,-0.007511788979172707,-0.01036780793219805
4.998992919921875,-0.7061275243759155,9.28482437133789,0.004303317982703448,-0.008282333612442017,-0.013044752180576324
4.9992876052856445,-0.6473321914672852,9.26397228240967,0.006578211206942798,-0.006955025717616081,-0.01369027514010668
5.00446653366089,-0.6371284127235414,9.250436782836914,0.0012723987456411123,-0.005053417757153511,-0.009134898893535139
4.980685234069824,-0.6634673476219178,9.263777732849123,0.002921449486166239,-0.004502980504184962,-0.01044551283121109
4.9971022605896005,-0.6877902746200562,9.277562141418459,0.0038479804061353207,-0.006075401324778796,-0.009911135770380499
4.998893737792969,-0.6758562326431274,9.287031173706055,0.0032788249664008617,-0.009395933710038664,-0.01036841981112957
4.9846696853637695,-0.685320258140564,9.272626876831055,0.001381932059302926,-0.008889477699995041,-0.011542319320142271
5.002455711364746,-0.6973915100097656,9.263604164123537,0.0013687585014849901,-0.008596531115472318,-0.010858632624149323
5.022882461547852,-0.6736835837364198,9.261859893798828,0.0034475594293326144,-0.008752608671784401,-0.012852629646658897
5.038323402404785,-0.6553879976272583,9.27389430999756,0.004725330509245396,-0.0064415312372148046,-0.011223701760172844
5.000527381896973,-0.6132188439369203,9.250265121459961,0.004363583866506816,-0.004267929587513209,-0.009747246280312538
4.991017818450929,-0.6420012116432191,9.231635093688967,0.0012003709562122822,-0.001629444886930287,-0.008021235466003418
4.9409193992614755,-0.6664649844169618,9.246295928955078,0.0010651210322976112,-0.0013544092653319242,-0.006621662061661483
4.9482011795043945,-0.7064193487167358,9.285253524780273,-6.191009015310556e-05,-0.003916590940207244,-0.00766178872436285
4.9482693672180185,-0.6649453639984131,9.28352451324463,-0.0015549564268440008,-0.006767967715859413,-0.007355192210525275
4.936558723449707,-0.69986230134964,9.297306060791016,-0.0022501426283270125,-0.010726597160100937,-0.009458894841372969
4.975591659545898,-0.6824265718460083,9.28182125091553,-0.0004450846463441849,-0.014134441502392294,-0.010402047075331213
5.008401393890382,-0.6468007564544678,9.256099700927734,-0.001180754043161869,-0.013749812729656698,-0.011211862787604332
5.029153823852539,-0.6460208892822266,9.235283851623537,-0.002463444136083126,-0.009546147659420967,-0.009542143903672697
4.9543118476867685,-0.6858456134796143,9.24528694152832,-0.0020769108086824417,-0.008267098106443884,-0.008471474051475525
4.935792922973633,-0.7362462282180786,9.310452461242678,0.00027392414631322026,-0.01267457287758589,-0.010323873721063139
4.943599700927734,-0.6957611441612245,9.307679176330568,0.0010478416224941613,-0.014621790498495102,-0.01444616448134184
4.972672462463379,-0.6673768758773804,9.285309791564943,-0.0006729863816872239,-0.01955360174179077,-0.014574739150702955
5.013602733612061,-0.5896898508071899,9.261144638061523,-0.004327891394495964,-0.01947434060275555,-0.011778036132454872
5.026968002319336,-0.6304293274879457,9.245077133178711,-0.008101655170321465,-0.017127243801951412,-0.00825368892401457
4.9989972114563,-0.6747180223464966,9.276589393615724,-0.007089609745889903,-0.015926770865917206,-0.006459800060838462
5.012744903564453,-0.6888837814331055,9.260175704956055,-0.006431690882891417,-0.01108039263635874,-0.005961003713309765
5.007250308990479,-0.6852885484695435,9.246180534362795,-0.005356503650546074,-0.011195792816579344,-0.006733255460858345
5.0013699531555185,-0.6757957339286805,9.240618705749513,-0.005632292944937945,-0.00898314081132412,-0.0066990721970796585
4.935129165649414,-0.7158620357513428,9.281992912292482,-0.005273462738841773,-0.009043717756867409,-0.006959606427699328
4.967729091644288,-0.753809154033661,9.262055397033693,-0.0008965658489614725,-0.010815707966685295,-0.010265733115375044
4.989570140838624,-0.6480214595794678,9.271307945251467,6.0019538068445406e-05,-0.010464942082762718,-0.01276951748877764
4.9683804512023935,-0.6468061208724976,9.273865699768068,-0.0012850192142650487,-0.012100126594305038,-0.010462339967489243
5.001502990722656,-0.6914875507354736,9.268548965454102,-0.002409908222034574,-0.013532007113099098,-0.009230938740074636
4.954949378967285,-0.6406511068344116,9.235692977905273,-0.0022100901696830992,-0.015608658082783224,-0.007527976296842098
4.927686214447022,-0.6851683259010316,9.287058830261232,-0.006673773285001517,-0.02061207965016365,-0.011142336763441564
4.956456184387207,-0.695724904537201,9.253636360168459,-0.005430373828858138,-0.024983886629343033,-0.01035754382610321
4.9297380447387695,-0.7412782311439515,9.27295780181885,-0.007931782864034178,-0.028594639152288437,-0.01443107705563307
5.017054557800293,-0.7317363619804383,9.266537666320803,-0.005062181036919356,-0.032893035560846336,-0.014291251078248024
4.99987554550171,-0.6705873012542725,9.253175735473633,-0.004452293738722801,-0.029178744181990627,-0.017615485936403275
5.015267372131348,-0.7104791402816772,9.246872901916506,0.00010598928201943636,-0.029162889346480373,-0.018863542005419735
5.034288883209229,-0.7044861316680908,9.224430084228516,0.0041649029590189466,-0.02337479218840599,-0.01939734630286694
5.037964820861816,-0.6086475849151611,9.230446815490724,0.004041241947561503,-0.016106756404042247,-0.016652483493089676
5.028090953826905,-0.6916654109954834,9.216387748718263,0.00025845126947388053,-0.013423378579318525,-0.013748010620474815
5.013623237609863,-0.6605091094970703,9.244256973266602,0.005242744926363231,-0.013886108994483948,-0.013599824160337448
4.986105918884277,-0.666893720626831,9.268422126770021,0.004047035705298186,-0.011868489906191826,-0.013862260617315771
4.994507789611816,-0.7297773957252504,9.246684074401857,0.002835487946867943,-0.013201924040913582,-0.01484318356961012
4.9854092597961435,-0.6850812435150146,9.245862007141115,0.008162744343280792,-0.013656211085617544,-0.01726122945547104
4.970311641693116,-0.6695654392242432,9.25187397003174,0.007773572113364936,-0.0127476267516613,-0.018053650856018066
5.0254058837890625,-0.6288017630577089,9.272937774658203,0.005166708491742611,-0.014065823517739775,-0.017985552549362183
5.053730487823487,-0.6380397081375122,9.261682510375977,0.0016935341991484165,-0.012472875416278839,-0.014074441976845266
5.00865125656128,-0.6798068284988403,9.273888587951662,-0.00024859356926754117,-0.011657602153718473,-0.010488864034414291
5.041647911071777,-0.6442811489105225,9.267626762390138,0.0019231351325288417,-0.010819599032402039,-0.008510654792189598
5.014525890350343,-0.6353222131729126,9.24749755859375,-0.0014505800791084766,-0.008924772031605245,-0.005766943097114563
4.9799771308898935,-0.6702815294265747,9.274375915527344,-0.0016467854147776963,-0.008850087411701681,-0.006188219413161278
4.978267192840577,-0.6844125390052797,9.281318664550781,-0.00014056271174922585,-0.010223441757261755,-0.005191355012357235
4.9646973609924325,-0.7113103866577148,9.255652427673342,-0.0029445856343954806,-0.012085415422916412,-0.008409593254327774
4.971582889556886,-0.7102208137512207,9.258666038513185,-0.0013722382718697192,-0.015973351895809174,-0.01083700079470873
4.954817295074464,-0.6913004517555238,9.298189163208008,-0.001496721641160548,-0.01985828392207623,-0.01109992153942585
4.997108459472656,-0.720724642276764,9.298213958740234,-0.0013582478277385235,-0.021441088989377025,-0.012972403317689896
5.037579536437988,-0.6337792873382568,9.284949302673342,-0.0022707292810082436,-0.02216618694365025,-0.012859241105616094
5.0527544021606445,-0.5916973352432251,9.280070304870607,-0.0047686342149972916,-0.020860509946942333,-0.009163668379187584
5.036240100860597,-0.6469762325286865,9.250045776367188,-0.00943843461573124,-0.017590947449207306,-0.004516187589615584
5.000514984130859,-0.752988636493683,9.224345207214357,-0.004726125858724117,-0.015021377243101599,-0.006755327805876732
4.996868610382081,-0.6427198052406312,9.285028457641602,-0.003195938421413303,-0.014884011819958687,-0.01149902306497097
5.031337738037109,-0.6796053647994995,9.24317741394043,-0.0054414961487054825,-0.012218971736729147,-0.007910700514912605
4.9929261207580575,-0.7111877202987671,9.26616954803467,-0.002803029259666801,-0.00910977926105261,-0.007870141416788101
5.007730484008789,-0.7060363292694092,9.272011756896974,-0.00044518048525787895,-0.009876104071736336,-0.010015030391514303
5.026378631591797,-0.6281378865242006,9.255273818969727,-0.001900466624647379,-0.007289669942110778,-0.006576942745596171
5.011000633239746,-0.6570868492126465,9.245497703552248,-0.003527411725372076,-0.005572761874645949,-0.0028720563277602196
4.975080490112305,-0.7064462900161743,9.260059356689453,-0.004028482828289271,-0.005394619423896075,-0.004136714152991772
4.9616594314575195,-0.7048195004463197,9.282230377197266,-0.003633326152339578,-0.008978575468063354,-0.005712720099836589
4.997476100921632,-0.7068304419517518,9.221818923950195,-0.0008593949605710806,-0.010279674082994461,-0.009747790172696114
4.988273620605469,-0.6849462985992432,9.242042541503906,0.0009265311527997255,-0.011401900090277197,-0.009829839691519737
5.00166940689087,-0.6833462715148926,9.232648849487305,0.0007108687423169613,-0.012393614277243614,-0.009938028641045095
4.999600887298585,-0.7276865839958192,9.224415779113771,0.0016203828854486348,-0.010307257995009422,-0.011281895451247694
5.014786720275879,-0.698891282081604,9.26554584503174,0.005030644591897727,-0.00954248197376728,-0.013380412012338638
4.971656799316406,-0.6687936186790467,9.225475311279297,0.005112059414386749,-0.00911907944828272,-0.012158263474702835
4.950102329254151,-0.6860623359680176,9.268226623535156,0.003349198261275888,-0.011280738748610021,-0.013244135305285454
4.999639034271241,-0.738427221775055,9.26620864868164,0.004241439979523421,-0.013959242030978203,-0.013811009936034681
4.995584487915039,-0.6789135336875917,9.262539863586428,0.004730299580842257,-0.015106098726391792,-0.01707589253783226
4.982980728149414,-0.6383391022682191,9.245384216308594,0.0024841839913278822,-0.017912104725837708,-0.016071526333689693
5.016442775726319,-0.6533105373382568,9.272117614746094,0.0021338756196200848,-0.01848956197500229,-0.013331950642168524
4.985724449157715,-0.6771580576896669,9.262954711914062,-0.0006292515899986029,-0.018538342788815502,-0.01430651918053627
4.982567310333253,-0.6646935939788818,9.258123397827148,-0.00028853019466623664,-0.020276384428143505,-0.01317895855754614
5.008622169494629,-0.6638522744178773,9.249137878417969,-0.001128272037021816,-0.020976558327674866,-0.01377068553119898
5.012981891632081,-0.6848762035369873,9.201576232910156,0.00028504358488135045,-0.019875166937708858,-0.013778455555438995
5.005481719970703,-0.6471368670463563,9.248708724975586,0.0003817012766376138,-0.018083041533827785,-0.01429317332804203
5.019037246704102,-0.7375723123550415,9.261699676513672,-0.001206853776238859,-0.018841877579689026,-0.014104621484875679
5.006646156311035,-0.6912105083465576,9.245779991149904,0.0029360810294747353,-0.016871294006705288,-0.016205668449401855
5.036233425140382,-0.6737867593765259,9.256285667419435,0.0022414405830204487,-0.01699245721101761,-0.015371470712125303
4.994912624359132,-0.6746011376380922,9.268107414245607,0.0018528065411373975,-0.018076032400131226,-0.014271139167249204
5.011619091033936,-0.7222304940223695,9.269062995910646,0.0008590114885009826,-0.019678961485624313,-0.014106327667832375
4.989249229431152,-0.710311770439148,9.264333724975586,0.002438713097944856,-0.020470723509788513,-0.015512495301663877
4.998130321502686,-0.7774603366851807,9.249901771545412,0.006688754539936782,-0.018989274278283123,-0.01795024797320366
5.000991344451905,-0.6653141975402832,9.26667881011963,0.008356426842510702,-0.021525371819734573,-0.02112699113786221
5.049065589904785,-0.6044723987579346,9.242093086242678,0.007303647231310607,-0.021048109978437424,-0.019960328936576843
5.056035041809082,-0.613664209842682,9.217705726623537,0.004833892453461886,-0.015613358467817307,-0.015358963049948217
5.073676586151124,-0.6195895671844482,9.238085746765138,0.003597217379137874,-0.010506507940590383,-0.010638831183314323
5.0605878829956055,-0.675184965133667,9.228408813476562,0.0036651955451816325,-0.004666673019528389,-0.009249952621757986
4.999134063720703,-0.6735963821411133,9.251192092895508,0.006019359920173884,-0.0023693926632404327,-0.00973219983279705
5.044031143188477,-0.6906654238700868,9.258069038391115,0.006484725046902896,-0.001841271761804819,-0.009677081368863584
5.042321681976319,-0.6737595796585083,9.254938125610352,0.007922990247607231,-0.0002621401217766106,-0.010590336285531523
5.040858268737793,-0.6480271816253662,9.238290786743164,0.008626067079603674,0.002132746856659651,-0.009714872576296331
5.0512051582336435,-0.7051006555557251,9.268171310424805,0.009766112081706526,0.005888740532100201,-0.009515704587101936
5.054307460784913,-0.6619243621826172,9.259662628173828,0.013738767243921758,0.009728245437145233,-0.010301425121724607
5.107149124145508,-0.5823426842689515,9.269627571105959,0.015175935812294485,0.01565756462514401,-0.006269427947700024
5.151614189147949,-0.5883759856224061,9.263983726501467,0.013321330770850182,0.025277761742472652,-0.001389112090691924
5.135146617889405,-0.5835853815078735,9.243144035339357,0.014699905179440977,0.037521861493587494,0.007097125053405762
5.081546306610108,-0.6525955200195312,9.222349166870117,0.01929403841495514,0.0514829345047474,0.011851482093334198
5.065127372741699,-0.614486813545227,9.257975578308107,0.02569290436804295,0.05915674194693566,0.012623913586139679
5.041808605194093,-0.6020407676696777,9.310247421264648,0.026224609464406967,0.06141327694058419,0.0154972393065691
4.941030025482179,-0.6131966710090638,9.342411041259766,0.018325975164771083,0.06297142803668976,0.01979764550924301
4.902130126953125,-0.6055535674095155,9.344982147216797,0.012872250750660896,0.05020657554268838,0.020584773272275925
4.936130523681641,-0.6069387197494507,9.326931953430178,0.005873025860637427,0.042528573423624046,0.020124763250350952
4.856670856475831,-0.5460079312324525,9.339636802673342,-0.006617525592446327,0.03415659442543984,0.021059822291135788
4.935314655303956,-0.5804312229156494,9.262417793273928,-0.024025099352002147,0.018499184399843216,0.022183436900377274
4.949275493621827,-0.6277213692665101,9.253876686096193,-0.028324114158749584,0.022587299346923828,0.028157936409115795
4.847129821777344,-0.7435336709022523,9.306275367736818,-0.034004174172878265,0.021553996950387955,0.02846993319690228
4.857769966125488,-0.7309703826904297,9.318370819091797,-0.036008238792419434,0.014679015614092352,0.022284451872110367
4.87153196334839,-0.6544932126998901,9.350406646728516,-0.04067085683345795,0.006640808191150428,0.02281376160681248
4.89893388748169,-0.673314094543457,9.306094169616701,-0.048178251832723624,-0.001078176312148571,0.022450080141425136
4.723801612854004,-0.6261975169181825,9.05730724334717,-0.048641826957464225,-0.003346583573147655,0.022783230990171432
4.62725830078125,-0.7897823452949525,9.260987281799318,-0.0528288409113884,-0.02365529350936413,0.012349717319011688
5.081797122955323,-0.769321084022522,9.212879180908203,-0.04517113789916039,-0.028749365359544754,0.01408316008746624
4.886530876159668,-0.6812903285026551,9.134219169616701,-0.05193415284156799,-0.01811674050986767,0.021682098507881165
5.011384963989258,-0.9168365597724916,9.167817115783693,-0.04058348387479782,-0.011140022426843643,0.017673598602414135
5.160399913787843,-0.7722283601760864,9.142313957214357,-0.016737973317503933,0.00953199528157711,0.01804754696786404
5.126873970031738,-0.49766290187835693,9.01328754425049,-0.013483663089573385,0.03705746680498123,0.032133422791957855
4.848379611968995,-0.6131283640861512,9.095457077026367,-0.026016520336270336,0.052347175776958466,0.043068181723356254
5.05443000793457,-0.4900525212287903,9.212812423706055,-0.04310905933380127,0.054812490940093994,0.05699993297457696
5.03454351425171,-0.6909934282302856,9.194690704345703,-0.052202235907316215,0.07255129516124725,0.06376486271619798
4.711446762084961,-0.43624803423881536,9.247082710266115,-0.07770147919654846,0.0689770355820656,0.0705673471093178
4.7147979736328125,-0.652625560760498,9.386986732482912,-0.11576055735349657,0.047839440405368805,0.08104149252176286
4.746280193328858,-0.9534777402877808,9.228300094604492,-0.11798363178968431,0.042302500456571586,0.07179906964302063
4.676976680755616,-0.5960330963134766,9.47167491912842,-0.1284993588924408,0.018898734822869304,0.06699664890766144
4.9721035957336435,-0.6712690591812134,9.469500541687013,-0.1509409695863724,-0.002578016370534897,0.0755961686372757
4.829588413238526,-0.7286537289619447,9.44532585144043,-0.15664544701576233,-0.007342558819800616,0.07975926995277405
4.762868881225586,-0.6815204024314881,9.488865852355959,-0.1722203493118286,-0.02949174866080284,0.07902725785970689
4.903216838836671,-0.7751810550689697,9.476083755493164,-0.19458191096782687,-0.05341872572898865,0.08687563985586168
4.983850955963136,-0.8754785656929017,9.379459381103516,-0.19930118322372437,-0.06390687078237535,0.09068848937749864
4.82635498046875,-0.8382792472839355,9.343700408935547,-0.20881475508213046,-0.06552965939044952,0.09620026499032976
4.779406070709229,-0.9644080400466919,9.505582809448242,-0.22991527616977694,-0.0757991597056389,0.11121723055839539
4.474838733673097,-1.2370742559432986,9.541476249694826,-0.23151859641075134,-0.09425804764032365,0.10614222288131714
4.572284221649171,-1.1893230676651003,9.569554328918459,-0.2142294943332672,-0.170099213719368,0.061771992594003684
4.8766798973083505,-1.0880450010299685,9.563142776489258,-0.21925956010818481,-0.20854352414608004,0.052914589643478394
4.770655155181886,-1.3036619424819949,9.467963218688967,-0.2107943892478943,-0.23229852318763733,0.040095817297697074
4.8695068359375,-1.1884655952453613,9.435909271240234,-0.1982550770044327,-0.26512646675109863,0.028815040364861492
4.8775434494018555,-1.1425998210906982,9.353766441345217,-0.19986912608146667,-0.2824601233005524,0.019546749070286754
4.662415504455566,-1.0627493858337402,9.38743782043457,-0.2152920961380005,-0.3101340234279633,-0.0011716035660356283
4.7352142333984375,-0.9657201766967773,9.38156509399414,-0.23943482339382174,-0.3500723540782929,-0.013383731245994568
4.888322830200195,-0.998921275138855,9.374526977539062,-0.2622670531272888,-0.39337494969367987,-0.013077694922685623
5.056962490081788,-0.9921445846557617,9.27183723449707,-0.2812576591968537,-0.4235382080078125,-0.011976977810263634
5.2795376777648935,-0.8676922917366029,9.213170051574709,-0.29482427239418035,-0.44321829080581665,-0.0051511828787624845
5.375978946685792,-1.0249836444854736,9.153545379638672,-0.29582145810127264,-0.4472092688083649,-0.00040089990943670273
5.335892200469972,-1.0651960372924805,9.05792236328125,-0.3056552708148957,-0.44229161739349365,0.0037398126441985373
5.176394939422608,-0.8412507772445679,9.106690406799318,-0.36689460277557373,-0.45048621296882635,0.017788717523217205
5.421511173248292,-0.7900987863540649,9.17872714996338,-0.38578546047210693,-0.4766447842121125,0.03274761140346527
5.238661766052246,-1.1455310583114626,8.99974250793457,-0.39938265085220337,-0.497395396232605,0.048168566077947624
5.35170841217041,-1.208906888961792,8.933052062988281,-0.4067709147930146,-0.5273253917694092,0.06788118928670885
5.19276237487793,-1.3131606578826904,8.874508857727053,-0.4094770550727844,-0.5493089556694032,0.07820431143045427
5.059165477752686,-1.7746059894561768,8.811276435852053,-0.3645338714122773,-0.57720947265625,0.05694117024540902
5.407344341278077,-2.325804948806763,8.54653835296631,-0.32229909300804144,-0.6049522757530214,0.0081569142639637
5.362279415130616,-2.1267869472503667,8.622672080993654,-0.2595184147357941,-0.5987248420715332,-0.04004595801234246
5.197798252105714,-2.4222464561462402,8.50374984741211,-0.15109983086585999,-0.6022512316703797,-0.10377249866724016
5.045572280883789,-3.071602106094361,8.573446273803711,-0.020971698686480526,-0.6339558362960815,-0.19226913154125216
5.340227127075195,-2.6370325088500977,8.470873832702638,0.07314914464950562,-0.6521786451339722,-0.29452469944953924
5.627581119537354,-1.3146159648895264,8.656619071960451,0.10013329982757568,-0.6751390099525453,-0.32479971647262573
5.9072465896606445,-0.8078974485397339,8.778079986572266,0.04415528476238251,-0.7208219170570375,-0.2848258316516877
5.652266025543214,-1.2137634754180908,8.789047241210938,0.0025670481845736504,-0.7536913752555848,-0.2543218731880188
5.587845802307129,-1.043787956237793,8.937507629394531,-0.014189500361680984,-0.815996527671814,-0.24820093810558322
5.569647789001465,-0.9286413192749023,8.959199905395508,-0.006110459566116333,-0.9129735827445985,-0.23221859335899353
5.509078025817871,-0.9624403715133667,8.878127098083498,0.0028269945178180937,-1.0432791709899902,-0.21466386318206787
5.552057266235352,-1.0207349061965945,9.045099258422852,-0.01553734764456749,-1.1854759454727175,-0.2004806101322174
5.387077808380128,-1.1427254676818848,9.178336143493654,-0.008073180913925171,-1.3565340042114258,-0.1916303485631943
4.91022825241089,-1.9047962427139284,9.080045700073242,0.03481470420956612,-1.5903453826904297,-0.22624759376049045
5.1774001121521005,-1.4890270233154297,9.157449722290039,0.037679143249988556,-1.852635979652405,-0.27313229441642767
5.505423545837402,-0.8323135375976562,9.355501174926758,-0.01634172722697258,-2.117590665817261,-0.2823219299316406
5.839595317840577,-0.8080202341079712,9.19428825378418,-0.054235141724348075,-2.3953788280487065,-0.26363617181777954
4.906946182250977,-1.2595455646514893,8.513663291931154,-0.026330130174756054,-2.7627921104431152,-0.29325333237648016
5.291273593902589,-0.7491790056228638,9.115599632263185,-0.04824833944439889,-3.216571807861328,-0.313374400138855
5.081862449645996,-0.884042501449585,8.72472667694092,-0.08526036143302917,-3.7817971706390385,-0.31148600578308105
4.902260303497315,-2.2042405605316167,8.38972568511963,-0.037745922803878784,-4.443699836730957,-0.36001077294349676
5.180188655853272,-1.8632150888442995,8.065423011779787,0.07031723111867906,-5.21099853515625,-0.430713564157486
6.290600776672363,-1.229385018348694,8.251715660095217,0.05117698013782501,-5.99375867843628,-0.3884104192256928
5.814066410064698,-1.2000095844268799,7.952510833740234,0.055561516433954246,-6.808150291442871,-0.41897633671760565
6.831496715545655,-0.25758776068687445,8.015220642089844,-0.05263229459524155,-7.666073799133301,-0.39891031384468084
7.60793399810791,-0.8374165296554565,8.829740524291992,-0.26892274618148804,-8.519494056701662,-0.31590819358825684
11.435841560363771,-1.4452599287033083,9.09266757965088,-0.45861494541168213,-9.218255043029787,-0.23188816010952
15.217584609985352,-1.4822275638580322,9.576459884643555,-0.6065232753753662,-9.572663307189943,-0.18820640444755554
20.93339347839356,-0.8280705809593202,10.872182846069336,-0.6399158239364624,-9.148406982421875,-0.3242055475711823
23.87739753723145,-3.357297420501709,7.732425689697266,-0.6483120918273926,-8.676783561706545,-0.3321823477745056
27.715816497802734,-4.034671783447266,12.701812744140625,-0.9449388980865479,-8.213784217834474,-0.2205810993909836
22.433084487915043,-4.788451671600343,10.330371856689453,-1.3138959407806396,-7.77057981491089,-0.23090380430221558
17.170419692993168,-5.682884216308594,7.670758247375488,-1.6453337669372559,-7.886587142944336,-0.3267287909984589
26.39496612548828,-6.921431064605714,12.861598014831545,-1.406106948852539,-7.594033718109132,-0.8020905256271362
24.38235092163086,-7.993058204650879,14.58010005950928,-1.2600102424621582,-6.647675037384034,-1.1103278398513796
26.972055435180668,-10.933429718017578,20.59005355834961,-0.5913947224617006,-4.770443916320801,-1.3203312158584597
9.441729545593263,-5.473520755767823,11.72047233581543,-0.18316388130187988,-3.4543986320495605,-1.2320660352706911
18.069988250732422,4.715423583984375,17.33604240417481,-1.192921042442322,-2.434028148651123,-1.1150954961776736
32.60374450683594,-7.155372142791749,28.501729965209964,-1.1205356121063232,0.21508778631687167,-1.9933537244796755
10.937472343444826,-4.79582405090332,20.553211212158203,-1.3329031467437744,2.647016286849976,-1.7052671909332275
10.405214309692383,-7.248276233673097,16.295022964477543,-0.8023021817207338,3.9586765766143803,-1.7602441310882568
6.287349700927734,-5.891528129577637,12.586544036865234,-0.2880320250988007,4.857546806335449,-1.7470442056655886
3.328713655471802,-4.03110408782959,9.235401153564453,-0.0564093142747879,5.204575061798097,-1.7879425287246706
1.2958530187606814,-3.1536281108856206,6.833569049835206,-0.10634070634841919,5.390389919281007,-1.6461410522460938
0.9528594613075257,-3.1732616424560547,5.26986026763916,-0.24379952251911166,5.447496891021729,-1.4346649646759033
0.5881825089454652,-3.142871856689453,4.797129154205323,-0.37815251946449285,5.379751205444336,-1.1761423349380495
0.8668898344039917,-3.046768426895142,5.277292728424073,-0.5682520866394043,5.29723882675171,-0.8837488293647767
1.4440891742706299,-3.174736499786377,6.0691328048706055,-0.6528514027595521,5.3352813720703125,-0.558405101299286
2.8990685939788823,-3.013855457305908,7.0872602462768555,-0.6466637849807739,5.487380027770996,-0.17128695547580722
4.048626899719238,-2.5972867012023926,7.711095809936523,-0.5887221097946167,5.762769222259522,0.2036392092704773
5.187447547912598,-1.873547077178955,7.804239273071289,-0.5305323004722596,6.0807695388793945,0.5670844316482544
5.231884479522706,-0.7154690623283387,7.286853790283203,-0.5277347564697266,6.353469371795655,0.8864949941635132
5.065866470336914,0.3844198882579804,6.570609092712402,-0.6257203221321107,6.497384548187257,1.1775059700012207
5.155043601989746,0.9822957515716553,6.248528480529785,-0.7785224318504335,6.507582664489746,1.407147288322449
5.932976722717285,1.219140410423279,6.535111427307129,-0.8925957679748535,6.447012424468995,1.5733424425125124
6.971125125885011,1.307128667831421,7.335936546325684,-0.9203357100486756,6.355354309082031,1.6606916189193728
8.560729026794435,1.2483441829681396,8.626667976379396,-0.8811972141265869,6.280270576477051,1.6600307226181032
10.241409301757812,1.114403486251831,9.856664657592773,-0.7700415849685669,6.285525798797608,1.5945990085601807
11.155035972595217,1.3195548057556152,10.719291687011719,-0.6417542099952699,6.331790924072266,1.5062439441680908
11.58253574371338,1.674070477485657,11.228770256042482,-0.5409858822822572,6.356874465942383,1.4371160268783572
12.055848121643068,1.991182565689087,11.810351371765138,-0.4854822456836701,6.312243938446046,1.399627685546875
13.238139152526857,2.3911099433898926,12.731570243835451,-0.47543457150459295,6.212965965270996,1.384778141975403
14.787112236022951,2.3115608692169194,13.808023452758789,-0.49631729722023016,6.135527610778809,1.3306984901428223
16.15686798095703,1.8599989414215088,14.588787078857422,-0.5044048428535463,6.073799133300781,1.225595831871033
17.612916946411136,1.2261041402816775,14.933334350585938,-0.46223121881484985,5.992471694946289,1.126258969306946
18.899864196777344,0.559389591217041,14.981634140014648,-0.38623753190040594,5.857893943786621,1.0827916860580447
20.098464965820312,0.14047473669052124,14.72085475921631,-0.31741809844970703,5.6688246726989755,1.1018058061599734
21.996557235717777,-0.17747195065021518,14.412952423095703,-0.3025160729885102,5.446340560913086,1.171488404273987
25.002052307128906,-0.5956532359123231,14.169591903686523,-0.35212150216102606,5.298950672149659,1.2328872680664062
27.305414199829105,-1.3103461265563965,13.308390617370607,-0.4083248674869538,5.301443099975586,1.209750056266785
27.503353118896484,-1.243544578552246,10.925705909729006,-0.4866870045661926,5.372694492340089,1.0737644433975222
25.927631378173828,2.2114667892456055,6.811575412750245,-0.7476239800453187,5.268984794616699,0.9008988738059999
26.338068008422855,8.330547332763672,0.3108281791210175,-1.729262351989746,4.996579170227051,0.924429476261139
27.05738067626953,8.19523811340332,-6.988480091094972,-2.9229226112365723,4.544473171234132,1.0837669372558594
29.843271255493168,2.741039037704468,-16.237981796264652,-3.0483944416046147,3.880786895751953,1.1987926959991455
30.25830841064453,-1.2427589893341064,-23.660318374633793,-1.730151891708374,2.6416842937469487,1.252936601638794
23.579591751098636,1.611319422721863,-24.735111236572266,-0.19223348796367648,0.6436303257942201,1.10506272315979
16.710357666015625,5.039155006408691,-18.570205688476562,0.45319122076034546,-1.420622229576111,0.4919319152832031
18.77023506164551,5.132730960845948,-8.36379909515381,0.44367250800132757,-2.7803115844726562,-0.35008078813552856
15.456517219543459,2.787199020385742,4.079070091247559,0.3906562924385071,-3.161734819412232,-0.910124659538269
17.18837928771973,-0.6983144879341127,5.197493076324464,1.6085735559463503,-4.306726932525636,-1.0221152305603027
-6.281131267547608,4.845825672149659,7.537847518920898,1.2299635410308838,-4.2766127586364755,-1.5573160648345947
6.586326122283936,2.12513279914856,20.55554962158203,-0.1932012587785721,-4.322894096374512,-1.267014741897583
16.47732925415039,-6.7768826484680185,14.690040588378906,-0.6023957133293153,-4.181870460510254,-1.251545071601868
24.537881851196293,-4.822038650512695,15.757748603820803,-0.15613704919815063,-3.9138073921203613,-0.6988487839698793
23.808578491210938,-3.760626792907715,17.109048843383793,-0.13504298031330111,-3.046905517578125,-0.1864723712205887
21.114757537841797,-1.8160966634750368,16.50560760498047,0.07218378782272339,-2.6406104564666752,-0.35269531607627874
13.1041259765625,0.7662975788116455,14.24124526977539,-0.010468998923897743,-2.125101804733277,-0.20162630081176758
8.10653591156006,2.5222997665405273,11.868013381958008,-0.08016073703765869,-1.86434006690979,-0.24247442185878756
8.313884735107422,0.1850506067276001,11.098584175109865,-0.06372024118900299,-1.5773988962173464,-0.41658544540405273
8.04615592956543,-4.868051528930664,9.400309562683107,0.16746701300144198,-1.2669777870178223,-0.5700937509536743
6.927934169769288,-6.0753846168518075,8.738701820373537,0.40141585469245916,-1.0480990409851074,-0.48138019442558294
6.71104621887207,-2.0735542774200444,10.031395912170412,0.4642314016819001,-0.8169671893119813,-0.30093860626220703
7.047961711883546,0.22154083847999573,10.799736976623537,0.43209210038185125,-0.5676417350769043,-0.33998695015907293
4.695998191833496,-2.226165294647217,9.555102348327638,0.3609762191772461,-0.4118817746639252,-0.4174537360668183
5.5126357078552255,-1.9987637996673584,9.714524269104006,0.2726231515407563,-0.4074305295944214,-0.357873409986496
6.1214337348938,0.13772526383399963,10.122003555297852,0.2384113818407059,-0.3225665986537934,-0.2900892496109009
5.537026405334473,-0.7845301628112793,9.82400894165039,0.20605778694152832,-0.24068512022495273,-0.276486873626709
5.205408573150636,-0.832881271839142,10.10381603240967,0.15887196362018588,-0.2678194046020508,-0.20934000611305237
5.763492584228516,0.05386200547218323,10.500430107116701,0.08843663334846497,-0.254524439573288,-0.15460774302482605
5.5506329536438,-0.3877463936805725,9.909304618835451,-0.021652761846780777,-0.2004147171974182,-0.08226261287927629
5.443807601928711,-0.9210947751998901,9.60647964477539,-0.09382095187902452,-0.18997886776924133,-0.02422619424760342
5.165818214416504,-0.9366847276687622,9.365170478820803,-0.13951428234577182,-0.17220857739448547,0.011044476181268692
4.290058135986328,-1.5136773586273193,9.271722793579102,-0.17249156534671786,-0.20083674788475037,0.005131511483341456
4.445580959320069,-1.9286797046661377,9.499196052551271,-0.19312025606632235,-0.25125727057456976,-0.01227043941617012
4.85164737701416,-2.070779085159302,9.316278457641602,-0.2046995759010315,-0.26917037367820745,0.011894907802343369
4.856654644012452,-1.8441963195800781,9.209951400756836,-0.21837945282459262,-0.28980767726898193,-0.050687529146671295
5.144932746887207,-1.2098456621170046,9.241853713989258,-0.2229309529066086,-0.2688605785369873,-0.10295315831899644
5.109057426452637,-1.435631275177002,8.975193977355959,-0.23809415102005005,-0.24981904029846191,-0.09836862236261369
5.28594732284546,-1.4494711160659792,9.042236328125,-0.23754756152629855,-0.23740193247795105,-0.08493817597627641
5.238072395324707,-1.3504178524017334,8.992287635803224,-0.2350982576608658,-0.2177673876285553,-0.07753893733024597
5.430670738220215,-1.3774038553237917,9.061452865600586,-0.2551092207431794,-0.18818026781082153,-0.07307618111371995
5.258575439453125,-1.4837889671325684,8.986141204833984,-0.25889045000076294,-0.14350059628486633,-0.08160827308893205
5.225804328918457,-1.6310479640960693,8.935588836669922,-0.2538677453994751,-0.10545093566179277,-0.09705394506454468
4.777441024780273,-1.7247557640075684,8.842213630676271,-0.21634110808372498,-0.09484490007162096,-0.15072168409824374
4.643536567687988,-2.4053537845611577,8.570649147033693,-0.16161207854747775,-0.0866299569606781,-0.24248032271862033
4.274847030639648,-2.4862771034240723,8.386573791503906,-0.10621683299541473,-0.08494316041469574,-0.3264805376529694
4.460106372833253,-2.4391841888427734,8.558883666992188,-0.05212866887450219,-0.12388795614242554,-0.39837095141410833
4.843611240386964,-2.388690948486328,8.397610664367678,-0.005844439379870892,-0.138374999165535,-0.4735622107982636
5.216926574707031,-1.849340319633484,8.437808990478516,0.04363569617271423,-0.20158036053180697,-0.4308807849884033
5.379570007324219,-1.311660408973694,8.622211456298828,0.07580270618200304,-0.17829142510890963,-0.39406245946884155
4.953101634979249,-2.059267044067383,8.507064819335938,0.10605673491954803,-0.2013061493635178,-0.3822837471961975
4.4879212379455575,-1.402055859565735,9.36492443084717,0.11435947567224504,-0.25954991579055786,-0.38318073749542236
4.8897600173950195,-1.0264792442321777,9.47657108306885,0.06228431686758996,-0.3137732148170471,-0.41811147332191473
5.355671405792237,-0.7674935460090638,9.709531784057617,-0.019553404301404953,-0.3973146677017212,-0.351316124200821
4.784189224243164,-0.7084602117538452,9.613332748413086,-0.1069779619574547,-0.4908478260040283,-0.34654530882835394
4.861112594604492,-0.658960521221161,9.72752571105957,-0.2357279807329178,-0.6510233879089355,-0.34515929222106934
4.751554489135742,-0.7298839092254639,9.620019912719727,-0.33592972159385687,-0.8358755111694336,-0.31283596158027654
4.7720351219177255,-0.25105637311935425,9.68758773803711,-0.429845541715622,-1.0633078813552859,-0.23488599061965942
4.79608964920044,-0.2732381224632263,9.521343231201172,-0.4863802194595337,-1.3081735372543337,-0.15185317397117615
5.020398616790772,-1.0010123252868652,9.592145919799805,-0.47499206662178045,-1.6056900024414062,-0.07994949817657471
4.874497413635254,-1.4905384778976443,9.829511642456055,-0.44889289140701294,-1.8861528635025027,-0.03305511176586151
4.717451095581055,-1.1502041816711426,10.00112533569336,-0.4729506075382233,-2.2409360408782963,0.0248054601252079
4.720205307006836,-1.6006901264190674,9.804792404174805,-0.4805909097194672,-2.6608781814575195,0.08709854632616044
4.672422885894776,-2.2943160533905034,10.32729244232178,-0.4187978506088257,-3.156941175460816,0.06523831933736803
4.660602092742921,-2.216248750686646,10.308072090148928,-0.43842092156410223,-3.709789752960205,-0.0300105344504118
3.8786449432373047,-2.6868002414703374,10.175347328186037,-0.3913001716136933,-4.415380001068116,-0.18109118938446045
2.401465177536011,-3.031436681747437,10.307868957519531,-0.26000687479972845,-5.446352005004883,-0.4353144466876984
2.8237001895904545,-2.960104465484619,9.793433189392092,-0.1967606246471405,-6.525617122650147,-0.6228776574134828
3.0402839183807377,-2.306072235107422,9.490873336791992,-0.20186036825180054,-7.740061283111573,-0.8026704788208008
4.440261363983155,-0.3407081365585327,9.695631980895998,-0.36119115352630615,-9.042505264282227,-0.9019997715950013
6.214777469635011,-2.0373525619506836,10.583119392395021,-0.5018700361251831,-10.321179389953615,-0.9368065595626831
11.558944702148438,-2.693315029144287,12.439534187316896,-0.7121975421905518,-11.360169410705568,-0.9217876791954042
16.91229057312012,-3.0989632606506348,14.164400100708008,-0.8826402425765991,-11.816416740417482,-0.9788835048675537
27.175933837890625,-4.357287883758546,12.685585975646974,-0.932886302471161,-11.365551948547365,-1.2486059665679932
35.460968017578125,-4.080367088317871,12.320683479309084,-1.3178325891494753,-10.627525329589844,-1.1971038579940798
35.777313232421875,-6.302212715148926,15.380741119384766,-2.11022162437439,-9.413642883300781,-1.006852626800537
22.204263687133793,-6.126970291137695,12.315858840942383,-2.4843320846557617,-8.95899295806885,-0.9484008550643921
19.244976043701172,-7.975297927856445,14.70297622680664,-2.4356272220611577,-8.507718086242678,-1.437241792678833
22.19529533386231,-11.19209098815918,19.699417114257812,-2.0442736148834233,-7.744368553161621,-1.8366924524307253
16.302570343017578,-10.171669006347656,19.75371360778809,-1.869659423828125,-6.235759258270265,-2.0014111995697026
9.466033935546875,-7.12937068939209,18.687477111816406,-1.7228568792343142,-4.986795425415039,-1.872303128242493
42.75018692016602,-11.129181861877443,29.789329528808594,-0.7114489674568177,-2.751741170883179,-2.4735794067382812
23.454778671264652,-11.718179702758789,32.098773956298835,0.31095433235168457,1.4340716600418093,-2.109469413757324
14.393538475036623,-9.333312034606935,22.776910781860355,1.2115998268127441,4.387901782989503,-1.627625107765198
11.467200279235842,-7.833230018615723,17.24365997314453,1.752658009529114,6.370974540710449,-1.2496377229690554
8.146460533142092,-4.931344985961914,11.296698570251467,1.836076855659485,7.3432984352111825,-1.1044344902038574
3.013453483581543,-3.3384318351745605,6.357015609741211,1.6136605739593506,7.639304637908936,-0.9390459060668945
-1.6488708257675173,-3.711858987808228,2.6301627159118652,1.2885961532592773,7.452989101409913,-0.7475513815879823
-2.699406623840332,-2.7353746891021733,0.7309654951095581,1.0391478538513184,6.919259548187257,-0.603539228439331
-2.3681528568267827,-2.148477077484131,1.2331440448760986,0.719183385372162,6.294109821319581,-0.4465152621269226
0.7860399484634399,-2.002196073532105,3.199160575866699,0.35848891735076904,5.927175998687745,-0.15142759680747986
2.8038537502288823,-2.575164318084717,5.183109283447266,0.11718274652957916,5.943892002105714,0.14638863503932956
3.5651557445526127,-3.5015356540679936,6.420156002044679,0.09168615192174913,6.137320518493652,0.40129622817039495
4.493842124938965,-3.2350850105285645,6.77238655090332,0.19493414461612704,6.33619260787964,0.5739954710006714
5.507531642913819,-2.032979965209961,6.790716171264648,0.18241070210933688,6.493285179138184,0.7111857533454896
6.163948059082031,-0.6472212672233583,6.627296447753906,-0.04077542945742608,6.645718574523926,0.902166485786438
6.103309631347656,-0.38770484924316406,6.4666337966918945,-0.35571220517158514,6.724142074584961,1.099236845970154
6.397627830505371,-1.019146203994751,6.605729579925538,-0.59003746509552,6.6858320236206055,1.2552736997604372
7.974466800689698,-1.957428216934204,7.42619514465332,-0.6385166645050049,6.643628597259522,1.3684070110321045
9.776034355163576,-2.7466146945953374,8.376194953918459,-0.5227736234664917,6.633704662322999,1.4468353986740115
11.504419326782227,-2.819095849990845,9.120437622070312,-0.3287090361118317,6.633009910583496,1.5453573465347292
12.619505882263185,-2.4182181358337402,9.443696022033693,-0.17123425006866455,6.618829727172852,1.6993356943130495
13.028822898864748,-1.9856587648391726,9.436224937438967,-0.0848536342382431,6.545922756195069,1.867908239364624
13.261533737182617,-1.7151337862014773,9.55935287475586,-0.03836103156208993,6.394260406494141,2.015899181365967
13.85232162475586,-1.8985960483551025,10.508977890014648,0.015279687009751798,6.1800079345703125,2.11402440071106
15.337685585021974,-2.231045007705689,12.115242004394531,0.10789048671722412,5.994754791259766,2.136539220809937
17.64684867858887,-2.8759229183197026,13.897527694702148,0.25061354041099554,5.934061050415039,2.111439943313599
19.83328628540039,-3.0421791076660156,15.376772880554201,0.4027059376239777,5.980820655822754,2.083705425262451
21.431497573852543,-2.9096760749816895,16.17275428771973,0.47166240215301514,6.078392505645753,2.0655345916748047
22.89083290100098,-2.8054733276367188,15.83085823059082,0.46552884578704834,6.137458801269531,2.030647993087769
24.734964370727543,-1.6371891498565674,14.767725944519045,0.2975843548774719,6.090740680694581,1.9867966175079346
26.31478309631348,-0.607898771762848,12.87081527709961,-0.10394566506147386,5.986289978027344,1.914384365081787
25.761112213134766,-0.2711806893348694,9.918894767761232,-0.5815758109092714,5.792721748352051,1.757193446159363
23.91948699951172,-0.38361656665802,7.104117870330811,-1.0064522027969363,5.397036075592042,1.4632599353790283
25.80119895935059,3.6757049560546875,2.6780471801757812,-1.5108054876327517,4.892431259155273,1.166983246803284
27.62801742553711,5.152616977691651,-3.4146924018859863,-2.2943572998046875,4.357594013214112,1.066153407096863
30.115304946899418,2.617784023284912,-10.711524963378906,-2.563413143157959,3.748245477676392,0.9492206573486328
32.994163513183594,-1.2796099185943604,-18.71038627624512,-1.9156292676925661,2.9492208957672124,0.6532824039459229
30.493299484252933,-1.8684989213943484,-23.385126113891605,-0.561164677143097,1.4617035388946533,0.16714446246623996
21.370435714721683,1.5284740924835205,-19.70560073852539,0.4481907188892365,-0.5430241823196411,-0.4159899950027466
19.218841552734375,2.645609617233277,-11.14712429046631,0.5931778550148011,-2.0567078590393066,-0.9110147356987001
18.88665771484375,-2.832399845123291,-8.766281127929688,1.183833122253418,-4.613638877868652,-1.2717870473861697
-11.82352066040039,1.404097080230713,-2.2154352664947514,1.5139099359512331,-4.755138397216797,-1.7493067979812624
16.456644058227543,6.110445976257324,19.21798324584961,0.1418665647506714,-5.816264629364015,-1.3675955533981325
12.979537010192873,-7.946810722351074,22.181226730346683,-0.8827883601188661,-5.259984970092773,-1.0870808362960818
22.503185272216797,-6.505282402038574,15.040968894958498,-0.5829524397850038,-4.922688007354737,-0.8634082078933716
22.38480949401856,0.5581393241882324,15.617589950561523,-0.6561747193336488,-4.583361625671387,-0.030105592682957653
30.400838851928714,-0.870535135269165,21.92541313171387,-0.7889111042022705,-3.5309069156646733,0.09206328541040422
22.491983413696293,-1.6637170314788818,18.447435379028324,-0.3739715516567231,-2.4388418197631836,-0.5513547062873841
7.757734775543214,-4.344241142272949,10.59470844268799,-0.21763023734092712,-1.943586826324463,-0.5165119767189027
6.913101673126222,-3.217243909835816,9.372658729553224,-0.062393385916948325,-1.8888788223266602,-0.34888371825218206
11.759894371032717,-2.466470241546631,10.985077857971193,0.18904250860214233,-1.4143456220626833,-0.47172746062278753
8.985913276672365,-4.0226898193359375,9.754317283630373,0.4254276752471924,-0.9212116599082948,-0.5785484313964844
5.682195186614991,-5.295804023742676,8.876523017883303,0.5529491901397705,-0.8251694440841675,-0.5008862614631654
5.125137805938722,-1.2354589700698855,9.944106101989748,0.5692290663719178,-0.8072881698608398,-0.43431141972541815
4.0426087379455575,-0.7327852249145508,10.2770471572876,0.5189175605773926,-0.7361361384391786,-0.49989703297615057
4.530826568603516,-3.051592588424683,9.662160873413086,0.45097813010215765,-0.7588659524917603,-0.5034000277519227
4.288062572479249,-3.0954568386077885,9.219121932983398,0.4847941994667053,-0.8248575925827026,-0.43551614880561834
7.159075260162354,-0.9873059391975404,10.558122634887695,0.5324091315269471,-0.7497081756591797,-0.47856721282005316
5.6311707496643075,-1.1546924114227295,9.673537254333498,0.4850496947765351,-0.6087890863418579,-0.44987279176712036
6.135625362396241,-0.5169312357902528,10.66670894622803,0.41878983378410345,-0.5651828050613403,-0.36961510777473455
6.858835220336914,0.04645317792892456,10.830116271972656,0.31595247983932495,-0.3952862024307251,-0.2704617083072663
6.338109970092773,-0.28371626138687134,10.134014129638672,0.08807008713483812,-0.2648799419403076,-0.11913526803255083
5.697583198547363,-0.40088367462158203,9.654773712158203,-0.058166023343801505,-0.22731268405914307,0.008562235161662102
4.933446407318116,-1.1990256309509277,9.354589462280273,-0.12862999737262729,-0.23197394609451294,0.032248605042696006
4.560102462768555,-1.690854549407959,9.392913818359375,-0.15685781836509705,-0.2698315978050232,0.012053278274834158
4.518279552459718,-1.8096967935562136,9.356484413146974,-0.1808898895978928,-0.35783809423446655,0.009729146026074888
4.926577568054199,-1.4414737224578857,9.314942359924318,-0.2032638341188431,-0.4076904058456421,0.01192338578402996
5.033928394317628,-1.024099946022034,9.336141586303711,-0.2304036468267441,-0.4409205913543701,0.010650436393916609
5.16940975189209,-0.7990361452102661,9.279802322387695,-0.28431159257888794,-0.4858691692352295,0.05186663195490838
5.225009441375733,-1.0901210308074951,9.1324462890625,-0.3282129168510437,-0.5207448601722718,0.06119973957538605
5.022546291351319,-1.340270757675171,8.975173950195312,-0.34705826640129095,-0.5618128776550293,0.10241509974002838
5.49726676940918,-1.4723167419433594,8.986281394958498,-0.36435201764106756,-0.5858381986618042,0.12127307802438737
5.355182647705078,-1.4226039648056032,8.871374130249023,-0.38886117935180664,-0.5880203247070312,0.14036004245281222
5.566474914550781,-1.8695571422576904,8.639986038208008,-0.4087129831314087,-0.584307610988617,0.1636362075805664
5.180245876312257,-2.493519544601441,8.487876892089844,-0.3899370133876801,-0.5575723648071289,0.15151149034500122
5.049703598022461,-3.1547904014587402,8.410645484924318,-0.34252822399139404,-0.518716871738434,0.09141498804092407
4.890956401824952,-3.914618492126465,8.294941902160646,-0.2684582471847534,-0.4663950204849243,-0.016375558450818065
5.012760639190675,-3.682161331176758,8.213362693786623,-0.18155916035175326,-0.43200498819351196,-0.11734912544488908
4.852292060852051,-3.547554254531861,8.32755756378174,-0.1093548983335495,-0.38276508450508123,-0.22565443813800815
4.83726453781128,-3.7610301971435547,8.324848175048828,-0.03532280400395394,-0.3604840636253357,-0.34338960051536566
4.936370372772218,-3.7914299964904785,8.109047889709474,0.0679960548877716,-0.3329918384552002,-0.4715052545070649
4.948168277740479,-3.6280484199523926,8.154070854187013,0.20531620085239413,-0.3159042000770569,-0.6048218607902528
5.217667102813722,-2.944362163543701,8.076591491699219,0.3478771448135376,-0.3157570064067841,-0.711072862148285
6.3119964599609375,-0.5958387255668641,8.60066318511963,0.3452395796775818,-0.3581481277942658,-0.6617149114608765
6.0611310005188,-0.43962109088897705,8.806890487670898,0.2809126377105713,-0.3283194899559021,-0.593799650669098
5.748217105865479,-0.8862624764442445,8.845895767211914,0.25904676318168646,-0.3720204830169678,-0.556873381137848
5.948530673980714,-1.4381511211395264,8.922930717468263,0.29791682958602905,-0.43179497122764593,-0.5361887812614442
5.821113586425781,-0.9219363927841187,9.044937133789062,0.3077215552330017,-0.5165796875953675,-0.49200600385665894
5.958478450775147,-0.43473723530769354,9.035415649414062,0.29078209400177,-0.6043928861618042,-0.42553594708442694
5.938528537750245,0.5638569593429565,9.301633834838867,0.20930162072181702,-0.7295879721641542,-0.3061390519142151
5.36830997467041,-0.06502336263656616,9.510360717773438,0.13377882540225985,-0.9030392169952393,-0.2083611786365509
4.909947872161866,-1.3816215991973877,9.507745742797852,0.11591956764459611,-1.1261603832244873,-0.19338689744472506
5.196704387664796,-1.50173020362854,9.430070877075195,0.11874871701002122,-1.3629027605056765,-0.21290332078933716
5.443704128265382,-1.261404633522034,9.37005138397217,0.10203883796930314,-1.592090368270874,-0.23970930278301242
5.417996406555176,-1.1134523153305056,9.311418533325195,0.04389893263578415,-1.8300839662551882,-0.2592026889324189
5.497548580169679,-1.2840038537979128,9.205023765563967,-0.02478154189884663,-2.082174777984619,-0.2876680195331574
5.416507244110108,-1.6084326505661013,9.124761581420898,-0.06571901589632036,-2.348885774612427,-0.34714919328689575
5.818006038665772,-1.2940716743469238,9.132156372070312,-0.09473947435617448,-2.6295790672302246,-0.425371140241623
5.636147499084473,-1.0261404514312744,9.06501579284668,-0.07293524593114854,-3.023454189300537,-0.5004603862762451
5.204461574554444,-1.515136480331421,8.844666481018068,-0.07015229016542436,-3.410048007965088,-0.5703110098838807
5.108080387115479,-1.7764315605163574,8.716581344604492,0.006293164566159248,-3.913763999938965,-0.6633010506629945
5.138517856597901,-2.2836427688598633,8.446543693542482,0.09787717461585999,-4.494305133819581,-0.7734928131103516
5.288298130035401,-2.6720118522644043,8.019903182983398,0.17653632164001465,-5.139994144439698,-0.9070251584053041
5.40793514251709,-2.8561594486236577,8.063434600830078,0.23825983703136447,-5.898216247558594,-1.098633646965027
5.824329853057862,-2.202993392944336,7.566636562347413,0.2788986563682556,-6.7810773849487305,-1.3855139017105105
6.12060308456421,-1.4473252296447754,7.788806915283203,0.22582297027111056,-7.714299201965332,-1.663208842277527
7.611720561981202,-2.1842443943023686,8.355852127075195,0.1728690415620804,-8.66128921508789,-1.874413013458252
12.80495357513428,-2.72452187538147,10.077628135681154,0.027216324582695964,-9.486356735229492,-2.0056807994842534
16.48914337158203,-3.2885031700134277,10.57377338409424,-0.12399014830589294,-9.942245483398438,-2.180472612380982
24.703235626220703,-3.490359306335449,11.701491355895998,-0.17248371243476868,-9.810280799865724,-2.465149402618408
30.555744171142578,-3.2620213031768803,8.951165199279787,0.027747269719839096,-8.84975337982178,-2.7447488307952885
33.43639373779297,-1.307478904724121,11.202219963073732,-0.48826688528060913,-7.893193721771241,-2.2569470405578613
24.668966293334964,-6.451775074005128,13.58982563018799,-1.0789436101913454,-7.080503940582276,-2.026674270629883
21.165630340576172,-4.670457363128663,16.596822738647464,-1.2427277565002441,-6.546025753021241,-2.112142562866211
24.65147209167481,-4.775842666625977,16.60674095153809,-1.07198441028595,-5.94608211517334,-2.524146556854248
18.729393005371094,-6.29704475402832,11.698579788208008,0.22832036018371582,-4.635392665863038,-3.329601764678955
11.940314292907717,-8.851603507995607,20.54116249084473,1.1735361814498904,-3.268349885940552,-2.9955453872680664
27.454864501953125,-1.2346045970916748,25.29110908508301,0.8549835085868837,-1.0509731769561768,-1.9266515970230105
31.152643203735355,-8.75512218475342,29.946966171264652,0.5079789161682129,2.330604791641236,-1.1533130407333376
5.233688831329347,-7.5396575927734375,15.963518142700195,0.7510924935340882,4.3173322677612305,-0.7949771285057069
1.5409748554229736,-6.271106243133546,10.416648864746094,1.0271317958831787,5.1141157150268555,-0.2999719083309174
-1.2736964225769043,-4.435573577880859,4.78074598312378,1.0600410699844363,5.130420684814453,0.21278254687786105
-3.85232949256897,-3.544713735580445,1.9997038841247559,0.8305155634880067,4.720220565795898,0.5853269100189209
-3.083073139190674,-0.259757548570633,2.0511741638183594,0.4738210439682007,4.378003597259522,0.9131342172622681
-0.8589265942573548,2.9617080688476562,3.715044736862183,-0.28601416945457464,4.2317824363708505,1.3101246356964111
1.452736020088196,4.285780906677246,5.704888820648194,-1.3137288093566895,4.403878688812257,1.6753697395324707
3.378835678100586,2.6282973289489746,7.38809633255005,-1.9743072986602783,4.826120853424073,1.8049362897872927
4.364127159118652,1.1892348527908327,8.05944347381592,-2.015846490859986,5.324065208435059,1.679441809654236
4.143383502960206,1.5826046466827393,7.514215469360352,-1.7489694356918337,5.708871364593507,1.3772845268249512
3.844690084457398,3.8836874961853027,6.583850383758546,-1.620497703552246,5.923667430877686,1.0520987510681152
4.462228775024414,6.371652603149414,5.988248825073242,-1.8960871696472168,6.001284122467042,0.7831888794898988
5.092272281646729,7.906593322753906,5.999755859375,-2.5147960186004643,6.003817558288574,0.5322001576423646
5.844280719757081,8.108021736145021,6.436786174774171,-3.1921389102935795,5.969267368316651,0.224048912525177
7.302760601043702,7.5637664794921875,7.026630878448487,-3.6904623508453374,5.9432477951049805,-0.10007294267416002
8.71359157562256,6.890507221221925,7.637866973876953,-3.9430088996887207,5.929781436920167,-0.3676187098026276
10.222661972045898,6.5773115158081055,7.956332206726074,-4.017735481262207,5.937268733978272,-0.5301535129547119
10.932793617248537,6.31318473815918,7.899418830871582,-3.964066505432129,5.925703048706055,-0.5460994839668275
10.962124824523928,6.872681617736816,7.92183542251587,-3.8808009624481206,5.84063720703125,-0.4405398070812226
11.439783096313477,9.015270233154297,8.263031005859375,-3.8964102268219,5.724545478820801,-0.30520957708358765
12.45558834075928,11.406787872314453,8.873433113098146,-4.157756805419922,5.639542102813722,-0.25749707221984863
13.614385604858398,13.271978378295898,9.534399986267092,-4.564966201782227,5.6058349609375,-0.44552150368690496
15.004632949829102,14.184316635131836,10.136162757873537,-4.885427474975586,5.586564540863038,-0.9961851835250854
16.525924682617188,15.310325622558594,10.513757705688477,-5.080551624298097,5.582850456237793,-1.8175761699676514
18.055822372436527,15.36076068878174,10.276811599731445,-5.29624080657959,5.589362621307374,-2.7093000411987305
18.012464523315433,13.574473381042482,8.738784790039062,-5.414920806884766,5.478276252746582,-3.408182859420777
17.154708862304688,12.352931022644045,7.0867109298706055,-5.393842697143555,5.129671573638917,-3.7781052589416504
15.926358222961428,11.743244171142578,5.782060623168945,-5.327676773071289,4.586809635162354,-3.867799043655396
15.41135025024414,12.666986465454102,5.472099781036378,-5.296522617340089,3.9512457847595215,-3.774224996566773
15.729079246520998,13.881733894348146,5.892474174499512,-5.343574523925781,3.3967485427856445,-3.5614860057830815
15.740693092346193,13.605645179748537,6.189072132110597,-5.222430229187012,2.9739968776702885,-3.344229221343994
15.077920913696289,14.187051773071289,5.871013641357422,-4.82914686203003,2.5965471267700195,-3.2179999351501465
14.597148895263672,14.653083801269531,5.395305633544922,-4.316562652587891,2.2492115497589116,-3.128561496734619
14.673728942871094,13.28499507904053,5.222508430480957,-3.662604093551636,1.9517561197280886,-3.091707229614258
14.65787124633789,11.885337829589844,4.572734355926515,-2.893401384353638,1.6843085289001465,-3.094929933547974
14.328035354614258,10.955514907836914,2.7969865798950195,-2.2463023662567143,1.4047033786773682,-2.9891176223754883
13.277612686157227,10.172734260559084,0.7830125093460083,-1.838792085647583,1.013670325279236,-2.7120108604431152
12.729258537292482,8.62447738647461,-0.594583570957184,-1.4791371822357178,0.5215557813644409,-2.2748973369598393
11.890758514404297,4.681820869445801,0.028505582362413406,-0.9603601694107056,0.010122586973011495,-1.7381725311279297
15.407021522521974,-13.149971008300781,-3.6808738708496094,3.2617568969726562,-1.1370640993118288,-2.095798254013062
9.729685783386232,16.181011199951172,4.288718223571777,4.605158805847168,-1.5918992757797243,-2.8047380447387695
15.987386703491211,-11.314508438110352,18.8215503692627,4.422413349151612,-1.3098083734512331,-2.8583521842956543
12.186385154724123,-12.221694946289062,21.032527923583984,3.718366384506226,-0.6276546716690063,-3.0433356761932377
3.0615894794464116,-5.083308696746827,8.067812919616701,2.485346078872681,-0.6515047550201416,-1.516376256942749
15.611058235168459,10.637881278991701,14.605714797973633,2.308016777038574,-1.2148927450180056,-0.9636327028274536
16.665792465209964,18.141841888427734,14.72285270690918,1.4864245653152468,-0.0631745681166649,-0.49514156579971313
2.4577178955078125,4.067046165466309,9.662343978881836,0.7822371125221254,0.18499547243118286,-0.3367729485034943
2.692194938659668,2.352868795394898,11.507591247558594,0.4443303346633911,-0.05147791281342507,-0.2758037745952607
4.748530864715577,4.6136627197265625,9.89472770690918,0.25048476457595825,0.06478124111890794,-0.21235859394073486
5.652409076690675,4.613636016845703,10.063377380371094,0.08720705658197404,0.08040248602628709,-0.1836373209953308
6.035099506378175,-0.22299842536449435,9.988044738769531,0.04846529290080071,0.11187584698200226,-0.12506841123104098
5.431069850921632,-1.8510016202926638,9.570080757141115,0.002568250754848123,0.035941243171691895,-0.07552112638950348
6.059853553771973,-0.6004721522331239,9.676488876342773,0.03640243411064148,-0.020140724256634716,-0.06677402555942535
6.292035102844238,-0.8752073049545288,9.635553359985352,0.008327529765665533,-0.002223859773948789,-0.03729468584060669
5.803434371948242,-1.520049810409546,9.411086082458498,-0.029142431914806366,0.03795760497450829,-0.00149314827285707
5.035090446472168,-1.6460964679718018,9.478361129760742,-0.016400929540395737,0.026933865621685985,-0.011252873577177526
4.910254955291749,-1.721880078315735,9.400448799133303,0.03334297239780426,0.008673333562910559,-0.04214680194854736
4.941005706787109,-1.2016260623931885,9.358470916748047,0.04967284575104714,-0.017638800665736202,-0.047288715839385986
5.008030891418457,-0.9152545928955078,9.298472404479982,0.05040854588150979,-0.030730322003364563,-0.029965830966830257
4.872601509094238,-0.4498503804206848,9.457316398620607,0.015547775663435461,-0.041601359844207764,-0.003303966950625181
4.6697754859924325,-0.5265312194824219,9.417152404785156,-0.02866143919527531,-0.068603515625,0.01727435924112797
4.724248886108398,-0.5596837401390077,9.367295265197756,-0.054172825068235404,-0.10607618838548662,0.03180944174528122
4.877777576446534,-0.7339698076248169,9.29176139831543,-0.06188182532787323,-0.1356998533010483,0.03961692750453949
5.15773630142212,-0.6085771918296815,9.329291343688967,-0.07657146453857422,-0.13937936723232272,0.04972196742892266
5.247606754302979,-0.7586970329284668,9.247903823852539,-0.08394815772771837,-0.1162581741809845,0.05706064030528069
5.047494411468507,-0.9841147661209106,9.152972221374513,-0.07571423053741455,-0.08801344037055969,0.05484620854258538
4.923249244689941,-1.431253433227539,9.077273368835451,-0.05298146978020669,-0.0658828616142273,0.027861529961228374
5.041332721710206,-1.3450512886047363,9.040024757385256,-0.034500159323215485,-0.05315136536955834,0.00033226565574295824
5.157413959503175,-1.2958996295928955,9.011387825012209,-0.008071109652519226,-0.019841453060507778,-0.020381510257720947
5.103950500488281,-1.3318122625350954,9.001705169677734,0.015639644116163254,0.014264551922678947,-0.030869273468852047
4.587015151977539,-1.384848237037659,8.947718620300295,0.02924417331814766,0.03759628906846047,-0.05657700449228287
3.9254739284515385,-2.0862913131713867,8.894270896911623,0.03368103876709939,0.0009979589376598597,-0.09747946262359619
4.490411758422852,-1.7821805477142334,9.144695281982422,0.05285612866282464,-0.08514460921287537,-0.1435734182596207
5.375768184661866,-0.7792580723762513,9.336931228637695,0.048045743256807334,-0.09308608621358873,-0.13534894585609436
5.136477470397949,-0.5527461171150209,9.360353469848633,0.0004097329510841519,-0.08344633877277374,-0.09151213616132738
4.986820220947266,-0.6669999361038208,9.325578689575195,-0.047622159123420715,-0.09568446129560472,-0.057264838367700584
4.23133659362793,-1.2609705924987793,9.256585121154787,-0.08118072897195817,-0.13611948490142822,-0.05237927660346032
4.834774971008301,-1.037844181060791,9.541556358337404,-0.12142668664455414,-0.2051767110824585,-0.05653671547770501
5.35754156112671,-0.503211498260498,9.545013427734375,-0.14907030761241916,-0.2189536690711975,-0.04070430621504784
5.305497646331788,-0.2987847328186035,9.40655517578125,-0.18252150714397433,-0.22306057810783386,-0.007120147347450256
4.981816291809082,-0.6892624497413636,9.178812980651857,-0.20597939193248752,-0.2272827923297882,0.00671079894527793
4.9150757789611825,-1.1496365070343018,9.140530586242678,-0.19904151558876038,-0.23889002203941345,0.0007619516109116377
4.36248540878296,-1.597818732261658,9.060248374938967,-0.1527907103300095,-0.27599799633026123,-0.04226794466376305
4.703263282775879,-1.908551096916199,9.23536777496338,-0.10300833731889726,-0.3335902690887451,-0.10583724081516266
5.25179386138916,-1.4162858724594118,9.192300796508789,-0.07510340213775635,-0.36369517445564276,-0.1270170509815216
5.153904914855957,-1.0689337253570557,9.316089630126953,-0.09631890058517456,-0.3920033574104309,-0.12346384674310686
4.875390529632569,-1.3896071910858154,9.143593788146974,-0.11223984509706499,-0.42786914110183716,-0.1287592798471451
4.48794984817505,-1.7875430583953857,9.471750259399414,-0.11084184795618059,-0.49956434965133667,-0.1862984299659729
5.435777187347413,-0.9637368321418763,9.448896408081055,-0.16069206595420837,-0.6142341494560243,-0.21944376826286316
5.509167194366456,-0.2814777791500092,9.110828399658203,-0.2590382397174836,-0.7036268115043641,-0.20071780681610107
5.3335466384887695,-0.4025684595108032,9.487207412719727,-0.39688429236412054,-0.8110038042068481,-0.18827112019062045
5.001349925994874,-0.024807333946228027,9.6577844619751,-0.46306395530700684,-0.9149281382560731,-0.12371235340833665
4.972504615783691,0.2563287019729614,9.815725326538086,-0.5509485006332397,-1.0985828638076784,-0.021310769021511078
4.526525497436523,0.16072887182235718,9.782562255859375,-0.6273340582847596,-1.3606582880020144,0.10053390264511108
4.252138614654542,-0.6678817272186279,9.911645889282227,-0.6927695870399476,-1.6699819564819336,0.16396500170230868
3.708480596542359,-0.9455634951591493,9.825250625610352,-0.6461340785026551,-2.0470852851867676,0.17113468050956726
3.4999911785125737,-1.6353844404220583,9.746030807495117,-0.5699060559272767,-2.4419918060302734,0.13351877033710483
4.527559757232667,-1.6511378288269043,9.22432613372803,-0.5523691177368164,-2.8685126304626465,0.0802195891737938
4.829430103302003,-1.2854608297348025,9.315078735351562,-0.5732186436653138,-3.2550830841064453,0.0843397155404091
4.4942688941955575,-2.3077132701873784,9.248748779296875,-0.5613926053047181,-3.7474803924560547,0.06305678188800812
4.396295070648194,-2.6976907253265385,9.293245315551758,-0.5294562578201294,-4.405028820037843,-0.026826180517673492
3.7113399505615234,-3.186984062194824,9.117183685302734,-0.5001592636108398,-5.166862487792969,-0.15811835229396823
3.8725476264953613,-2.9179413318634038,8.922366142272951,-0.4590910375118256,-6.093321800231934,-0.28169444203376776
4.643820762634277,-2.1830782890319824,8.646964073181154,-0.4800607860088349,-7.106806755065918,-0.43852031230926514
5.863542556762695,-1.6523687839508057,8.830523490905763,-0.6100941300392152,-8.124507904052734,-0.47723606228828436
7.825474739074707,-0.6576801538467407,10.15284538269043,-0.9171281456947328,-9.01310443878174,-0.4579535126686096
8.617363929748537,-0.5750963091850282,11.752826690673828,-1.1639848947525027,-9.758420944213867,-0.27110853791236883
14.75899410247803,0.5925384163856507,11.740563392639162,-1.2798992395401003,-10.233526229858398,0.2972108721733093
18.723512649536136,0.7049198746681214,11.545085906982422,-1.6759263277053835,-10.316146850585938,0.5408260226249696
28.71320343017578,-2.1188316345214844,11.445104598999023,-2.225759983062744,-9.919078826904297,0.6118910908699037
31.570892333984375,-3.728874683380127,13.58033084869385,-2.817332029342652,-9.211420059204102,0.6571708321571351
26.26080131530762,-6.604845523834229,13.603692054748537,-3.1902236938476562,-8.634999275207521,0.5671010613441468
18.853403091430668,-7.636297225952148,10.967658996582031,-3.0727133750915527,-8.751976966857912,0.24308276176452637
21.477457046508793,-8.428980827331545,12.744132041931154,-2.6612701416015625,-8.651796340942383,-0.19822098314762118
29.972232818603516,-8.827700614929201,21.203731536865234,-2.69900393486023,-7.750518798828125,-0.021673293784260753
24.67548370361328,-4.249272823333741,23.1939697265625,-3.613964557647705,-5.3957533836364755,0.5844438672065736
10.261999130249023,-2.65717101097107,16.64936065673828,-4.021241188049316,-3.809770822525025,0.3116690516471863
39.52874374389649,-12.4518518447876,28.092437744140625,-2.5969245433807377,-1.579733729362488,-1.2040603160858154
19.752969741821293,-11.69042491912842,28.969539642333984,-1.3200815916061404,1.9113142490386963,-1.3142477273941042
11.657447814941406,-8.662559509277344,20.126791000366214,0.13377952575683594,3.9674584865570073,-1.3914915323257449
8.076785087585451,-5.213714599609375,15.890126228332521,0.9712675213813783,5.2255048751831055,-1.4435840845108034
3.229564428329468,-1.131533980369568,10.52461338043213,1.0426012277603152,5.746647357940675,-1.5278239250183105
-1.5579888820648193,0.915803074836731,6.874290466308594,0.5682635903358461,5.782215118408203,-1.511787533760071
-2.812811136245728,1.7051846981048584,4.892268657684327,-0.1965792924165726,5.546775817871094,-1.3390624523162842
-0.6606231927871704,1.3347361087799072,4.946345329284668,-0.9312803149223329,5.306818962097168,-1.1338430643081667
1.7948514223098757,0.1691916584968567,6.100944995880128,-1.4264252185821533,5.3149824142456055,-0.9297334551811219
1.9502668380737305,-1.7278761863708496,7.035104751586914,-1.5412371158599854,5.505527019500733,-0.8297183513641357
2.520867347717285,-2.790163516998291,7.78315019607544,-1.272735595703125,5.705797672271729,-0.7537787556648256
4.017809867858887,-2.4518895149230957,8.551250457763672,-0.908519208431244,5.9437971115112305,-0.6444169878959657
5.690686225891113,-0.9844088554382324,8.807311058044435,-0.7425613999366761,6.264536380767823,-0.46175944805145264
6.595300197601319,0.003524795174598694,8.79133701324463,-0.8098620772361756,6.616515159606934,-0.21345992386341098
6.780736446380616,0.3569040298461914,8.403787612915039,-0.9510876536369325,6.905854225158691,0.10122169554233551
6.762060165405273,0.21720953285694125,7.95953369140625,-1.0288997888565066,7.058245658874512,0.44633558392524725
6.216105937957765,-0.12238676846027374,7.495275497436523,-0.9473493099212646,7.076927185058594,0.7562343478202821
6.484747886657715,0.20988704264163974,7.888647079467773,-0.7648282051086426,6.9609999656677255,1.0192465782165527
7.987690448760987,0.9732179641723633,8.892190933227539,-0.6218315958976747,6.874547958374023,1.2098944187164307
9.250732421875,1.8332936763763428,10.099383354187013,-0.5756105184555054,6.862051486968995,1.3205757141113281
10.33262825012207,2.4716355800628667,11.118488311767578,-0.61332106590271,6.893040657043457,1.360720753669739
11.092447280883789,2.4387259483337402,11.825790405273438,-0.6340782046318055,6.931271553039551,1.360147833824158
11.394753456115724,2.10989260673523,12.349893569946289,-0.555150330066681,6.915684700012207,1.3043544292449951
12.05616092681885,1.7129720449447634,12.950593948364258,-0.3974619805812836,6.807703018188477,1.2135466337203982
13.11457920074463,1.7204029560089111,13.816084861755373,-0.20674668252468112,6.643476009368897,1.1288557052612305
14.289198875427248,1.9643863439559939,14.92820453643799,-0.0724955126643181,6.44011116027832,1.0545421838760378
16.06694602966309,1.6993536949157715,16.445165634155277,0.00967668741941452,6.2031617164611825,0.9792611002922059
18.757108688354496,1.0677176713943484,18.153760910034183,0.12862908840179443,5.945322513580323,0.900304913520813
22.19811820983887,0.2990249693393708,19.295412063598636,0.3313340842723847,5.6967530250549325,0.8196165561676025
25.931043624877933,0.6801814436912538,19.78610610961914,0.48638617992401123,5.447927951812745,0.7852534055709839
32.179405212402344,2.3424069881439213,19.929859161376953,0.26539519429206854,5.389055252075195,0.8718597888946533
37.7716064453125,1.0893332958221436,17.712444305419922,-0.22071148455142978,5.780633926391602,0.9739411473274232
37.80379867553712,-0.7167365550994873,12.673594474792482,-0.6227753162384033,6.338208198547363,0.8441622853279115
37.0686378479004,6.924277305603027,3.250124454498291,-1.3704638481140137,6.643476963043214,0.7563029527664185
36.0830078125,11.644659042358398,-10.419780731201172,-3.1704876422882085,6.472280502319336,0.9801063537597656
40.82213592529297,4.267475128173828,-27.18279075622559,-4.342322826385499,6.07796573638916,1.524945378303528
37.147552490234375,-0.8152870535850526,-36.918712615966804,-3.4858126640319824,4.436291694641113,1.9003869295120241
25.718647003173828,-2.6127147674560547,-35.97040557861328,-1.8226127624511719,1.251458287239075,1.6449613571166992
13.498003959655763,-4.432132244110108,-25.783182144165043,0.502523958683014,-1.9795074462890625,0.2709099054336548
19.029247283935547,0.2472226917743683,-12.252519607543945,1.8623356819152832,-4.002003192901612,-1.2855427265167236
27.75705146789551,3.5015335083007812,0.19112743437290194,1.8868845701217654,-4.422986507415772,-2.0629310607910156
30.519899368286136,5.450647830963136,8.490438461303711,0.7197973132133485,-3.5579090118408203,-1.9297972917556765
-4.346685409545898,-9.010259628295898,27.946704864501953,1.7753144502639773,-3.459141254425049,-0.28760218620300293
-9.156648635864258,-4.6415162086486825,15.51809597015381,1.3940544128417969,-2.8586032390594487,-0.4918056130409241
-2.505753993988037,2.2024102210998535,13.601599693298342,-0.05051848292350769,-3.9224462509155273,-0.3257251679897309
8.81995487213135,-2.7860074043273926,6.801464080810547,-0.3368983268737793,-5.035390377044679,-0.41765546798706055
29.049486160278324,3.110917091369629,17.670362472534183,-0.2973152697086335,-5.063385963439941,-0.11800713837146759
29.854330062866214,3.209635496139527,21.389471054077152,-0.28965249657630926,-3.7190637588500977,-0.3488029539585114
19.09019279479981,0.7823413014411927,15.508864402770998,0.04025717079639435,-2.7097930908203125,-1.0602942705154421
14.492530822753906,-4.651698112487793,13.310440063476562,0.28081282973289495,-2.348067283630371,-1.1818083524703982
11.154851913452148,-4.407440662384034,12.377272605895998,0.40850469470024114,-1.9368278980255127,-0.9468402862548828
8.519514083862305,0.5292375087738037,11.104703903198242,0.6034508943557739,-1.6193460226058962,-0.8752031326293945
10.366510391235352,1.2717276811599734,12.121271133422852,0.6517974734306337,-1.1127237081527712,-1.0242607593536377
8.44384288787842,-3.1024999618530273,10.350311279296875,0.8220881223678589,-0.6428322196006776,-0.9938284158706665
7.3075408935546875,-4.825188636779785,9.796438217163086,0.7320864200592041,-0.5420278906822206,-0.622072994709015
7.469855308532715,1.4242634773254395,11.504658699035646,0.5228896737098695,-0.3953532576560974,-0.330818921327591
6.08970832824707,0.12522695958614352,10.264798164367678,0.32900333404541016,-0.17616227269172668,-0.2720183432102204
5.532472610473633,-2.092382669448853,9.986892700195312,0.2138890773057938,-0.1267625093460083,-0.14849500358104709
5.554363250732422,0.026342645287513733,10.59837532043457,0.1518373191356659,-0.10817093402147294,-0.07744190841913225
5.235260009765625,-0.3231787085533142,10.138130187988281,0.08851056545972825,-0.1007252186536789,-0.037001233547925956
4.93110227584839,-1.0066522359848025,9.734102249145508,0.029566617682576183,-0.1167658492922783,-0.000803208677098155
4.890469551086426,-0.6622108221054077,9.608877182006836,0.03329060971736908,-0.10637020319700242,0.012602251023054123
4.771784782409668,-0.8752111196517944,9.54592800140381,0.029263032600283626,-0.09917952120304108,0.02323179692029953
4.507301807403565,-1.1159746646881104,9.415456771850586,0.001543364953249693,-0.10723864287137987,0.021336738020181656
4.270627021789551,-1.433685302734375,9.121068000793459,0.018740454688668255,-0.12565217912197116,-0.012454232200980186
4.118027210235597,-1.9323687553405762,8.955310821533203,0.09670991450548173,-0.14876672625541687,-0.0710955634713173
4.228466510772706,-2.0931470394134526,8.896251678466797,0.16790735721588135,-0.16550572216510775,-0.1067495569586754
4.417309761047363,-1.837226986885071,9.089028358459474,0.21811948716640475,-0.16236814856529236,-0.11876330524683
4.492635726928711,-1.7116371393203738,9.100767135620117,0.2352190911769867,-0.17171820998191833,-0.15357218682765963
4.715671062469483,-1.7405343055725098,9.087925910949709,0.2381483018398285,-0.18171904981136325,-0.1765127182006836
4.90650224685669,-1.3844834566116335,8.982535362243654,0.2527047395706177,-0.1745800226926804,-0.19582842290401462
4.993258953094483,-1.0061308145523074,9.131672859191896,0.2432365119457245,-0.15478481352329257,-0.20515716075897217
5.067041397094727,-0.7019858360290527,9.136299133300781,0.2095165699720383,-0.1269156485795975,-0.19765913486480713
4.428859710693359,-0.5658807754516602,9.104958534240724,0.165008619427681,-0.115653395652771,-0.1818054169416428
3.8135588169097905,-0.9526687860488892,9.180994033813477,0.136717364192009,-0.16271430253982544,-0.2120591104030609
4.355777263641358,-0.7750545740127563,9.361063957214357,0.09859319031238556,-0.20807804167270663,-0.2594580054283142
4.086310386657715,-0.8509751558303833,9.52395534515381,0.07499882578849792,-0.23083338141441345,-0.30391779541969305
3.7203023433685307,-1.4454208612442019,9.49820327758789,0.09332354366779327,-0.2535330951213837,-0.4208420515060425
4.550529003143311,-1.1480046510696413,9.639108657836914,0.11416091769933702,-0.2633361220359802,-0.5175154209136963
4.863195419311523,-0.5825167894363403,9.871962547302248,0.09489294141530992,-0.32625502347946167,-0.5350301861763002
5.576169013977051,-0.5953248739242554,9.527387619018555,0.05319136008620263,-0.36579677462577825,-0.5360996723175049
5.121928691864015,-0.3636727631092072,9.357067108154297,-0.004072624258697033,-0.4299083054065705,-0.49581700563430786
4.97530221939087,-0.17432725429534912,9.571067810058594,-0.03299273923039437,-0.5278635025024414,-0.45989561080932617
5.203855514526367,-0.6522644162178041,9.494076728820803,-0.028089698404073715,-0.622903883457184,-0.4276584982872009
4.855776309967042,-0.6655063033103944,9.69585704803467,0.014386252500116827,-0.7643519043922425,-0.395232617855072
4.716445446014405,-0.3168463110923767,9.861982345581055,0.017386471852660183,-0.9641313552856445,-0.3426387012004853
3.7645542621612553,-0.42414647340774536,10.42304801940918,0.02158073522150517,-1.270233392715454,-0.27456915378570557
3.1377530097961426,-0.7160539627075195,10.817821502685547,0.012212506495416166,-1.6869852542877197,-0.22583006322383883
3.291721820831299,-0.518700659275055,11.139510154724123,-0.021106120198965073,-2.1683454513549805,-0.20122589170932773
3.8860459327697754,0.3540833592414856,11.313610076904297,-0.11974287778139116,-2.673849105834961,-0.18047524988651278
4.298275947570801,1.2221900224685671,10.963577270507812,-0.2311256676912308,-3.2002358436584473,-0.10064524412155151
4.315870761871339,1.3458756208419802,10.901120185852053,-0.3558969199657441,-3.74440860748291,-0.019368609413504604
4.001062393188477,0.5639364719390869,11.193058013916016,-0.38599514961242676,-4.448355674743652,-0.04289290681481362
3.0038549900054936,-1.7409539222717285,11.807776451110842,-0.4397733211517334,-5.294115543365479,-0.11922979354858398
1.2225946187973025,-3.999946832656861,11.233585357666016,-0.3949761390686035,-6.276761531829835,-0.35137525200843817
0.4312158226966858,-4.123294353485108,10.16668701171875,-0.07047245651483537,-7.742941856384277,-0.8697146773338319
2.450397491455078,-4.192372798919679,10.547727584838867,0.4720215499401093,-9.537983894348146,-1.4864673614501953
3.3868920803070073,-3.253122329711914,11.103883743286133,0.7412490248680116,-11.378175735473633,-1.8070541620254519
8.253622055053711,-4.136107444763184,12.192256927490234,0.6501817107200624,-12.821016311645508,-2.1941885948181152
18.473268508911136,-3.359590291976929,14.988044738769531,0.3605479300022126,-13.676443099975586,-2.360082864761353
32.62491989135743,-4.505064964294434,16.763038635253906,0.33467304706573486,-13.529457092285156,-2.6029832363128667
47.04151153564453,-2.57289457321167,15.258689880371094,0.0990181565284729,-12.01968288421631,-2.3647942543029785
40.825878143310554,0.11155647039413452,16.299451828002933,-0.9764723777770996,-10.668379783630373,-1.6828159093856814
29.583566665649418,-10.457479476928711,19.238483428955078,-1.4320932626724245,-9.567869186401367,-2.0065171718597417
26.192445755004886,-9.472352981567383,24.891973495483402,-1.4005244970321657,-8.851046562194826,-2.569451332092285
25.52619171142578,-9.307705879211428,27.58110809326172,-1.3277368545532227,-7.139062404632569,-2.281043529510498
5.713793754577637,-10.906721115112305,16.222900390625,-0.2989156246185303,-5.084444522857667,-2.245294809341431
48.86631393432618,-15.828165054321289,36.175086975097656,0.0036612658295780425,-2.6665830612182617,-1.5901247262954714
23.079307556152344,-13.163289070129396,34.66733932495118,0.7589972019195557,1.8124520778656006,-1.0523072481155398
7.780834197998047,-10.832218170166016,23.217491149902344,1.3859828710556032,4.2464189529418945,-0.6263849139213563
7.518048763275147,-7.114735126495362,18.394472122192386,1.7813223600387575,5.658885955810547,-0.4756156802177429
0.6335577964782715,-2.69105076789856,11.264791488647461,1.5246821641922,6.19610595703125,-0.3428486287593842
-4.270934581756593,-2.259884595870972,7.027899742126465,0.9084240794181825,6.156402111053468,-0.27024275064468384
-5.125439643859863,-1.1259915828704834,4.4270949363708505,0.20673303306102755,5.803430557250977,-0.08814557641744615
-3.7379438877105717,0.28106051683425903,4.112873554229737,-0.6216473579406738,5.360441684722901,0.23934470117092135
-1.5351868867874148,0.08686996251344682,5.316776752471925,-1.4235080480575564,5.113819122314453,0.6964240670204164
0.7945656776428223,-1.077871561050415,7.127767562866211,-1.8992481231689453,5.1011810302734375,1.1073349714279177
3.8732666969299316,-2.565089225769043,9.214253425598146,-1.929792881011963,5.37470293045044,1.3796768188476562
5.80982542037964,-3.3226368427276616,10.301725387573242,-1.5205039978027344,5.865370273590089,1.532976031303406
6.527896881103516,-1.866347312927246,10.363577842712404,-1.0834692716598513,6.360952377319336,1.6902862787246706
6.800875186920167,0.19749799370765686,9.646624565124513,-0.8520739674568177,6.753784656524659,1.8702263832092285
6.804814338684082,2.0582435131073002,9.01319217681885,-0.8574581146240234,7.011954784393311,2.063401699066162
7.056039810180664,2.9262278079986577,8.541176795959474,-0.991174876689911,7.145421028137207,2.241957187652588
7.473217010498047,2.477778434753418,8.551305770874023,-1.0535297393798828,7.188013553619386,2.327789306640625
8.182167053222656,0.49419552087783813,8.56825065612793,-0.8581762909889222,7.148144245147706,2.2732505798339844
8.873961448669435,2.533810377120972,9.726099967956545,-0.4329352676868439,7.082891464233398,2.0929005146026616
10.41799068450928,2.581289291381836,10.695720672607422,-0.4302576184272766,7.096391201019288,1.9984642267227175
11.446067810058594,2.738911867141724,11.640357017517092,-0.47414168715476995,7.102802276611328,1.890961527824402
12.743371009826662,1.8703176975250244,12.80550289154053,-0.48710912466049194,7.089391708374023,1.7885309457778933
14.882561683654787,0.9924176335334779,14.395015716552734,-0.4263780117034912,7.087750911712647,1.6947894096374512
17.53367424011231,0.22575876116752625,15.98223400115967,-0.3160410821437836,7.162025451660156,1.672590970993042
19.93918037414551,-0.05800658464431763,17.312345504760746,-0.20873793959617615,7.281165599822999,1.7493860721588135
21.499523162841797,-0.35077357292175293,18.485721588134766,-0.1456577926874161,7.378464221954347,1.8762686252593994
23.396533966064453,-1.2827056646347048,19.510475158691406,-0.0732361227273941,7.411985874176026,1.989264965057373
26.796417236328125,-1.9647674560546875,19.92734146118164,0.07908160984516144,7.386373043060304,2.1157085895538335
30.918487548828125,-1.8476624488830566,18.673105239868168,0.1889092177152634,7.287362098693848,2.220542669296265
34.00251007080078,-2.7380380630493164,15.131364822387695,0.0819319859147072,7.071836948394776,2.185314178466797
36.068321228027344,-2.776412725448609,9.384759902954102,-0.15298430621623996,6.717995643615723,1.8459941148757937
39.663166046142585,4.905204772949219,-0.35582068562507635,-0.982081711292267,6.337759971618652,1.497117042541504
43.29076766967774,13.56309223175049,-12.801790237426758,-3.241082191467285,5.906554698944093,1.3153281211853027
53.7314453125,7.98725700378418,-30.00615692138672,-5.244826316833496,5.507328033447266,1.7596915960311892
47.21565246582031,-2.897901296615601,-42.834728240966804,-4.287968635559082,3.6876151561737065,2.172297954559326
27.24777412414551,-5.32064151763916,-39.16916275024415,-1.7235496044158936,0.07023010402917863,1.474105477333069
17.956050872802734,-0.7938162088394165,-24.624691009521484,0.828233301639557,-3.1695189476013184,-0.16292341053485873
26.9014892578125,3.7716612815856934,-7.05936098098755,1.7161408662796023,-4.768352031707765,-1.48549222946167
8.086469650268555,-6.338174819946289,17.874784469604496,3.6137745380401616,-5.879084587097168,-1.6950322389602663
2.4083492755889897,-0.8233158588409424,17.705778121948246,3.5708010196685795,-4.840252876281738,-1.6337370872497559
2.484415054321289,11.877788543701172,19.584249496459964,1.007191300392151,-5.122876167297363,-1.0774945020675661
11.426435470581055,3.900857925415039,9.985528945922852,-0.015758376568555832,-6.12468147277832,-0.9931617379188539
36.7936134338379,9.922008514404297,20.039499282836918,-0.24677309393882751,-6.050823688507081,-0.4236893057823181
42.44263076782227,4.187055587768555,26.449634552001953,-0.371021568775177,-4.32298231124878,-0.6011891961097718
25.131229400634766,-4.9390015602111825,17.90505409240723,0.16615837812423706,-3.0224468708038335,-1.2486789226531982
12.242483139038086,-8.087787628173828,12.807258605957031,0.4597959518432617,-2.573241710662842,-0.880891501903534
10.218478202819826,1.431447982788086,12.468120574951172,0.45407819747924805,-2.2660458087921147,-0.6854021549224854
10.909667015075685,5.773931503295898,12.130871772766115,0.3183380067348481,-1.7434496879577637,-0.8239923715591431
11.058038711547852,-2.168900489807129,11.46705722808838,0.3937965333461762,-1.001272201538086,-0.920617163181305
7.6252641677856445,-7.811315059661866,9.187971115112305,0.6285828948020936,-0.7173644900321962,-0.5071616172790527
6.68461799621582,0.5820079445838929,11.087283134460451,0.48048871755599976,-0.5902364850044252,-0.2362242341041565
5.4330763816833505,0.7876874804496766,10.285296440124513,0.3268947899341584,-0.3786320686340332,-0.3158191442489624
4.876027584075929,-3.631238698959351,9.185749053955078,0.2096313983201981,-0.3335959315299988,-0.28705343604087835
4.3117947578430185,-1.8062071800231934,9.767183303833008,0.1897374391555786,-0.34079092741012573,-0.21431644260883334
4.388910770416261,-1.0708942413330078,9.988923072814943,0.19691784679889682,-0.36952489614486694,-0.17482091486454013
5.8945279121398935,-1.2055722475051882,10.225767135620117,0.2208176851272583,-0.38590016961097723,-0.16881810128688815
5.56293535232544,-0.17631292343139648,10.197819709777834,0.1960408836603165,-0.3355921506881714,-0.1427230089902878
5.410266399383546,-0.12014838308095933,10.072072982788086,0.15257388353347778,-0.2766034007072449,-0.14118023216724399
5.3781023025512695,-0.353721022605896,9.918889045715334,0.05168139934539795,-0.2781787216663361,-0.029908958822488785
5.645626068115234,-0.7207089066505433,9.816323280334474,-0.0453815832734108,-0.26077058911323553,0.020505027845501903
5.191312313079835,-0.6109063625335693,9.670536994934084,-0.13109736144542697,-0.29720842838287354,0.09228939563035966
4.671116828918457,-1.0125322341918945,9.435072898864748,-0.20668120682239535,-0.31424126029014593,0.09633496403694153
4.991455554962159,-1.5330219268798828,9.446398735046388,-0.240978017449379,-0.35989320278167725,0.07811901718378068
4.728054046630859,-1.7407078742980957,9.143800735473633,-0.21327608823776245,-0.3883889019489289,0.03669718280434609
4.706830978393555,-1.4018924236297607,9.071290016174318,-0.19548608362674716,-0.4233444929122925,0.007743550930172206
4.944009304046632,-1.4681700468063357,8.980724334716797,-0.2110297977924347,-0.4516201615333557,-0.004410473164170981
5.151234149932862,-1.6558979749679568,8.762435913085938,-0.2088736593723297,-0.45324638485908514,-0.002846785821020603
5.096879482269288,-1.8248714208602907,8.699076652526857,-0.19449241459369662,-0.4374385476112366,-0.01727808639407158
5.13627815246582,-1.7444568872451784,8.668671607971193,-0.18787497282028198,-0.41236224770545965,-0.0431370809674263
5.208877086639405,-1.815321445465088,8.539135932922365,-0.17607547342777255,-0.36591836810112005,-0.07152344286441803
4.856880187988281,-2.0998909473419194,8.484747886657717,-0.15731123089790344,-0.329081803560257,-0.11169737577438354
4.7764554023742685,-2.059754610061646,8.619809150695803,-0.1341931372880936,-0.3342311978340149,-0.1572800576686859
4.531001567840577,-2.148954391479492,8.723625183105469,-0.0924581363797188,-0.34871023893356323,-0.23267279565334323
4.389943599700929,-2.3517811298370366,8.87401866912842,-0.04708126187324524,-0.40116000175476074,-0.3264965116977692
4.717767238616944,-1.9224023818969727,8.823564529418945,0.0012974110431969166,-0.4643628299236298,-0.3953803777694702
4.9860577583313,-1.8851580619812012,8.821471214294435,0.08499611914157867,-0.4968614280223847,-0.45590957999229437
5.299324035644531,-1.745913624763489,8.726465225219727,0.1272929757833481,-0.5180152654647827,-0.48419728875160223
5.666797637939453,-0.7088930010795594,8.86214828491211,0.13241808116436007,-0.5546910166740419,-0.47158873081207275
5.856126308441163,-0.6260283589363099,9.043715476989748,0.09396467357873918,-0.6210341453552246,-0.41311332583427435
5.578130722045898,-0.7947195172309877,9.206497192382812,0.06512147188186646,-0.7047597765922547,-0.3700289428234101
4.921660900115968,-0.39267706871032715,9.570576667785646,0.017843907698988918,-0.8652691841125488,-0.32853874564170843
4.573598861694336,-0.27753573656082153,9.866472244262695,-0.04594863578677178,-1.1243895292282107,-0.26074349880218506
4.013300895690918,-0.22069464623928073,10.161861419677734,-0.10667586326599121,-1.4588030576705935,-0.22005286812782288
4.125527381896973,-0.003997907042503357,10.677339553833008,-0.18266068398952487,-1.8742220401763916,-0.18840748071670532
4.180554866790772,-0.6313220262527466,10.476451873779297,-0.23969754576683044,-2.3291890621185307,-0.16307511925697327
4.097223281860352,-0.9875068664550781,10.8956995010376,-0.22334279119968417,-2.8622314929962163,-0.16270476579666138
4.81232786178589,-0.6282213926315308,10.704762458801271,-0.22447878122329712,-3.4914767742156987,-0.17339390516281128
5.03779411315918,-0.36992511153221136,10.807192802429201,-0.3450655043125153,-4.093554496765137,-0.22266292572021484
3.0872805118560795,-2.129342317581177,10.918174743652344,-0.4713346660137177,-4.874472618103027,-0.32255241274833685
1.14514434337616,-3.734692096710205,10.155019760131836,-0.34640654921531683,-5.937585353851319,-0.5602861642837524
2.1731564998626713,-4.383656978607179,9.343913078308107,-0.09624005854129791,-7.207007884979249,-0.9169484376907349
3.227323532104492,-3.111919403076172,9.276873588562013,0.037997886538505554,-8.615185737609865,-1.1269994974136355
4.006535530090332,-1.326205611228943,10.315220832824709,0.09299903362989427,-10.148420333862305,-1.3885303735733034
6.242034912109375,-1.8249118328094482,10.204886436462404,-0.03737422823905945,-11.517879486083984,-1.5295430421829226
14.71395778656006,-2.7007369995117188,12.977632522583008,-0.4053603410720825,-12.937470436096193,-1.3558695316314697
23.557655334472656,-3.6613447666168217,15.740088462829592,-0.685010850429535,-13.092266082763672,-1.4531006813049316
39.08965301513672,-4.778391361236573,13.613039016723633,-0.721726953983307,-12.04372787475586,-1.846342444419861
43.74150085449219,-2.6775717735290527,14.45625972747803,-1.2559897899627686,-10.756057739257812,-1.5638860464096072
31.00319862365723,-5.929123878479004,14.535806655883789,-1.9908413887023926,-9.789212226867678,-1.4498732089996338
26.446006774902344,-14.022473335266115,19.332445144653324,-1.757191061973572,-9.140850067138672,-2.0644264221191406
28.126504898071293,-11.817442893981935,24.56664085388184,-1.2236912250518799,-8.306849479675295,-2.556497097015381
23.84695053100586,-8.641935348510742,22.316656112670902,-0.6133712530136108,-6.312178611755371,-2.4492065906524663
7.269886016845703,-3.293873548507691,17.51780509948731,-0.6575934886932373,-5.008709430694581,-2.1979846954345703
48.043304443359375,-11.918015480041506,34.222877502441406,-0.24865776300430298,-2.53803038597107,-2.8001449108123784
19.326210021972656,-9.614452362060547,30.583946228027344,-0.06191830337047577,1.2766999006271365,-2.084933280944824
13.024344444274904,-10.361305236816406,23.158885955810547,0.6656293272972108,3.585126161575318,-1.741340160369873
10.0636682510376,-7.420192241668702,18.030052185058594,1.0558131933212282,5.35715389251709,-1.375183701515198
5.712855815887452,-5.597306728363038,12.267057418823242,1.169995427131653,6.261748313903809,-1.2097439765930176
0.12492957711219788,-4.274013519287109,7.745288372039796,1.1203120946884157,6.4997100830078125,-1.0645648241043093
-2.7428364753723145,-3.142717599868775,4.64774227142334,0.8429184556007386,6.281303882598878,-0.8577160835266113
-2.9015049934387207,-2.5607440471649174,3.6694202423095703,0.3747839331626892,5.854216098785401,-0.602110743522644
-0.34311059117317205,-1.8864361047744753,4.600910663604737,-0.15365654230117798,5.569252490997315,-0.2045978754758835
2.2935233116149902,-2.435179471969605,6.214570045471191,-0.6497751474380493,5.62970781326294,0.1962776482105255
3.5496051311492924,-3.143306970596314,7.465497493743897,-0.9433531165122987,5.909017086029054,0.5787160396575928
4.84166145324707,-3.912709474563599,8.206329345703125,-0.982323408126831,6.271128177642823,0.9488528966903687
6.120749950408936,-4.306434154510499,8.420372009277344,-0.7859613299369813,6.663530349731445,1.2198941707611084
7.0421953201293945,-3.6323561668395996,8.249189376831055,-0.53099524974823,6.996019840240479,1.4062132835388184
7.558434963226319,-1.9462406635284424,7.761114120483398,-0.41084775328636175,7.263320446014405,1.6005885601043701
8.155660629272461,-0.3103553056716919,7.478235244750977,-0.5157585740089418,7.436191558837891,1.8346771001815798
8.198449134826662,0.035099178552627563,7.064852714538574,-0.7065890431404115,7.547747611999512,2.0191893577575684
7.785545825958253,-0.2688845098018647,6.907291889190675,-0.8021843433380127,7.5338501930236825,2.110018730163574
8.103732109069826,-0.8603500723838807,7.380248069763184,-0.7824403643608094,7.399047374725343,2.1469364166259766
9.509355545043945,-1.2171136140823366,8.565932273864748,-0.6397982835769653,7.233596324920655,2.168856143951416
11.630422592163086,-0.8625528812408447,10.141955375671388,-0.46390509605407715,7.152043819427491,2.2369687557220463
13.443968772888185,0.08979690074920654,11.895077705383303,-0.4036640822887421,7.173456192016602,2.3336999416351323
15.472274780273438,0.26819768548011785,13.60116195678711,-0.4590622484683991,7.266423702239991,2.4248604774475098
17.317667007446293,-0.3261476159095764,14.953910827636719,-0.44224005937576294,7.399004459381104,2.49636173248291
18.528499603271484,-0.7518167495727539,15.99066162109375,-0.31187775731086737,7.5077619552612305,2.5171966552734375
20.160076141357422,-1.0257775783538818,16.91912651062012,-0.14742976427078247,7.558229923248292,2.5009498596191406
21.984647750854496,-1.4145407676696777,17.674932479858402,0.043819040060043335,7.550930976867676,2.4922840595245366
24.001033782958984,-1.3150085210800173,18.538167953491214,0.18840603530406955,7.431496620178223,2.487104177474976
27.3719654083252,-0.31134355068206787,18.86833953857422,0.19664217531681064,7.226180076599121,2.460636615753174
31.16946601867676,0.12607160210609436,18.141300201416016,-0.09317006915807725,7.030073165893555,2.365118741989136
33.53964614868165,-1.964737892150879,15.151174545288086,-0.4829796552658081,6.8202714920043945,2.0236585140228276
36.50067138671875,-2.4028060436248784,7.6092023849487305,-0.757965385913849,6.613436698913574,1.5000578165054324
39.518882751464844,4.891713619232179,-4.361692428588867,-1.481908440589905,6.215381622314453,0.9204219579696655
50.18206405639649,12.22936534881592,-21.98961448669434,-3.491459846496582,5.84352731704712,0.7332658767700195
52.51987075805665,4.832029819488526,-38.642311096191406,-4.600981712341309,5.054630279541016,1.1964386701583865
38.70695114135743,-1.5607011318206787,-44.279014587402344,-3.746809482574463,2.000782728195191,1.0970776081085205
17.706863403320312,-5.332322120666504,-30.775043487548828,-1.3060574531555176,-1.870591998100281,-0.16702316701412204
17.505193710327152,-2.316017389297486,-10.892024993896484,0.8160472512245179,-4.239535331726074,-1.6503275632858279
21.361444473266605,-9.671592712402344,7.056030750274659,3.8519954681396484,-6.605033874511719,-2.4935777187347417
0.6362466812133789,4.839244842529297,12.886065483093263,3.8154077529907227,-5.343717098236085,-2.8070826530456543
8.242715835571289,12.405075073242188,23.714557647705078,0.958149015903473,-5.570757865905762,-1.7354893684387207
14.826718330383303,-2.1248579025268555,12.467002868652344,-0.05114032328128815,-6.261147975921632,-1.6282763481140137
34.28663635253906,4.036101818084718,19.747186660766605,0.17785635590553284,-6.175803184509277,-1.0179032087326052
40.45811080932618,1.0302889347076416,24.44076156616211,0.2945578694343567,-4.801476955413819,-0.6988357305526733
25.99761962890625,-2.661221981048584,18.142135620117188,0.41899144649505615,-3.372792005538941,-1.2771745920181277
12.73154067993164,-3.6084980964660645,13.425537109375,0.617827296257019,-2.66474461555481,-1.0607316493988037
9.197582244873047,0.7853304147720337,11.094880104064943,0.7008479237556459,-2.368898153305054,-0.9583407640457153
14.242070198059084,2.868738412857056,13.496411323547365,0.8228691816329956,-1.6998051404953005,-1.1266345977783203
10.983999252319336,-0.11270658671855927,11.659387588500977,0.7400912046432495,-0.8208176493644715,-0.918787181377411
7.306451320648194,-3.869419574737549,10.128255844116211,0.7296196818351747,-0.6700739860534668,-0.5213788151741029
7.574324131011964,1.345572352409363,11.307993888854982,0.49980199337005615,-0.4250909686088562,-0.27698937058448797
6.255316734313965,-0.1179480627179146,10.36709976196289,0.2855041921138764,-0.21917739510536194,-0.19770203530788424
5.200584888458253,-0.8263475894927979,10.191954612731935,0.07411693781614305,-0.1736752688884735,-0.05168258398771286
4.418656826019288,-0.27697387337684637,10.65602779388428,-0.04790846258401871,-0.2001360207796097,0.020230814814567566
4.906769275665284,-0.6625418066978456,10.492029190063477,-0.156701922416687,-0.2625669240951538,0.07226865738630296
4.9963955879211435,-0.8187298774719238,10.062999725341797,-0.21077422797679904,-0.2949056029319763,0.10027039796113969
4.884086608886719,-0.7029533386230469,9.840423583984375,-0.2399408668279648,-0.32444339990615845,0.11098425090312958
4.5609283447265625,-0.7591441869735718,9.695437431335451,-0.23470573127269748,-0.3321869969367981,0.13505591452121737
5.0262207984924325,-1.4377994537353516,9.606606483459474,-0.21571268141269687,-0.3360965549945832,0.1558549702167511
4.757704257965089,-1.7062735557556152,9.383392333984375,-0.19555801153182983,-0.34969249367713934,0.14442607760429382
4.936928749084473,-1.654226899147034,9.389066696166992,-0.17260681092739108,-0.35679513216018677,0.08695816993713379
4.737922191619874,-1.8280935287475586,9.241561889648438,-0.19334281980991366,-0.3671796917915344,0.05877532437443734
4.580117225646973,-2.5708837509155273,8.92551898956299,-0.19149114191532138,-0.37843081355094915,0.022422343492507935
4.362653255462647,-2.6495161056518555,8.68202877044678,-0.15477253496646884,-0.40681618452072144,-0.03388548269867898
4.871118545532227,-1.9923720359802246,8.871209144592287,-0.1302056908607483,-0.4238093197345734,-0.07721089571714403
4.974786281585694,-1.9988553524017334,8.803094863891602,-0.12799955904483798,-0.40968436002731323,-0.10400485247373582
5.046643257141113,-2.022955656051636,8.674294471740724,-0.12015401571989061,-0.382739931344986,-0.13693493604660034
4.981586933135987,-1.872600793838501,8.634839057922365,-0.10390932857990265,-0.3476328551769257,-0.17209213972091675
5.0779876708984375,-1.8341946601867676,8.553120613098146,-0.09292678534984589,-0.294422596693039,-0.20416174829006198
5.036334514617921,-1.923154354095459,8.50455951690674,-0.0716802552342415,-0.2538847327232361,-0.23272944986820224
4.761089801788331,-2.068660974502564,8.46791744232178,-0.03064018115401268,-0.22337546944618225,-0.2891660630702973
4.378042221069336,-2.274341106414795,8.565943717956545,0.016256846487522125,-0.23255230486392978,-0.37734901905059814
4.364483833312988,-1.812852144241333,8.855868339538576,0.051718819886446006,-0.2724875211715698,-0.470386803150177
4.643503665924073,-1.6976826190948486,8.826562881469727,0.0793004184961319,-0.2928228676319123,-0.5531179904937744
4.964161396026612,-1.9171582460403445,8.685646057128906,0.10997784882783891,-0.2983315289020539,-0.5932776927947998
4.987873077392578,-1.5465999841690066,8.973062515258789,0.14855523407459262,-0.29348546266555786,-0.6181407570838929
5.024189472198487,-1.6732838153839111,8.911326408386232,0.22727569937705994,-0.3141298592090607,-0.6345786452293397
4.938453674316406,-1.2931672334671023,9.277565002441406,0.2692676484584809,-0.35818856954574585,-0.6659550070762635
5.386239051818848,-1.1165320873260498,9.338686943054201,0.28110969066619873,-0.4157460331916809,-0.6872320771217347
6.084527969360352,-0.295581579208374,9.408112525939943,0.2799643874168396,-0.5405263304710389,-0.6409224271774292
5.828417301177979,0.6166243553161621,9.720869064331055,0.1946891099214554,-0.7328670024871826,-0.45792579650878906
4.813658714294434,0.2003110647201538,9.861607551574709,0.11820981651544572,-0.9713994264602661,-0.31124785542488104
4.286956310272218,-0.11021639406681061,10.264422416687013,0.03623978793621063,-1.251460313796997,-0.2381490617990494
4.079007625579835,-0.23312298953533175,10.593854904174805,-0.04401320964097977,-1.6083039045333865,-0.17794445157051086
4.14893674850464,-0.1718171238899231,10.64958381652832,-0.08906043320894243,-2.015199661254883,-0.12592598795890808
4.357463359832765,0.17010727524757385,10.936881065368654,-0.16649858653545382,-2.4674062728881836,-0.06919924169778825
4.786528587341309,0.5523658394813539,10.702165603637695,-0.25570541620254517,-2.959010124206543,0.03184441104531289
5.089918613433839,1.1221873760223389,10.637427330017092,-0.39099434018135076,-3.477123260498047,0.12079646438360216
4.673553466796875,0.45541828870773315,10.7330322265625,-0.5063516497612001,-4.160822868347168,0.09465600550174713
3.0352044105529785,-1.514244556427002,11.202787399291992,-0.5883395671844482,-4.966601848602296,-0.011005692183971405
0.4500068426132202,-3.6511311531066895,10.44511604309082,-0.5263961553573608,-6.017910003662109,-0.2971718013286591
1.0579107999801638,-4.390083312988281,10.046057701110842,-0.2523238360881806,-7.405211448669434,-0.7021672129631044
2.7261583805084233,-3.0214068889617924,10.319662094116211,-0.12531028687953952,-9.031305313110352,-0.9158424139022827
2.5242791175842285,-2.203725814819336,10.114607810974123,-0.04896447435021401,-10.78475570678711,-1.1612535715103152
5.269867897033691,-3.2991850376129155,10.516530990600586,-0.1599989086389542,-12.5282678604126,-1.471135139465332
17.38409233093262,-5.6975202560424805,14.586667060852053,-0.5675345063209535,-13.714282989501953,-1.5078734159469607
28.887920379638672,-3.88159728050232,15.725817680358888,-0.7239744663238525,-13.549750328063967,-1.7564700841903689
46.49209213256837,-4.751439094543457,14.35275173187256,-0.5774862170219422,-11.945064544677734,-2.0802423954010014
41.92767715454102,-2.226755857467652,13.026551246643068,-0.9368967413902284,-10.200209617614748,-1.6195471286773682
30.031383514404297,-9.114234924316406,15.471697807312013,-1.5768513679504395,-9.504162788391115,-1.3942224979400635
22.658536911010746,-10.560273170471193,20.997308731079105,-1.6468948125839236,-8.639211654663086,-1.8601160049438477
21.138900756835938,-7.58027458190918,26.231365203857422,-1.8613839149475098,-8.022528648376467,-1.9513521194458008
14.707795143127443,-7.106622219085694,18.615570068359375,-1.76316237449646,-6.97349739074707,-1.8308056592941286
26.78506851196289,-6.361152172088624,19.583324432373047,-1.3379669189453125,-5.759883403778077,-2.1547751426696777
39.053009033203125,-16.513799667358402,37.630939483642585,-0.43655762076377874,-1.6124963760375977,-2.37308406829834
16.08819580078125,-11.144821166992188,27.839454650878906,0.3712853789329529,2.204997777938843,-1.696002721786499
11.972113609313967,-10.017479896545412,22.41125297546387,1.1683791875839236,4.455388545989991,-1.2408447265625
7.396113395690918,-6.091794013977051,15.876670837402344,1.409868121147156,5.819521903991699,-0.9934346079826356
5.063039302825929,-3.72273588180542,11.83326816558838,1.2678639888763428,6.54285764694214,-0.7950491309165956
2.472052574157715,-2.8481748104095463,8.489237785339357,0.9692403078079224,6.8839125633239755,-0.5443928241729736
-0.6341060996055604,-2.5639147758483887,5.290002346038819,0.6143422722816468,6.870038509368897,-0.3322587013244629
-1.906163811683655,-2.734632253646851,3.920526742935181,0.21908582746982577,6.600869178771973,-0.16580481827259066
-0.33663737773895264,-2.07208800315857,4.073185920715332,-0.08939683437347412,6.259228229522706,0.0542597882449627
1.91052782535553,-2.206643581390381,5.176098346710206,-0.3583050668239594,6.1039018630981445,0.3126473724842072
3.247416257858277,-2.639065742492676,6.355940818786621,-0.4868955612182617,6.172294616699219,0.5267072319984437
4.304217338562012,-3.05616307258606,7.215837478637695,-0.42563802003860474,6.350642681121827,0.7098701000213623
5.605358600616456,-2.8551411628723145,7.830883979797363,-0.2666862905025483,6.561847686767578,0.8454023599624634
6.953056812286378,-2.0026404857635502,8.058144569396974,-0.2048611342906952,6.77869749069214,0.9761021137237549
8.160484313964844,-0.7801308631896973,8.106077194213867,-0.2870074510574341,7.011052131652832,1.1607495546340945
8.883263587951662,-0.03720670938491821,8.070993423461914,-0.5115994811058046,7.229302406311035,1.3837937116622927
9.361413955688477,-0.24567675590515137,8.266021728515625,-0.7297808527946473,7.39448356628418,1.580138921737671
9.728795051574709,-0.9841222167015077,8.576042175292969,-0.8007039427757264,7.515398025512695,1.7053083181381228
10.114534378051758,-1.5937469005584717,8.983549118041992,-0.7011990547180176,7.547893524169922,1.7658876180648806
10.997518539428711,-1.8040572404861452,9.715402603149414,-0.5108901262283325,7.49445390701294,1.807831048965454
12.53602695465088,-1.2473312616348269,10.67385482788086,-0.3711420595645905,7.426477432250977,1.9140515327453613
14.238709449768068,-0.05603349208831787,11.629159927368164,-0.3361904323101044,7.380474090576172,2.090814828872681
15.431199073791506,0.1914519965648651,12.581060409545898,-0.43857377767562866,7.318968772888184,2.2451364994049077
16.550006866455078,0.03096124529838562,13.562627792358398,-0.5035242438316346,7.183359146118164,2.3493182659149174
18.85102081298828,-0.709013819694519,15.465249061584474,-0.5070716738700868,6.993260383605957,2.4091057777404785
22.684803009033203,-2.4735946655273438,17.989124298095703,-0.3338167071342468,6.900647640228272,2.4071731567382812
27.004573822021484,-3.5353224277496342,19.964820861816406,0.05438386648893356,6.943606376647949,2.3264491558074956
31.483966827392578,-1.9423174858093262,20.23667716979981,0.380973756313324,7.056798458099366,2.225335121154785
34.89500045776368,0.08063498139381409,18.061519622802734,0.24560172855854037,7.1549272537231445,2.117415428161621
35.305992126464844,-0.24493202567100525,12.92105007171631,-0.20477606356143954,7.109828948974609,1.9325841665267947
35.84624862670899,0.056734055280685425,5.368774890899659,-0.6543625593185425,6.816298484802246,1.5378526449203493
38.49918746948243,7.555219650268555,-5.1487698554992685,-1.6757164001464844,6.342356204986573,1.0643458366394043
45.78663635253906,14.726140022277834,-18.331871032714844,-4.02320146560669,5.911776542663574,0.820419192314148
53.31460189819337,5.98124885559082,-34.54071426391602,-5.446934700012207,5.564044475555421,1.2066349983215332
40.872314453125,-0.8527582287788392,-43.28729629516602,-4.317469120025636,3.428022146224976,1.2001516819000244
20.148590087890625,-4.842950820922852,-35.52272033691406,-1.9720388650894167,-0.48428577184677124,0.25674727559089666
16.114053726196293,-1.4914371967315674,-20.1556568145752,0.5336989760398866,-3.493758201599121,-1.4431109428405762
7.22430181503296,-7.417405128479004,2.171634435653687,2.90836238861084,-5.5109829902648935,-2.183443069458008
16.120235443115234,-3.9121658802032475,13.009857177734375,4.800315856933594,-5.807920455932617,-2.510102510452271
7.112848281860352,12.11448383331299,20.866390228271484,2.768738985061646,-5.434665679931641,-1.6719728708267214
3.1805243492126465,5.787905216217042,16.906080245971683,0.406777560710907,-5.480145931243897,-0.958760440349579
24.76469993591309,7.053048133850098,12.209747314453125,-0.06784997135400773,-6.061123847961426,-1.1437088251113894
39.75527572631837,8.629791259765625,23.01375770568848,0.00939624197781086,-5.240955352783203,-0.713376820087433
33.47543716430665,-1.1072731018066406,20.995824813842777,0.06388061493635179,-3.6449055671691895,-1.1291264295578005
18.615972518920902,-7.361529827117921,15.269999504089357,0.5057818293571473,-2.8612208366394043,-1.2206361293792725
10.074628829956055,-4.040944576263429,11.813541412353516,0.7057455778121948,-2.5033094882965092,-0.8601945638656616
9.859367370605469,5.366525650024414,12.235315322875977,0.7223973870277406,-2.22800087928772,-0.83617103099823
14.13902473449707,6.847127914428711,14.757193565368654,0.5943060517311097,-1.356980323791504,-1.046728014945984
9.009330749511719,-5.910665512084961,8.993676185607912,0.7094553112983705,-0.6288615465164185,-0.9502608776092529
8.611020088195803,-3.339349985122681,10.58128070831299,0.6422562599182129,-0.5867410302162172,-0.37583398818969727
6.681729793548585,3.670382499694824,11.40817642211914,0.35445538163185125,-0.31103488802909857,-0.2622222900390625
6.112666606903077,-1.7225563526153564,9.98969841003418,0.15445403754711154,-0.1900729537010193,-0.19178120791912082
4.061144351959229,-1.6488970518112185,9.728389739990234,0.05362340807914734,-0.17011444270610812,-0.0939028784632683
4.7018446922302255,-1.2770401239395144,10.041649818420412,0.027662197127938274,-0.23372715711593628,-0.1366320997476578
5.529309749603272,-1.2499456405639648,9.975168228149414,-0.0023373281583189964,-0.24110516905784607,-0.0724465921521187
4.807783603668214,-1.213307023048401,9.605400085449219,-0.01362956129014492,-0.22917746007442477,-0.06610877811908722
5.011384963989258,-1.3400804996490479,9.470869064331055,0.00678034033626318,-0.22837902605533603,-0.09851723164319993
