AccX,AccY,AccZ,GyrX,GyrY,GyrZ
8.49306888994761e-05,-1.2178239558124915e-05,0.00015815920778550208,-3.985590879551638e-08,-4.0997701944434084e-07,-2.3249937441960358e-07
4.957484722137452,-0.7425204515457153,9.237149238586428,0.0005361645016819239,-0.01850120723247528,-0.014525431208312513
4.955536365509034,-0.7359390854835511,9.26357650756836,0.003916388843208552,-0.015410542488098145,-0.015870476141572002
4.940459728240968,-0.7231868505477905,9.260855674743654,0.007313132286071777,-0.014179204590618612,-0.016668038442730907
4.9193315505981445,-0.7234070897102357,9.290767669677734,0.009105410426855087,-0.013200576417148115,-0.018754828721284866
4.9249372482299805,-0.6899489164352417,9.31311893463135,0.009457240812480451,-0.013632086105644705,-0.01973908394575119
4.967963218688965,-0.6733234524726869,9.311657905578615,0.0073589938692748555,-0.014679010957479477,-0.018159115687012676
4.956678867340089,-0.6641465425491333,9.313379287719727,0.0035312289837747817,-0.014558825641870499,-0.015696905553340912
4.992238521575929,-0.6880261301994325,9.300848007202148,0.001157031976617873,-0.012095116078853607,-0.012355643324553968
4.945101261138917,-0.680321216583252,9.278286933898928,0.001987840281799436,-0.011442405171692373,-0.00958058051764965
4.958827972412109,-0.6668821573257446,9.281936645507812,0.00039186209323816007,-0.010337647050619125,-0.007571446243673564
4.906878948211671,-0.7171337604522705,9.280771255493164,-0.001766324508935213,-0.008907654322683813,-0.007434922736138106
4.902599334716797,-0.7579346895217896,9.307270050048828,0.0013440084876492622,-0.012046925723552704,-0.010512077249586584
4.91434144973755,-0.7187224626541138,9.333899497985842,0.0031272456981241703,-0.014156658202409744,-0.013312765397131445
4.937651634216309,-0.6853669881820679,9.305932998657227,0.0014638740103691816,-0.017020976170897487,-0.014025313779711723
4.940486431121827,-0.7212417721748353,9.324791908264162,0.0013316968688741329,-0.017813216894865036,-0.013554045930504799
4.933101654052734,-0.676511585712433,9.313791275024414,0.0014999567065387964,-0.02063143812119961,-0.013487257063388824
4.964966773986816,-0.6841875314712524,9.303268432617188,0.0038781168404966597,-0.01854650862514973,-0.012208258733153343
4.9792141914367685,-0.7088442444801332,9.283069610595703,0.0005784578970633448,-0.01565396785736084,-0.009776963852345945
4.9651551246643075,-0.7304010391235352,9.29942512512207,0.001448486582376063,-0.014911271631717682,-0.011400170624256134
4.958067893981934,-0.7151515483856201,9.278823852539062,0.0011922409757971764,-0.011474859900772573,-0.009771663695573807
4.953966617584229,-0.689231276512146,9.295596122741701,0.0034411936067044735,-0.009196659550070763,-0.010391418822109701
4.9673428535461435,-0.6968353986740112,9.300072669982912,0.004838904831558467,-0.0056827981024980545,-0.011339166201651098
4.931720733642578,-0.6878773570060731,9.290365219116211,0.003914974164217711,-0.006078649312257767,-0.0114821195602417
4.949272632598878,-0.7065621614456177,9.284807205200195,0.0029376205056905746,-0.0063494942151010045,-0.010904500260949135
4.938699245452882,-0.6973178982734681,9.28028678894043,0.0028131227008998394,-0.006048338487744331,-0.011354689486324789
4.95265007019043,-0.6831130981445312,9.294532775878906,0.004206661600619555,-0.004380186088383198,-0.008649243973195555
4.935335159301758,-0.6737536787986756,9.318828582763672,0.00029324652859941125,-0.005321886856108905,-0.008759290911257269
4.9393463134765625,-0.7144633531570435,9.283740043640138,0.0004392495029605925,-0.0066633238457143315,-0.008668884634971619
4.966383934020996,-0.6895977258682251,9.298066139221193,0.0005355614703148603,-0.006430658511817455,-0.010544265620410444
4.956602096557617,-0.7029635906219482,9.305402755737305,0.0010153688490390778,-0.005197183694690467,-0.00788152776658535
4.9501447677612305,-0.6951985359191895,9.28261947631836,5.430979945231229e-05,-0.006738026160746814,-0.007812674157321455
4.946150779724121,-0.7020114064216615,9.277751922607422,-9.21312312129885e-06,-0.003996146377176047,-0.007560493424534798
4.918750286102296,-0.7078056335449219,9.28542995452881,0.0037283445708453655,-0.005355703644454479,-0.008905130438506605
4.944964885711671,-0.7245879173278809,9.304322242736818,0.003921767231076957,-0.0030000475235283375,-0.010376990772783758
4.915148735046387,-0.7043410539627075,9.287655830383303,0.00438692606985569,-0.005200760904699565,-0.011526274494826795
4.884129524230957,-0.7084714770317079,9.251269340515138,0.004282054491341114,-0.006427516695111991,-0.01198255829513073
4.889759063720703,-0.7005089521408081,9.286520004272461,0.0049192532896995544,-0.009960919618606567,-0.014181762002408506
4.917619228363038,-0.672920048236847,9.29366970062256,0.001066405442543328,-0.012831147760152817,-0.012919562868773939
4.918870449066163,-0.6322890520095825,9.349714279174805,-0.0014444900443777444,-0.016262643039226532,-0.011227145791053772
4.933597564697266,-0.6818921566009521,9.322289466857912,-0.00427851639688015,-0.016558131203055385,-0.008820639923214912
4.932303905487061,-0.7283373475074769,9.298566818237305,-0.00506308488547802,-0.019545909017324448,-0.00916839484125376
4.919116497039796,-0.7347130179405214,9.28584098815918,-0.004941519349813461,-0.019203634932637218,-0.010936029255390167
4.919194221496582,-0.7613813877105713,9.299299240112305,-0.0009657441405579448,-0.01992144994437695,-0.013114032335579397
4.964434623718262,-0.6959438323974609,9.257699966430664,0.0015047466149553659,-0.02000315859913826,-0.015318394638597967
4.980337619781495,-0.6696233749389648,9.30002212524414,-0.0008946413290686906,-0.01845072023570538,-0.012949328869581223
4.961346149444581,-0.6927109360694886,9.260562896728516,-0.0009379463153891266,-0.01602073386311531,-0.011666121892631056
4.930464267730714,-0.6953189373016357,9.289601325988771,0.0028021535836160183,-0.013637713156640531,-0.012930088676512243
4.905216217041016,-0.6986898183822632,9.304339408874513,0.0008223358308896422,-0.013902070932090284,-0.013032237067818642
4.924406528472901,-0.6959000825881958,9.300473213195803,0.0006658246275037527,-0.017909318208694458,-0.014339146204292776
4.942924022674561,-0.67625892162323,9.33267593383789,-0.000994567875750363,-0.01864476129412651,-0.012803516350686552
4.9334716796875,-0.6846068501472474,9.317103385925295,-0.0032089650630950928,-0.019983800128102306,-0.013457327149808409
4.945136070251465,-0.7004411220550537,9.27093505859375,-0.003991512581706047,-0.021222265437245372,-0.010811956599354744
4.936155796051026,-0.7338584661483765,9.282485008239748,-0.0024808051530271773,-0.020165523514151577,-0.013004867359995842
4.977188587188722,-0.7060953378677368,9.293529510498047,-0.0025456824805587534,-0.01843051239848137,-0.012428709305822851
4.957813262939453,-0.7157664895057679,9.262761116027834,-0.0008661867468617858,-0.018266744911670685,-0.011020772159099579
4.95843267440796,-0.684799611568451,9.288686752319336,-0.0014774580486118793,-0.01544200722128153,-0.012243609875440598
4.992664813995362,-0.6871703267097474,9.303606033325195,0.00043546344386413693,-0.013896996155381203,-0.01214218605309725
4.967479705810547,-0.6882060170173646,9.302270889282227,0.0018503661267459393,-0.01306296791881323,-0.010773783549666405
4.937223434448242,-0.7226274013519287,9.286918640136719,0.002903662621974945,-0.008490667678415777,-0.010664463974535467
4.934487819671632,-0.701268196105957,9.292112350463867,0.0030531049706041813,-0.0083904592320323,-0.01202506385743618
4.941071510314941,-0.6750698685646058,9.271604537963867,0.0033099793363362555,-0.00800889451056719,-0.01192425936460495
4.935118198394776,-0.6870063543319702,9.25938606262207,0.0018722808454185724,-0.008649121038615705,-0.011225009337067604
4.920643329620362,-0.6902676820755005,9.303444862365724,0.0010911268182098866,-0.010748968459665777,-0.011756303720176222
4.950548648834229,-0.6691847443580629,9.313351631164553,-0.002261502901092172,-0.013068024069070816,-0.009766531176865103
4.966960430145265,-0.6840542554855347,9.27996349334717,-0.0020499355159699917,-0.012527525424957275,-0.008538731373846533
4.963046073913574,-0.7096443176269531,9.299349784851076,-0.0006267071585170926,-0.010057203471660614,-0.00908560957759619
4.964000701904297,-0.6866297125816346,9.291732788085938,-0.0009443173184990883,-0.009386372752487661,-0.008813365362584593
4.950920104980469,-0.7103710174560547,9.282887458801271,-0.00048818290815688675,-0.010139644145965576,-0.009966722689568998
4.952489852905273,-0.6736385226249696,9.291651725769045,0.0010580786038190126,-0.007619957439601421,-0.009325151331722738
4.9438748359680185,-0.6789032816886903,9.306118965148928,0.0006283625843934716,-0.006447292864322662,-0.009778154082596304
4.909965515136719,-0.7048840522766113,9.264348030090334,0.002405231120064855,-0.006839052774012089,-0.008158821612596512
4.900743007659913,-0.7221277952194214,9.272315025329592,0.0025777816772460938,-0.0107048312202096,-0.010022792965173721
4.887154579162598,-0.7049878835678101,9.326600074768068,0.001962129725143314,-0.014927187003195288,-0.01196875236928463
4.9385647773742685,-0.6606762409210205,9.31775760650635,-0.001832115580327809,-0.019038125872612,-0.011345013044774534
4.955155372619629,-0.7048504948616029,9.301226615905763,-0.005000554956495762,-0.019606044515967373,-0.011298709549009802
4.936790943145753,-0.7027648687362671,9.291541099548342,-0.003837525146082044,-0.022010214626789093,-0.01162777189165354
4.969440460205078,-0.6941060423851014,9.277005195617678,-0.005908334162086249,-0.02140031568706036,-0.01126730628311634
4.982378005981445,-0.7239896059036255,9.274947166442873,-0.001930157421156764,-0.019523086026310924,-0.012093674391508102
4.968616008758546,-0.7006112933158876,9.27293109893799,-0.002956647658720613,-0.01715027168393135,-0.01058080792427063
4.959761142730714,-0.7070189714431763,9.285223960876467,-0.0003206414985470474,-0.014479567296803,-0.010756857693195343
4.97162675857544,-0.6838729381561279,9.25328254699707,0.0007383502088487148,-0.012635545805096626,-0.011118008755147459
4.9463911056518555,-0.6852420568466187,9.253973960876467,0.0010082524968311193,-0.01007414422929287,-0.011876090429723265
4.939248561859132,-0.7095367312431337,9.284839630126953,0.0014830158324912193,-0.010133825242519379,-0.01071598008275032
4.948054790496827,-0.7066724300384521,9.321548461914062,0.001138231600634754,-0.011703070253133774,-0.011412641964852812
4.968420028686523,-0.6737537384033203,9.292691230773928,0.0015635443851351738,-0.012948881834745407,-0.01157191675156355
4.969402790069581,-0.6839139461517334,9.29497814178467,-0.001487000961787999,-0.012617841362953186,-0.010016116313636305
4.971930980682374,-0.6789718866348267,9.280323028564453,-0.0009566665976308287,-0.012068646028637886,-0.01021534577012062
4.959312438964844,-0.6936115026473999,9.302064895629883,-0.0007191285258159041,-0.012101261876523496,-0.009478209540247917
4.935360908508301,-0.7158821821212769,9.298913955688477,-0.0016520655481144788,-0.012530432082712652,-0.012031184509396553
4.965184211730957,-0.713565766811371,9.278924942016602,-0.0005439679371193051,-0.01404713746160269,-0.011155528947710991
4.968509674072266,-0.6783124208450317,9.297630310058594,-0.0018395226215943696,-0.014351358637213707,-0.01167856901884079
4.958425521850586,-0.6813557147979736,9.286229133605959,-0.0027602147310972214,-0.014298162423074247,-0.010595915839076042
4.9598846435546875,-0.7048751711845399,9.280702590942383,0.0006247195415198803,-0.012157874181866646,-0.010352392680943014
4.953237533569336,-0.708925724029541,9.269475936889648,0.0011820347281172874,-0.013531839475035667,-0.010525292716920378
4.94117021560669,-0.7057849764823915,9.26826286315918,-0.0005731898709200324,-0.011582689359784126,-0.011891113594174385
4.950174331665039,-0.6789638996124268,9.3043212890625,-0.001312068896368146,-0.01202110666781664,-0.01140635833144188
4.959040164947511,-0.6990482807159424,9.316827774047852,-0.0013052187860012054,-0.01362781971693039,-0.010895437560975553
4.951773166656495,-0.6871758699417114,9.273693084716797,0.0023465645499527454,-0.012262444011867048,-0.01020088978111744
4.9678544998168945,-0.6821212172508241,9.27869510650635,0.000872243894264102,-0.011762426234781744,-0.009581650607287885
4.94849443435669,-0.7081801891326904,9.29930305480957,-0.00010843084601219743,-0.010699081234633924,-0.009226284921169281
4.9738831520080575,-0.7097004652023315,9.277935028076172,0.0018386028241366148,-0.009027451276779175,-0.009179900400340559
4.971508026123047,-0.7179678082466127,9.299721717834474,0.0014467911096289756,-0.006825094111263752,-0.009843199513852598
4.928551197052003,-0.7122019529342651,9.290894508361818,0.0029427395202219486,-0.006380134727805854,-0.010032459162175657
4.926344394683839,-0.7055891752243042,9.273169517517092,0.0025179570075124507,-0.006925841793417931,-0.010070535354316236
4.920592784881593,-0.693108081817627,9.263845443725586,0.004631105344742537,-0.007603331934660674,-0.011184198781847954
4.939330101013184,-0.6979590654373169,9.32781982421875,0.0009314428316429257,-0.010330236516892912,-0.011561587452888489
4.976050853729249,-0.6843573451042176,9.328512191772461,-0.00010667807509889828,-0.01219521276652813,-0.009847505018115044
4.953103065490723,-0.6891770362854004,9.281844139099123,-0.000600260973442346,-0.012404277920722961,-0.00938456039875746
4.975045204162598,-0.6738660335540771,9.309197425842287,-0.0013814643025398254,-0.011025644838809967,-0.009750409983098509
4.962834835052491,-0.6884467601776123,9.289454460144045,-0.0014559490373358133,-0.009215665981173515,-0.006894016172736884
4.933692455291749,-0.7076219320297241,9.274356842041016,0.0006695982301607728,-0.008835419081151487,-0.007862624712288381
4.934370517730714,-0.7402304410934448,9.294714927673342,0.002048715250566602,-0.010947931557893753,-0.011663160286843778
4.955491065979004,-0.710332214832306,9.331915855407717,0.0005892929621040821,-0.0092636588960886,-0.012070343829691412
4.960414886474609,-0.6757102012634277,9.282485008239748,0.0005470113246701659,-0.010789895430207253,-0.012079228647053243
4.955832481384277,-0.6981590986251831,9.26207160949707,0.0008952121715992689,-0.008923309855163099,-0.010390563867986204
4.91028928756714,-0.7084958553314209,9.29534912109375,0.002527596196159721,-0.007880190387368202,-0.010184899903833868
4.9317216873168945,-0.7252396941184999,9.281176567077638,0.0031427510548383,-0.009951741434633734,-0.011025145649909973
4.940702438354492,-0.6728789806365967,9.292383193969727,0.002431199885904789,-0.013168246485292913,-0.011951953172683716
4.960168838500977,-0.6636571884155273,9.305016517639162,0.00036030143382959073,-0.01153629831969738,-0.01064438745379448
4.954689979553223,-0.6691320538520814,9.287655830383303,-0.0011598007986322047,-0.013300394639372826,-0.008502134121954443
4.963129520416261,-0.6773284077644349,9.2984619140625,-0.0018537434516474607,-0.011893753893673422,-0.008771119639277458
4.98161268234253,-0.6910960674285889,9.289213180541992,-0.0009802128188312054,-0.010181465186178686,-0.008894292637705803
4.9711670875549325,-0.7020795345306396,9.26755142211914,-0.000973234244156629,-0.007010611705482006,-0.0075933076441287994
4.959697246551515,-0.6870422959327699,9.313167572021484,0.0010250217746943235,-0.0023106362204998736,-0.005980206653475761
4.954778194427491,-0.7153578996658325,9.283342361450195,0.0005384261603467168,-0.003230679547414184,-0.007751457393169403
4.937501907348633,-0.683692455291748,9.291117668151857,-0.0010865952353924513,-0.002789017511531711,-0.008194826543331146
4.917645931243897,-0.7088178396224976,9.293124198913576,-0.00025945095694623893,-0.0062398966401815414,-0.008028671145439148
4.944089889526367,-0.6986294388771058,9.308540344238281,0.0009260508231818676,-0.004869280848652125,-0.008678460493683815
4.939529895782472,-0.699686110019684,9.297002792358398,-0.0005972712533548474,-0.006258813664317131,-0.008637820370495321
4.944944858551026,-0.6886383295059204,9.286761283874513,-0.0004203618445899338,-0.006278377026319504,-0.009052139706909658
4.935842514038086,-0.7269167304039003,9.31442165374756,-0.0007043809746392072,-0.0062466757372021675,-0.009187515825033188
4.946350574493409,-0.6831282377243042,9.31713390350342,0.0010888893157243729,-0.007166083436459304,-0.008845837786793709
4.965899944305421,-0.6740449070930482,9.311644554138185,-0.000769437407143414,-0.006357423961162567,-0.006623981054872275
4.941191196441651,-0.6974859237670898,9.269812583923342,-0.003818078897893429,-0.007134708110243083,-0.004478419199585915
4.930385589599609,-0.7157836556434632,9.27041244506836,-0.0038836242165416483,-0.004246382974088192,-0.004140913486480713
4.9238553047180185,-0.6875734329223633,9.301290512084961,-0.0030807044822722678,-0.009070917963981628,-0.005262431222945453
4.953941345214844,-0.675182580947876,9.27655029296875,-0.0029757053125649695,-0.007679721806198359,-0.005900532938539982
4.928787708282472,-0.6821422576904297,9.292992591857912,-0.004371265415102244,-0.009817743673920631,-0.003912235144525767
4.932531356811523,-0.6912829875946045,9.27534294128418,-0.004029149189591408,-0.006693718489259482,-0.00426339963451028
4.8960065841674805,-0.7173240780830384,9.276712417602539,-0.003565698163583875,-0.006443670950829983,-0.005628751125186683
4.919649124145508,-0.7289600968360902,9.304062843322756,-0.002181229181587696,-0.010457005351781845,-0.007594058755785228
4.909324645996094,-0.7245825529098511,9.326417922973633,-0.002577155362814665,-0.00940754357725382,-0.009620167315006256
4.945281505584718,-0.6828868389129639,9.306564331054688,-0.004207754041999579,-0.01221889816224575,-0.008169196546077728
4.93404245376587,-0.6782509684562684,9.31400775909424,-0.0063419826328754425,-0.014934440143406393,-0.008167056366801262
4.926532745361328,-0.723824441432953,9.293478012084961,-0.0057350024580955505,-0.014049354940652847,-0.008166587911546232
4.954212665557862,-0.694312870502472,9.266808509826662,-0.0054395766928792,-0.014444886706769468,-0.009045898914337158
4.9170331954956055,-0.718114197254181,9.281117439270021,-0.005216821096837521,-0.013163083232939245,-0.0074444408528506765
4.926420211791992,-0.7094643712043763,9.3097620010376,-0.0029290423262864356,-0.012418845668435097,-0.009030624292790891
4.911461353302003,-0.7287101745605469,9.310835838317873,-0.0035176556557416916,-0.014962790533900261,-0.011283173225820066
4.9556241035461435,-0.690221130847931,9.28358268737793,-0.004030612297356129,-0.015360669232904913,-0.01071755588054657
4.949477672576905,-0.7094303369522095,9.279598236083984,-0.005378595553338528,-0.014900724403560163,-0.011738906614482405
4.969715118408203,-0.7199671268463135,9.30388927459717,-0.001838126452639699,-0.011520513333380224,-0.011664630845189095
4.968970775604249,-0.7097780704498291,9.281303405761719,0.0014364935923367739,-0.010101834312081337,-0.011384977959096433
4.922422885894776,-0.7338367700576782,9.285376548767092,0.003524565370753408,-0.007726811803877354,-0.010265416465699674
4.916141033172608,-0.7618110179901123,9.311115264892578,0.005091254599392414,-0.010062650777399542,-0.012901500798761846
4.950499534606934,-0.6940542459487915,9.2799768447876,0.007240272592753173,-0.008462127298116684,-0.013525129295885565
4.932673454284668,-0.6910582184791566,9.308888435363771,0.006170305889099837,-0.007001486141234637,-0.013237759470939636
4.9371442794799805,-0.6750264167785645,9.285795211791992,0.005027293227612972,-0.008993382565677168,-0.010133842006325722
4.947959899902344,-0.6848198175430298,9.264383316040039,0.0029534783679991965,-0.008880140259861946,-0.010147754102945328
4.959159374237061,-0.699877142906189,9.325732231140138,0.00190702045802027,-0.009201901033520699,-0.009000384248793127
4.931820869445801,-0.7165662050247192,9.291040420532227,0.003096017986536026,-0.008948598057031631,-0.008047834970057012
4.936667442321777,-0.6920510530471802,9.304814338684084,0.0007399043533951044,-0.0130196874961257,-0.008596071973443031
4.963757991790772,-0.703101933002472,9.292101860046388,-0.001042395830154419,-0.012630560435354711,-0.0078100678510963925
4.959370136260987,-0.6843664646148682,9.319372177124023,-0.002027177950367332,-0.014225730672478676,-0.00601852359250188
4.940577030181886,-0.6435580253601074,9.289419174194336,-0.0037490250542759895,-0.016072195023298264,-0.006095550488680602
4.95689582824707,-0.726154386997223,9.294451713562013,-0.005072225350886584,-0.012580135837197304,-0.0048124813474714765
4.978860378265382,-0.6984939575195312,9.299442291259766,-0.003851098008453846,-0.01051315199583769,-0.0043220394290983686
4.953777313232422,-0.7151697874069214,9.255992889404297,-0.0010044665541499853,-0.0057449047453701505,-0.005612285807728767
4.961618423461914,-0.6940669417381288,9.28074836730957,0.0010931141441687944,-0.0024639351759105925,-0.005574454553425312
4.968252182006836,-0.757874608039856,9.265254974365234,0.0058926427736878395,0.001344842719845474,-0.007215038873255253
4.977246761322022,-0.6600627899169922,9.291463851928711,0.005524584092199802,0.005223226267844439,-0.007509878370910884
4.928736209869386,-0.7776929140090942,9.273902893066406,0.005009816959500313,0.004839023109525443,-0.00970291718840599
4.923210620880128,-0.71270751953125,9.321916580200195,0.007491167169064284,0.00449079042300582,-0.011727401986718178
4.91657590866089,-0.707327127456665,9.302050590515138,0.008088714443147184,0.004570300690829754,-0.010762657038867475
4.928532123565675,-0.7013826370239258,9.277920722961428,0.00909525714814663,0.0028745897579938178,-0.011277898214757444
4.921529293060304,-0.6668839454650879,9.29613780975342,0.00603695772588253,0.003785204375162721,-0.011481698602437973
4.914649963378906,-0.710376501083374,9.318901062011719,0.007339732255786658,0.0030306091066449885,-0.00927245244383812
4.911372184753418,-0.6941972374916078,9.318401336669922,0.004826224409043789,0.0007166731520555915,-0.0113024041056633
4.946125030517578,-0.6826004981994629,9.304588317871094,0.0034452625550329685,-0.0007848734385333956,-0.01339675020426512
4.943992614746094,-0.6761749982833862,9.315958976745607,0.004485659301280975,-0.0017128601903095844,-0.011265404522418976
4.943216800689698,-0.7058501243591309,9.27578353881836,0.003724449081346393,1.0515607755223756e-05,-0.007887464016675949
4.8355817794799805,-0.7226431965827943,9.286177635192873,0.005300451535731555,-0.001637500012293458,-0.010710240341722967
4.859597682952882,-0.7197405099868774,9.313025474548342,0.00580535177141428,-0.0071470397524535665,-0.01621302776038647
4.894514083862305,-0.7199305295944214,9.308102607727053,0.004016905091702938,-0.01034666132181883,-0.016042638570070267
4.9130005836486825,-0.6014220118522645,9.323697090148928,0.0029986158479005103,-0.01657642610371113,-0.017290960997343063
4.937584400177003,-0.625625491142273,9.314379692077638,-0.003299593692645431,-0.015917543321847916,-0.011931722052395346
4.943970203399659,-0.6878688335418701,9.283027648925781,-0.0053170337341725835,-0.017068661749362946,-0.01001826860010624
4.916077613830566,-0.7087772488594056,9.269318580627443,-0.004760895390063525,-0.015196630731225014,-0.008944078348577024
4.919916152954102,-0.7376579642295839,9.264550209045412,-0.0016580168157815933,-0.015109369531273842,-0.010482105426490309
4.895451545715332,-0.7383432388305664,9.28277111053467,-0.0009978631278499963,-0.01667799800634384,-0.013957365415990354
4.9092984199523935,-0.7106671929359437,9.32274913787842,-0.001979342196136713,-0.015902968123555187,-0.01588118635118008
4.925712108612061,-0.686381459236145,9.304914474487305,-0.003867127234116197,-0.019935619086027145,-0.016356481239199642
4.891098499298097,-0.6816024780273438,9.30363655090332,-0.005240206606686115,-0.02096668630838394,-0.014753728173673155
4.8647356033325195,-0.7042304277420044,9.262910842895508,-0.0037055530119687323,-0.02391967549920082,-0.016344623640179638
4.928842067718507,-0.7274743914604188,9.325764656066896,-0.003953373990952969,-0.027782296761870388,-0.017391433939337734
4.9377102851867685,-0.7452044486999512,9.288951873779297,-0.0020879402291029696,-0.028616052120923996,-0.01810996048152447
4.948480129241944,-0.6621795892715454,9.298716545104982,-0.0015970217064023018,-0.029298800975084305,-0.018435807898640636
5.0107436180114755,-0.7047317028045654,9.271336555480959,-0.0014668330550193787,-0.028163848444819454,-0.01699165627360344
4.997679233551026,-0.7007403969764711,9.285341262817383,0.001261443831026554,-0.020537240430712703,-0.0164561290293932
4.963763713836671,-0.7095828056335449,9.2608642578125,0.00633423449471593,-0.016518987715244293,-0.014637832529842855
4.9044294357299805,-0.7169358730316162,9.295930862426758,0.007826882414519789,-0.014541129581630232,-0.017063457518815994
4.95623540878296,-0.7326905727386475,9.322499275207521,0.009393526241183281,-0.013948255218565466,-0.01802252233028412
4.966038703918457,-0.7260282039642334,9.291115760803224,0.010010594502091408,-0.012692199088633062,-0.019065583124756817
4.941542148590089,-0.7038076519966127,9.266860008239748,0.012895840220153333,-0.007843131199479103,-0.01969092153012753
4.91673231124878,-0.6647568941116333,9.301065444946289,0.011873395182192327,-0.012710721231997015,-0.020531754940748215
4.935955047607422,-0.7133773565292358,9.320821762084961,0.00619808305054903,-0.014080758206546308,-0.018992602825164795
4.957721710205078,-0.6921544075012207,9.311156272888185,0.008114779368042946,-0.014987108297646047,-0.019980238750576976
4.986797332763672,-0.683455228805542,9.314473152160646,0.007507060188800097,-0.013059278950095177,-0.017013901844620708
4.971235752105714,-0.6813831329345703,9.283154487609865,0.006305442657321692,-0.007198240142315627,-0.01585569605231285
4.997105598449707,-0.6573147773742676,9.290731430053711,0.01186033245176077,-0.003957262262701988,-0.01564440689980984
4.950787067413331,-0.6651937961578369,9.254059791564943,0.011700245551764967,0.0005461695836856961,-0.013100400567054749
4.9707093238830575,-0.6747108101844789,9.29874038696289,0.010215386748313904,0.0015436116373166444,-0.0127662792801857
4.924111843109132,-0.7044966816902162,9.292906761169435,0.011901940219104292,0.0032435145694762473,-0.012273672968149185
4.913480758666992,-0.7064512968063354,9.283288002014162,0.013812383636832237,0.0024720614310354,-0.013872765004634857
4.867175102233887,-0.6737566590309144,9.338257789611818,0.011812436394393446,-0.004865906201303005,-0.01863982155919075
4.9779815673828125,-0.6306766271591187,9.312173843383789,0.007980861701071264,-0.006908100098371506,-0.013998894952237608
4.951467037200929,-0.6004246473312378,9.288821220397951,0.0028542238287627697,-0.007656322792172432,-0.011778078041970732
4.911517143249512,-0.6819467544555664,9.323758125305178,0.0011958122486248615,-0.008515506982803345,-0.00933163892477751
4.9160733222961435,-0.691594421863556,9.322384834289553,0.0036798750516027216,-0.011888803914189339,-0.011462802067399025
4.905926704406738,-0.6821004152297974,9.303125381469727,0.004797227680683136,-0.01176190096884966,-0.012474516406655312
4.896012306213379,-0.6387833952903749,9.340748786926271,0.0032129124738276005,-0.013118119910359383,-0.013986115343868734
4.926363468170167,-0.6961303353309632,9.302802085876467,-0.0007425517542287707,-0.014569063670933248,-0.014587810263037682
4.921607494354249,-0.6654930114746094,9.282961845397951,-0.001135492930188775,-0.015646291896700863,-0.014374800957739355
4.926939964294434,-0.7062622904777528,9.291574478149414,0.0011691827094182374,-0.01736554503440857,-0.013911473564803602
4.96498727798462,-0.6632723212242128,9.28671169281006,0.0062646763399243355,-0.014840466901659966,-0.015956623479723934
4.925366401672363,-0.6439797282218934,9.275729179382326,0.003708352101966739,-0.01412271335721016,-0.01589528657495976
4.920422077178956,-0.7347448468208314,9.297717094421388,0.0023716290015727286,-0.013769049197435379,-0.014710988849401474
4.9562177658081055,-0.7020601630210878,9.300360679626467,0.0039075808599591255,-0.014964749105274679,-0.016628652811050415
4.910163879394531,-0.7043752074241639,9.291631698608398,0.0028895330615341663,-0.014280548319220543,-0.015196767635643484
4.919568061828613,-0.662441909313202,9.316244125366211,0.004431209526956081,-0.016753112897276882,-0.018283091485500336
4.941413879394531,-0.6762692928314209,9.299989700317383,0.00470396876335144,-0.01707297004759312,-0.019924273714423183
4.973289489746094,-0.6440385580062866,9.28515148162842,0.003239380428567529,-0.016995932906866074,-0.018108716234564785
5.007483959197999,-0.624763011932373,9.300997734069826,0.004718390293419361,-0.010693803429603577,-0.015451998449862005
4.966420650482179,-0.6501711010932923,9.29607677459717,0.0024679619818925858,-0.007044512312859298,-0.011510472744703293
4.946385860443116,-0.651645302772522,9.275466918945312,0.004094531293958426,-0.006864345632493496,-0.010980229824781418
4.940232753753663,-0.6363176703453065,9.304440498352053,0.0018870782805606725,-0.005506414920091629,-0.008245174773037435
4.884696960449219,-0.665237545967102,9.311775207519531,0.0017197574488818645,-0.006624467670917511,-0.009906760416924955
4.922701358795167,-0.7224002480506898,9.323876380920412,0.0005520992563106121,-0.011381411924958229,-0.011563257314264776
4.924919128417969,-0.6156309247016908,9.31736469268799,-0.0033772182650864124,-0.016191190108656887,-0.011359517462551596
4.972760677337647,-0.5945980548858643,9.298233032226562,-0.0073270974680781364,-0.016079513356089595,-0.008108636364340782
4.992918014526367,-0.6621919870376587,9.27096462249756,-0.00838540494441986,-0.013260437175631523,-0.003151472890749574
4.994250774383546,-0.7061042189598085,9.281857490539553,-0.008436936885118484,-0.007565213833004237,-0.0016458651516586542
4.994819641113281,-0.6441348791122437,9.303038597106935,-0.005211380776017905,-0.004685576073825359,-0.0016120646614581347
4.987038135528565,-0.6625970602035522,9.298253059387209,-0.006652947049587966,-0.0011755060404539108,0.0002181703894166276
4.949077606201172,-0.6809813976287842,9.304981231689453,-0.006010067183524371,-0.0003219772188458592,-0.00031592673622071743
4.969914436340332,-0.6051854491233827,9.315443992614748,-0.008991057984530927,0.002643805928528309,1.167490063380683e-05
4.988222122192383,-0.5930482149124146,9.324012756347656,-0.013451400212943556,0.00520201213657856,0.005315035581588745
4.984260559082031,-0.6752849221229554,9.302797317504883,-0.013103784993290901,0.009026096202433111,0.010202055796980858
5.013971328735352,-0.6701982617378236,9.320695877075195,-0.012156954966485502,0.012161468155682089,0.00986841693520546
5.051993370056152,-0.6452425122261048,9.307605743408203,-0.010427190922200682,0.02018294483423233,0.013998762704432012
5.069083690643311,-0.616220772266388,9.307088851928711,-0.009230117313563825,0.0319937989115715,0.020579803735017776
4.772897243499757,-0.6453787088394165,9.152965545654297,-0.006593725644052029,0.03898636624217034,0.02407994493842125
4.553319931030273,-0.9832133054733276,9.386604309082031,-0.013192501850426199,0.018196659162640575,0.011562265455722809
4.75544023513794,-0.7257309556007386,9.364246368408203,-0.008570017293095589,-0.0025144095998257403,-0.00021237778128124774
4.823230266571046,-0.6506537199020386,9.374073982238771,-0.01731136441230774,-0.015197026543319227,0.001183243817649782
4.897391319274902,-0.6782299876213075,9.318547248840334,-0.020130259916186336,-0.02258310094475746,-0.001772044342942536
4.939015865325929,-0.6566249132156372,9.30155658721924,-0.021080050617456436,-0.022301290184259415,-0.0009713133913464845
4.925909996032715,-0.6935908794403076,9.307025909423828,-0.023719692602753643,-0.02247381955385208,0.0005713417776860298
4.926305294036866,-0.7630636096000672,9.312837600708008,-0.020872008055448532,-0.02152165584266186,-0.0008154460811056198
4.970544815063477,-0.7054399251937866,9.296177864074709,-0.01799094118177891,-0.020100440829992294,-0.0013886574888601901
4.989592075347901,-0.6556285023689271,9.288022994995117,-0.020167583599686626,-0.01689117215573788,0.0011912966147065163
4.982686996459961,-0.6853225827217103,9.303682327270508,-0.022315969690680507,-0.011808028444647789,0.006398898083716632
4.959763526916504,-0.7302582263946533,9.297224044799805,-0.01916433870792389,-0.007239469792693854,0.008664115332067015
4.9382734298706055,-0.7233045101165771,9.268484115600586,-0.015817314386367798,-0.0032308709342032675,0.007970105856657028
4.911078929901124,-0.7735343575477601,9.276759147644045,-0.012145976535975935,-0.00012216869799885902,0.006985208950936794
4.877481460571289,-0.794134259223938,9.30233383178711,-0.007968781515955925,0.0002919644757639617,0.004202139563858509
4.858261585235597,-0.7834448218345643,9.352259635925295,-0.005356636829674244,-0.003769910661503673,-0.0014225080376490953
4.93676519393921,-0.7152579426765443,9.279917716979982,-0.005397088825702667,-0.007266229484230281,-0.0039518894627690315
4.955798149108887,-0.6633333563804628,9.333327293395998,-0.006141146179288627,-0.0021916904952377085,-0.0018233254086226225
4.9450345039367685,-0.7354565858840942,9.298711776733398,-0.005109595600515605,0.00013026446686126292,-0.00015355627692770216
4.948292255401612,-0.7239606976509095,9.301454544067383,-0.0025785276666283607,0.005942304152995349,-6.161492638057099e-05
4.939105510711671,-0.7001442909240723,9.324930191040039,-0.0026136331725865607,0.006339757703244686,0.0033486604224890475
4.920391082763672,-0.7330513000488281,9.325851440429688,-0.004713099449872971,0.008629634976387024,0.004214575048536063
4.946692943572999,-0.7047514915466309,9.298519134521484,-0.0023609788622707133,0.011469997465610504,0.005271843168884517
4.897095203399659,-0.7237293124198915,9.306388854980469,-0.0015521597815677526,0.013280706480145454,0.007654847577214241
4.8914337158203125,-0.7356778383255005,9.318136215209961,0.0008814982720650734,0.01429813727736473,0.006367474328726531
4.944348812103272,-0.6946545243263246,9.305126190185547,0.001724632689729333,0.01608225703239441,0.0071850656531751165
4.992545127868652,-0.6888847351074219,9.287203788757326,-0.0009284111438319087,0.020460890606045726,0.011890653520822525
4.985714912414551,-0.7232559323310853,9.30593490600586,0.002541493391618133,0.029886983335018158,0.015400076285004616
5.010426998138429,-0.698735237121582,9.29921627044678,0.008975350297987463,0.040328748524188995,0.01837234012782574
5.069510936737061,-0.648841679096222,9.274003982543945,0.015104537829756737,0.05420888215303421,0.022656759247183803
5.02198362350464,-0.7106512784957886,9.322029113769531,0.018627153709530834,0.07296115159988403,0.026874499395489696
5.002154350280762,-0.6489362120628358,9.338839530944826,0.02510783076286316,0.08258070796728136,0.03129590675234795
4.905872821807862,-0.7215614318847656,9.295875549316406,0.02769691310822964,0.09223665297031403,0.037390042096376426
4.806565761566163,-0.774439036846161,9.309636116027834,0.03033053316175938,0.09598793834447862,0.03707578033208847
4.692610740661621,-0.9003509879112245,9.351729393005373,0.03624746575951577,0.08772185444831848,0.029724037274718288
4.726206302642823,-0.8690540194511415,9.361012458801271,0.040997754782438285,0.07790875434875488,0.018378369510173798
4.676149368286133,-0.8273618221282959,9.371304512023928,0.04135002568364144,0.06719967722892761,0.010476208291947843
4.708705425262452,-0.8029341697692871,9.37705707550049,0.04425691068172455,0.054049715399742126,0.0014749880647286775
4.824669361114503,-0.724461555480957,9.33973789215088,0.04475731775164605,0.050021685659885406,-0.00393569888547063
4.861873626708984,-0.7676380276679994,9.307042121887209,0.04495970532298089,0.053108908236026764,0.00019115087343379855
4.820386409759522,-0.7492546439170839,9.32537364959717,0.055433839559555054,0.05834012851119042,-0.0015125677455216646
4.8015899658203125,-0.6881035566329956,9.309983253479006,0.05621423944830895,0.06057482585310937,-0.004377891309559345
4.689568996429444,-0.7362207770347596,9.292997360229492,0.057450752705335624,0.06511957943439484,-0.005318560171872378
4.6889662742614755,-0.7141002416610718,9.32737445831299,0.05816645920276642,0.06235827133059502,-0.015359324403107168
4.292500019073487,-0.8066941499710083,9.100062370300295,0.06376000493764879,0.058802321553230286,-0.02429570443928242
4.15087652206421,-1.0193015336990359,9.312299728393555,0.05948496609926224,0.01610100269317627,-0.05738260969519616
4.9800262451171875,-0.9717603325843812,9.388607978820803,0.08061923086643219,0.004334581550210715,-0.07511626183986664
4.950047492980957,-0.48848336935043335,9.38942050933838,0.0844501405954361,0.02687145955860615,-0.0654977783560753
4.872641563415527,-0.5595437288284302,9.416996955871584,0.07532091438770294,0.0389385111629963,-0.05886010825634003
4.837823867797852,-0.5717253684997559,9.515634536743164,0.07621310651302338,0.04643674194812775,-0.05413124337792397
4.72412109375,-0.5058131217956543,9.567000389099123,0.06349607557058336,0.03300919383764267,-0.047642376273870475
4.699509620666504,-0.6085308790206909,9.547555923461914,0.05337019637227059,0.017692912369966507,-0.0437433123588562
4.857016563415527,-0.4763961434364319,9.501818656921388,0.04832281172275543,0.009131557308137419,-0.03693806380033493
4.908612728118897,-0.3470107316970825,9.456378936767578,0.03417458757758141,0.01523461099714041,-0.027577128261327744
4.749821186065675,-0.44230955839157104,9.365556716918945,0.021184811368584636,0.017711099237203598,-0.01730107702314854
4.195012569427491,-0.39258283376693726,9.35458755493164,-0.004121778067201377,-0.0031950054690241814,-0.0133607666939497
4.3852996826171875,-0.3724897503852844,9.43860721588135,-0.04557817056775094,-0.0515010729432106,-0.01258563529700041
4.408210754394531,-0.40163809061050415,9.529775619506836,-0.07364290207624437,-0.08393120020627977,-0.011701639741659164
4.7005767822265625,-0.2357311695814133,9.568631172180178,-0.1070193201303482,-0.11737463623285295,-0.01383461058139801
4.7701153755188,-0.2986352741718293,9.511234283447266,-0.13887117803096774,-0.135787695646286,0.0030393991619348526
4.846066474914551,-0.4590760171413422,9.532925605773928,-0.16735723614692688,-0.14671172201633456,0.01638934016227722
4.941082000732422,-0.5689274668693544,9.509315490722656,-0.18067485094070435,-0.145559161901474,0.029336633160710338
4.949872016906738,-0.6939232349395752,9.448431015014648,-0.18603157997131348,-0.14772243797779086,0.043507978320121765
4.946920394897461,-0.871456503868103,9.360623359680178,-0.17625144124031067,-0.13755021989345553,0.041718889027833946
5.054003715515137,-0.850601315498352,9.283019065856935,-0.1596590429544449,-0.1256994903087616,0.0374288596212864
4.973606109619141,-0.715398132801056,9.338902473449709,-0.1562973111867905,-0.11008036881685258,0.0421723872423172
4.8691420555114755,-0.946049690246582,9.274816513061523,-0.15224972367286682,-0.10094655305147172,0.04454042762517929
4.584778308868409,-1.0396525859832764,9.313637733459474,-0.14322809875011447,-0.10383465886116028,0.037684157490730286
4.437658309936523,-1.0252385139465332,9.392509460449219,-0.13667865097522738,-0.1287505030632019,0.011460323818027975
4.565246105194093,-0.9534134268760682,9.360116958618164,-0.12859755754470825,-0.15881723165512085,-0.013444577343761923
4.5233612060546875,-0.6710784435272217,9.378501892089844,-0.1399202793836594,-0.1855943202972412,-0.02223441563546658
4.724747180938722,-0.6106570959091187,9.516019821166992,-0.16470205783843994,-0.22037316858768466,-0.028461685404181484
4.87703800201416,-0.778390645980835,9.414402961730959,-0.18136253952980042,-0.2397626489400864,-0.021945953369140625
4.803141117095948,-0.6787609457969667,9.417174339294435,-0.1909966766834259,-0.2614676356315613,-0.023088073357939724
4.982213497161866,-0.7568409442901611,9.367970466613771,-0.21404501795768738,-0.2804063260555268,-0.01891637220978737
5.050405025482179,-1.0562381744384766,9.202763557434084,-0.20225337147712708,-0.28799638152122503,-0.021665928885340694
4.887297153472901,-1.0719521045684814,9.077743530273438,-0.16251516342163086,-0.2810895144939423,-0.052244581282138824
4.908999443054199,-1.2396286725997927,9.156137466430664,-0.12473297119140625,-0.2896110415458679,-0.09018295258283617
5.080673694610597,-0.9747326374053955,9.1278076171875,-0.10854811221361162,-0.29844599962234497,-0.0987052693963051
5.005751609802246,-0.7741665244102479,9.25468158721924,-0.11934293061494829,-0.3159177899360657,-0.09574505686759949
4.8436384201049805,-1.1049504280090332,9.223155975341797,-0.10240185260772705,-0.3413855731487275,-0.11442425847053528
4.717169761657715,-1.2506840229034424,9.299240112304688,-0.07157205045223236,-0.3939136266708374,-0.14906091988086703
4.7485623359680185,-0.7876889705657959,9.416023254394531,-0.07393497973680498,-0.46033602952957153,-0.16961444914340976
4.867619991302491,-0.40955376625061035,9.576589584350586,-0.11304216086864471,-0.5602524876594545,-0.15913696587085727
4.860056400299073,-0.37619519233703613,9.764227867126467,-0.14382122457027438,-0.6829231977462769,-0.11885551363229753
4.738797664642335,-0.40857505798339844,9.608701705932617,-0.18363119661808017,-0.8159307837486268,-0.08684346079826355
4.492816448211671,-0.20308931171894076,9.893423080444336,-0.25453868508338934,-0.9874520301818848,-0.025204626843333248
4.411306381225586,-0.3583461046218872,10.02129650115967,-0.3182428181171418,-1.1895132064819336,0.009367212653160095
4.183980941772461,-0.5088493824005127,9.946624755859375,-0.3587362468242646,-1.4382894039154053,0.03924406692385674
4.304560184478761,-1.1168599128723145,10.011155128479006,-0.4001634120941162,-1.700606346130371,0.03454024717211724
4.470189094543457,-1.1154352426528933,9.866324424743654,-0.397100567817688,-1.991186022758484,0.009423397481441498
4.577858924865723,-1.3884769678115847,9.629603385925295,-0.39125126600265503,-2.270267248153687,-0.03081980533897877
4.703917026519776,-1.8268846273422243,9.501386642456055,-0.35614216327667236,-2.5721981525421147,-0.07485155761241913
4.881950378417969,-1.7386794090270996,9.622727394104006,-0.2980658113956452,-2.9080135822296147,-0.1517179310321808
4.988736152648926,-2.0926175117492676,9.401626586914062,-0.25254660844802856,-3.2513992786407475,-0.2464105784893036
4.6173295974731445,-2.217556953430176,8.742663383483888,-0.15319721400737765,-3.6888527870178223,-0.36362433433532715
5.342316627502441,-2.4047596454620366,8.986053466796875,-0.024276062846183777,-4.077819347381593,-0.4940899610519409
5.0330548286438,-2.1147911548614506,7.972315788269043,0.16352038085460666,-4.610525608062745,-0.6543271541595459
6.035840034484863,-1.8542351722717285,7.956202983856202,0.3045890629291535,-5.1285810470581055,-0.7491032481193544
5.7677764892578125,-1.7152018547058105,7.962306976318359,0.42053011059761053,-5.7273712158203125,-0.7790607213973999
7.025835514068604,-1.3364572525024414,8.781178474426271,0.5216261744499208,-6.434120178222656,-0.7856809496879579
6.513002395629883,-1.5065191984176638,9.063962936401367,0.5466623902320863,-7.222621440887452,-0.9050692319869995
8.315053939819336,-1.9688220024108887,9.484153747558594,0.4905742406845093,-7.887308597564698,-1.0839033126831055
10.213320732116701,-2.965518712997437,9.310262680053711,0.40478977560997015,-8.47610092163086,-1.2000951766967773
14.19081783294678,-2.308342456817627,10.750146865844727,0.4002200961112976,-8.910296440124513,-1.507847785949707
21.938516616821293,-1.397747874259949,11.162670135498047,0.38372269272804266,-8.73316287994385,-1.5566909313201904
27.87204360961914,-1.8902473449707031,12.625143051147461,0.3529463112354279,-8.149530410766602,-1.5586844682693484
25.326532363891605,-3.6893601417541504,11.969555854797365,0.3107145428657532,-7.456271648406983,-1.3352209329605105
21.917203903198246,-3.6650586128234863,10.91171169281006,-0.21570217609405518,-7.331072330474854,-1.1249001026153564
22.351226806640625,-6.559176921844483,13.475535392761232,-0.31586709618568426,-6.856725215911866,-1.4792332649230957
20.440372467041016,-9.623267173767092,18.265306472778324,0.09914945065975189,-6.2447571754455575,-1.9568302631378174
9.15218734741211,-6.919094085693359,14.164953231811523,0.6088313460350038,-5.6261444091796875,-2.1418514251708984
11.245915412902834,-7.808354854583741,17.15323066711426,0.9962087273597718,-5.749350547790527,-2.109108686447144
12.238876342773438,-2.2484254837036133,12.647178649902344,1.264007806777954,-4.635750770568848,-1.8994055986404421
26.311447143554688,-6.383780479431152,22.96782493591309,1.4561491012573242,-3.196675539016724,-2.3425073623657227
17.98869132995606,-1.1475214958190918,24.44413566589356,0.9091410040855409,-0.6088321208953857,-1.8875946998596191
12.978425025939943,-3.887701988220215,21.117689132690433,0.3330885171890259,1.2973765134811404,-1.52467942237854
10.280252456665039,-3.6967284679412846,17.632894515991214,-0.00085184263298288,2.9954040050506596,-1.1658670902252197
6.907694339752198,-4.318695545196534,13.899189949035646,-0.19803936779499057,4.075117111206055,-0.8682692646980287
4.529413700103761,-3.9804003238677983,10.67361068725586,-0.3498941659927368,4.775456905364991,-0.630930006504059
2.6131455898284917,-4.2916932106018075,7.863619327545167,-0.4638184607028962,5.157848358154297,-0.384246438741684
1.0832136869430544,-4.582923412322999,6.119546890258789,-0.4782442748546601,5.24125623703003,-0.13320142030715942
0.1684406250715256,-4.588299274444581,5.175453186035156,-0.41282388567924505,5.175998687744141,0.08643411844968797
0.05635905638337136,-4.103593826293945,5.2463178634643555,-0.3183648884296418,5.063314437866211,0.29020166397094727
1.215714693069458,-2.974949359893799,6.065304756164551,-0.2967061400413513,4.990055561065675,0.521052360534668
3.244982481002808,-1.7468514442443848,7.33724069595337,-0.4272606372833252,5.0888471603393555,0.787349045276642
5.797554969787598,-1.389160990715027,8.64999008178711,-0.6764755845069886,5.419975280761719,1.0812891721725466
7.3641095161438,-1.9005056619644167,9.566438674926758,-0.8322843909263612,5.910800933837891,1.3418819904327393
8.148128509521484,-2.0593481063842773,9.675691604614258,-0.8015226125717163,6.383914470672608,1.5535671710968018
7.813394069671632,-1.6149921417236328,8.720815658569336,-0.6395743489265443,6.737706661224366,1.6971831321716309
6.952938079833984,-0.4647509455680847,7.498812198638917,-0.5111570358276367,6.876973628997804,1.78753662109375
6.4446778297424325,0.7511807680130005,6.591958045959473,-0.5156099200248719,6.805839538574219,1.844397783279419
6.860917568206788,1.6332547664642334,6.7245073318481445,-0.6542280912399292,6.6004090309143075,1.890122890472412
8.170088768005373,1.6019885540008545,7.695210933685304,-0.8312609195709229,6.387517929077148,1.8877304792404177
9.514511108398438,0.8183783888816835,9.073790550231935,-0.8907196521759033,6.23209047317505,1.817323923110962
10.714877128601076,0.2975139021873474,10.646987915039062,-0.7735652923583984,6.141644001007081,1.7070323228836062
11.651754379272461,0.2286243736743927,11.924920082092287,-0.5870301127433778,6.101783752441406,1.6115714311599734
12.38235855102539,0.4013923406600952,12.589441299438477,-0.43823054432868963,6.061845302581788,1.569462776184082
13.091172218322756,0.2966982126235962,12.974403381347656,-0.33151936531066895,5.963616847991944,1.5536019802093506
14.239819526672365,0.17588236927986145,13.605410575866701,-0.25218307971954346,5.801471233367921,1.5346812009811404
15.91891860961914,0.24295970797538757,14.487645149230959,-0.23972637951374057,5.633678436279297,1.512092709541321
18.078826904296875,0.18977996706962585,15.610722541809084,-0.29797634482383734,5.50160837173462,1.5136706829071045
20.74737548828125,-0.02926880121231079,16.944778442382812,-0.4220646023750305,5.448641300201417,1.5444772243499756
24.131610870361328,-0.4699906408786774,18.026775360107422,-0.5878937244415283,5.558908939361573,1.5979119539260866
27.070226669311527,-0.6394872665405273,17.808879852294922,-0.7630237936973573,5.821384429931641,1.6753610372543337
28.294164657592777,-0.046168357133865356,15.646604537963867,-0.975633203983307,6.096315860748292,1.7634105682373047
27.023509979248047,0.22555691003799438,11.731726646423342,-1.2211086750030518,6.201886653900147,1.8100488185882568
24.14120674133301,0.5173025727272035,7.740802288055421,-1.3957296609878542,5.919103622436523,1.7025840282440186
25.059284210205078,5.526650905609132,2.548574924468994,-1.7205133438110352,5.355865955352784,1.5830914974212646
26.77214622497559,6.835661411285401,-3.8634238243103027,-2.3603050708770756,4.841486454010011,1.6338093280792236
31.300916671752933,3.0369241237640385,-13.134384155273438,-2.4712672233581543,4.199292659759522,1.5787780284881592
33.647235870361335,-1.2406566143035889,-22.573280334472656,-1.3266052007675173,3.2388620376586914,1.3256323337554932
26.34824943542481,2.459481477737427,-25.594341278076172,0.03212355077266693,1.4483972787857058,0.9035050868988037
16.865812301635746,5.812421321868897,-20.749923706054688,0.5057016611099243,-0.698020339012146,0.334244579076767
16.67683601379395,4.862856864929199,-10.578854560852053,0.5023258924484253,-2.3372290134429936,-0.33312851190567017
20.93553733825684,1.9695349931716921,-1.0478641986846924,0.4768166840076447,-2.903825283050537,-0.8976691961288452
13.179585456848146,-3.0620067119598393,5.749784469604492,1.1451338529586794,-3.3520002365112305,-1.1103690862655642
4.716166019439698,-1.1016428470611572,5.15578317642212,1.5633227825164795,-3.7771010398864746,-1.3933378458023074
3.8637368679046635,1.101579546928406,11.189313888549805,1.0053027868270876,-4.486337661743164,-1.6241677999496462
6.543800354003906,-6.48961067199707,18.89069366455078,0.12517039477825168,-4.200530052185059,-1.3615155220031738
19.59095001220703,-6.778558254241944,14.245813369750977,0.2964985668659211,-4.239997863769531,-1.2701624631881716
20.270835876464844,-1.98286771774292,14.74819850921631,0.6868852376937866,-3.9822511672973633,-0.8518465161323548
23.04068374633789,0.952284574508667,17.67178726196289,0.5267551541328431,-3.365100383758545,-0.7237654328346254
17.75611114501953,3.332631349563599,15.300392150878906,0.5389127731323242,-2.632433652877808,-1.0804852247238161
10.91006374359131,1.0397131443023682,11.972543716430664,0.35436469316482544,-2.152729749679566,-0.8865615129470825
6.5873308181762695,-1.2890934944152832,10.229780197143555,0.2876220941543579,-1.9492409229278564,-0.8078715205192567
8.07363510131836,-1.3221993446350098,10.751914978027344,0.4222139418125153,-1.7984528541564941,-0.8086836934089662
12.789264678955078,-1.1309354305267334,12.715032577514648,0.628615438938141,-1.377173900604248,-0.8861145973205566
10.25994396209717,-0.6664962768554688,11.28164291381836,0.6972074508666992,-0.6017772555351258,-0.8033630847930908
5.0395874977111825,-2.5470650196075444,9.132852554321289,0.684231162071228,-0.44883161783218384,-0.6715784668922425
7.262430191040039,-0.3240538239479065,10.88457775115967,0.591164529323578,-0.33605730533599854,-0.567763388156891
5.719655990600586,-0.9725891947746278,10.020557403564453,0.543006181716919,-0.1801630407571793,-0.4888866245746613
5.691720008850098,-0.9970131516456605,10.274950981140138,0.516801416873932,-0.10639050602912903,-0.46741649508476263
5.92572021484375,-0.5125208497047425,10.247220039367678,0.46303844451904297,-0.0196034237742424,-0.4146351516246796
5.177080631256104,-0.3251053392887116,9.83365249633789,0.3859095573425293,0.00519802374765277,-0.3191381096839905
4.242183685302734,-0.5396746397018433,9.858799934387209,0.2740870416164399,-0.07884342968463898,-0.2112756073474884
4.958795070648194,0.25424671173095703,10.093568801879883,0.1602214425802231,-0.1303858757019043,-0.1435542851686478
5.194352626800538,0.20271994173526767,9.840282440185547,0.055161818861961365,-0.13577410578727722,-0.07619988173246385
5.025578022003175,-0.0592559278011322,9.642642974853516,-0.041269745677709586,-0.13137942552566528,-0.015215639956295492
4.901830196380616,-0.48215785622596746,9.595097541809084,-0.10999684035778046,-0.12963958084583285,0.03487717732787133
4.678558349609375,-0.28538405895233154,9.489990234375,-0.17877742648124695,-0.13604970276355746,0.08037164807319641
4.23721742630005,-1.0836106538772585,9.357246398925781,-0.23444804549217224,-0.17558252811431885,0.08946024626493455
4.617352962493897,-1.5693316459655762,9.257299423217773,-0.23030625283718112,-0.21747666597366333,0.06347180157899858
5.0235304832458505,-1.5614250898361208,9.116208076477053,-0.14079891145229342,-0.2156330645084381,0.03795316070318222
4.838502883911133,-1.5879976749420166,9.060355186462404,-0.060620494186878204,-0.20067511498928073,-0.01881493255496025
4.960100173950195,-1.2734163999557497,9.186691284179688,-0.015067964792251587,-0.19185477495193481,-0.05667583271861077
4.914790153503418,-1.7726678848266602,9.077417373657227,0.03320116549730301,-0.1707294434309006,-0.09781345725059509
4.641552925109863,-1.6104414463043213,9.088115692138672,0.08565625548362732,-0.159089669585228,-0.1264724284410477
4.6069746017456055,-1.1157350540161133,9.234135627746584,0.10049746185541154,-0.17129775881767273,-0.15484879910945895
4.620553493499757,-1.069181203842163,9.302694320678711,0.09451847523450853,-0.18311719596385959,-0.17950406670570374
4.912327766418457,-0.7989059686660767,9.38564205169678,0.08528833836317064,-0.19863846898078918,-0.18892626464366916
4.898033618927003,-0.5931304097175599,9.388535499572756,0.06170743331313134,-0.21761447191238403,-0.18485790491104126
4.711905479431152,-0.6037438511848451,9.259322166442873,0.03360546752810479,-0.23908677697181702,-0.1915104538202286
4.858508110046387,-0.1681881844997406,9.526835441589357,-0.027904357761144638,-0.2844049334526062,-0.18072040379047397
4.997928142547608,-0.6502771973609925,9.455834388732912,-0.10293746739625932,-0.31484687328338623,-0.16732861101627353
4.969170570373535,-0.5984914302825928,9.385434150695803,-0.17652398347854614,-0.34537276625633245,-0.1636842340230942
5.264295101165772,-0.3237086236476899,9.330524444580078,-0.22938184440135959,-0.36678624153137207,-0.1456195563077927
4.766363143920898,-1.0691455602645876,9.239723205566406,-0.19240690767765048,-0.402470737695694,-0.17752277851104736
4.9394593238830575,-1.1929272413253786,9.141366958618164,-0.14715221524238586,-0.4447637498378754,-0.2158779799938202
5.303973674774171,-0.7582009434700013,9.13985347747803,-0.11719229072332384,-0.4621362090110779,-0.21686768531799316
5.3756070137023935,-0.43549102544784546,9.075770378112795,-0.12317492067813873,-0.4824281036853791,-0.18571457266807556
5.083040237426758,-0.7130067944526673,9.283597946166992,-0.1354448050260544,-0.5308316349983216,-0.15778592228889465
5.049479961395265,-0.7931911945343018,9.39986324310303,-0.15806806087493896,-0.6228389143943788,-0.14913594722747803
4.826940536499023,-0.4735542833805085,9.680110931396484,-0.21405936777591708,-0.7569193840026855,-0.13553202152252197
5.0207719802856445,0.03396305441856384,9.842384338378906,-0.2877636849880219,-0.9214757680892944,-0.08397149294614793
4.7110352516174325,0.3213271498680115,9.855707168579102,-0.41651389002799993,-1.1025060415267947,-0.009302737191319466
4.174462795257569,-0.18042348325252536,9.932226181030273,-0.5342276692390443,-1.3308088779449463,0.033299479633569724
3.9541573524475098,-0.6024568676948548,10.061270713806154,-0.5573437213897705,-1.6478027105331423,0.044436577707529075
4.252881050109863,-0.6484900116920472,9.99076557159424,-0.578876256942749,-1.99204957485199,0.042380429804325104
4.644143581390382,-0.9487616419792176,9.79653549194336,-0.5760469436645508,-2.3419532775878906,0.04571997746825219
4.650241374969483,-0.9831818342208862,9.970157623291016,-0.561354696750641,-2.7020254135131836,0.03919967636466027
4.967343330383301,-1.106216073036194,9.750499725341797,-0.53900283575058,-3.083256244659424,0.003223903477191925
5.094058513641358,-1.1256119012832644,9.84140396118164,-0.5041934847831727,-3.54764986038208,-0.0628645494580269
4.099228858947754,-1.5621991157531738,9.674592971801758,-0.482987254858017,-4.06782102584839,-0.1166607141494751
2.9611892700195312,-2.588910341262818,9.11568355560303,-0.3902420401573181,-4.848224163055421,-0.24794423580169678
3.0404708385467534,-2.9772627353668217,8.852001190185547,-0.28605797886848455,-5.807621955871582,-0.4252004027366638
4.212858200073242,-2.7405331134796147,9.129014015197756,-0.21813085675239563,-6.833289623260499,-0.5339648723602295
4.838806629180909,-1.6841989755630495,9.802484512329102,-0.19355979561805725,-7.9747114181518555,-0.599075734615326
5.193892478942871,-1.9612457752227783,9.971445083618164,-0.20883949100971225,-9.234170913696289,-0.6949744820594789
7.870442867279054,-2.623163461685181,10.586300849914553,-0.35853928327560425,-10.440226554870607,-0.7892844080924989
15.008639335632326,-3.6006312370300293,13.259768486022951,-0.7353675365447998,-11.129490852355959,-0.898152232170105
23.46694374084473,-3.506392478942871,14.31223773956299,-0.8361344933509828,-11.165478706359865,-1.0845119953155518
34.30178451538087,-3.1138010025024414,13.114638328552248,-0.7446134686470033,-10.343868255615234,-1.2662023305892947
34.763946533203125,-3.561047077178955,14.832956314086914,-0.8597009778022767,-9.248380661010742,-1.1596531867980957
26.092721939086918,-9.375316619873047,12.874957084655763,-0.9968949556350708,-8.566880226135256,-1.2470386028289795
21.4289722442627,-9.051830291748047,13.85825824737549,-0.6342709660530091,-8.34266757965088,-1.5305094718933105
17.811553955078125,-6.159398078918457,17.331178665161136,-0.52487450838089,-7.881789207458496,-1.9193514585494997
17.79848861694336,-6.533740043640137,21.04924774169922,-0.8465196490287782,-7.0579633712768555,-1.62746262550354
11.751243591308594,-2.3599431514739995,14.168675422668459,-1.2760196924209597,-6.02630615234375,-1.4093104600906374
25.883010864257812,-1.345900297164917,18.13558578491211,-1.6745631694793701,-5.203385353088379,-1.693683981895447
31.3691577911377,-12.72091293334961,29.847230911254886,-0.9965482950210571,-1.812686085700989,-2.0136570930480957
16.08066177368164,-9.21248531341553,23.862018585205078,-0.43766146898269653,1.2329686880111697,-1.466895937919617
13.546040534973146,-10.636514663696289,20.32999992370606,0.5505053400993348,3.527317523956299,-1.0739663839340212
8.767173767089844,-7.766273498535156,14.343433380126953,1.2639172077178955,5.066310882568359,-0.8614239096641542
5.222670078277589,-5.018675804138184,10.063348770141602,1.7058376073837282,5.867936134338379,-0.8360347151756288
1.59554660320282,-2.7902643680572514,6.652505874633789,1.7125540971755984,6.078220367431641,-0.7997050285339355
-1.7820729017257693,-1.4168220758438113,3.765350818634033,1.287449836730957,5.964853763580323,-0.6737631559371948
-2.80648136138916,-1.0225446224212646,2.625991582870484,0.7434341907501221,5.667632102966309,-0.4758715927600861
-1.965994119644165,-0.821635365486145,2.8608903884887695,0.2692810893058777,5.365400791168214,-0.28764480352401733
0.2784492671489716,-0.8837595582008363,4.19636106491089,-0.19326297938823703,5.214670181274414,-0.04369264096021652
2.1601309776306152,-1.5337454080581667,5.679845809936523,-0.5376559495925903,5.3403992652893075,0.1735917031764984
3.774016857147217,-2.573315858840943,6.89421272277832,-0.5767780542373657,5.661785125732422,0.3543581664562226
4.691384315490723,-3.145967245101929,7.2095961570739755,-0.37035599350929266,6.059569358825684,0.45379009842872625
5.030478954315186,-2.502843618392945,6.9201765060424805,-0.13638290762901306,6.354735851287843,0.5255110859870912
5.649356842041016,-1.037961721420288,6.515389442443848,-0.07949899882078172,6.526934623718262,0.6748273968696595
6.0448975563049325,-0.21013671159744263,6.1712660789489755,-0.1938322335481644,6.617305278778077,0.8857690095901489
6.713186740875245,0.019767597317695618,6.29188346862793,-0.38271069526672363,6.647016048431397,1.1012978553771973
7.90803337097168,-0.0636698305606842,6.881851673126222,-0.5419563055038452,6.6553692817688,1.2942727804183962
9.12509059906006,-0.24830992519855502,7.55086612701416,-0.5882633924484253,6.6607375144958505,1.392446517944336
10.331200599670412,-0.19191598892211914,8.202194213867188,-0.5795302987098695,6.652285099029542,1.4382002353668213
11.641512870788576,-0.16674721240997314,9.056355476379396,-0.5262244939804077,6.623940944671632,1.453345775604248
12.939926147460938,-0.2794183194637299,9.994083404541016,-0.45253217220306396,6.601680278778077,1.4364305734634402
14.372807502746584,-0.3816127479076386,10.970672607421875,-0.3649524450302124,6.600747585296632,1.4111731052398682
15.79503059387207,-0.30876109004020696,12.012372970581055,-0.2877548336982727,6.6171417236328125,1.3982330560684206
16.90999984741211,-0.33785870671272283,12.62576675415039,-0.2392106056213379,6.675139904022218,1.366189956665039
17.775131225585938,-0.5995959043502808,13.064934730529787,-0.20731870830059054,6.715479850769043,1.2984404563903809
18.378585815429688,-0.23533715307712558,13.382061004638672,-0.21400327980518344,6.679929733276367,1.2357915639877322
18.80236053466797,0.07031691074371338,13.654802322387695,-0.3212893605232239,6.588640213012695,1.1831637620925906
19.7332763671875,-0.4318163990974426,13.939491271972656,-0.4525819122791291,6.448266983032227,1.129432797431946
20.780963897705078,-1.1023193597793581,14.150337219238281,-0.5230370759963989,6.2913174629211435,1.056451201438904
21.52110099792481,-0.9777959585189819,14.128653526306154,-0.5548189282417298,6.131129264831543,0.9853841662406922
22.462354660034183,0.07873913645744324,13.862373352050781,-0.6983487606048584,5.96413516998291,0.9319452643394471
22.69625282287598,0.46894973516464233,12.367119789123537,-0.9856053590774536,5.805358409881593,0.8774365186691284
21.451932907104496,-0.9005238413810731,9.984068870544435,-1.2212610244750977,5.528645992279054,0.7142861485481263
21.215904235839844,0.30060964822769165,6.207219123840332,-1.3174418210983279,5.041932106018066,0.5254458785057069
22.284791946411136,3.667688608169556,0.6487846374511719,-1.6782637834548952,4.4170594215393075,0.5853590965270996
25.370864868164062,4.602396488189698,-5.689829349517823,-2.184144735336304,3.713801860809326,0.8484498858451844
31.008399963378906,1.0525782108306885,-13.65114498138428,-2.0801327228546147,3.040599822998047,1.3147106170654297
33.36762237548828,-2.7851450443267827,-20.5296802520752,-0.8500863909721376,2.097126007080078,1.8094540834426882
25.77865219116211,-0.8216801881790161,-22.204751968383793,0.6641595363616943,0.38065242767333984,1.9495166540145876
18.163465499877933,4.071490764617921,-16.482164382934574,1.3605066537857058,-1.504723072052002,1.5697406530380251
18.809274673461918,5.271787643432617,-6.85063123703003,1.1424190998077393,-2.7098977565765385,1.0877331495285036
14.359302520751953,6.18543291091919,0.5792849063873291,0.5622048377990723,-4.547195911407472,0.8067020177841187
-14.354377746582031,-1.3502027988433838,3.210862159729004,0.6557766199111938,-4.594281196594238,-0.2916868627071381
10.140533447265625,7.559504508972168,23.146127700805668,-0.16922469437122348,-5.429070472717285,-1.384721875190735
14.921004295349123,-4.692721366882324,17.341749191284183,-0.5763448476791382,-5.26887083053589,-1.9246727228164675
20.098594665527344,-5.236503601074219,11.76839828491211,-0.15024451911449435,-5.17899227142334,-1.5243412256240847
22.135311126708984,-3.8562240600585938,16.80080604553223,-0.5269976854324341,-4.848038673400879,-0.1820543855428696
26.528926849365234,-3.5404269695281987,21.464750289916996,-0.4673008918762207,-3.970417737960816,-0.0007482245564460754
19.92878913879395,0.49183788895607,16.756141662597656,-0.3509015440940857,-3.027584791183472,-0.22688381373882296
12.398935317993164,0.43729242682456976,12.672472953796388,-0.38646373152732855,-2.496145725250244,-0.28522434830665594
10.354682922363281,-2.00594973564148,11.488680839538576,-0.4142063856124878,-2.092020034790039,-0.2743083536624909
9.330451011657717,-4.758916378021241,10.513311386108398,-0.15206587314605713,-1.711905121803284,-0.37142324447631836
8.934622764587404,-6.60510015487671,9.857075691223146,0.21427206695079806,-1.3975632190704346,-0.4359055161476135
7.843526363372804,-3.7615849971771245,9.806895256042482,0.3754392564296723,-1.1157267093658447,-0.37693545222282415
7.672442913055421,0.21302485466003418,11.137366294860842,0.3939990997314453,-0.8643331527709961,-0.37028476595878607
4.584247589111328,-1.0308573246002197,9.935626029968263,0.38469237089157104,-0.6667296290397645,-0.3814542889595032
3.7569127082824707,-3.293453931808472,9.47380256652832,0.32038968801498413,-0.6914057135581971,-0.3571408092975617
6.871881008148194,-1.1745390892028809,10.304129600524904,0.3349003195762634,-0.6541120409965516,-0.3297883868217468
6.148523807525636,-0.3356825113296509,10.29594612121582,0.3566749691963196,-0.5286012887954712,-0.3536043465137482
5.607751369476319,-1.4134682416915896,9.951501846313477,0.27776470780372625,-0.4355946183204651,-0.3113814294338227
5.09628963470459,-1.5825668573379519,9.645541191101076,0.22284229099750522,-0.4479026198387146,-0.23659053444862366
5.419600009918214,-0.9459405541419984,9.968549728393555,0.21478784084320068,-0.444661170244217,-0.20117217302322388
5.8096680641174325,-0.46437370777130127,10.15737056732178,0.15556222200393677,-0.3810860514640808,-0.14552743732929233
5.630259037017823,-1.48545777797699,9.539464950561523,0.0765339732170105,-0.28668525815010076,-0.02175886556506157
5.051030635833741,-1.7407219409942627,9.29276752471924,0.03494007512927056,-0.24248042702674866,-0.008875228464603424
4.835478782653809,-1.216843605041504,9.43605136871338,-0.01242140494287014,-0.2617702186107636,-0.017870482057332993
4.8733720779418945,-1.576138973236084,9.331703186035156,-0.04493123665452004,-0.2942210137844086,0.003819282166659832
4.929718494415284,-1.536041498184204,9.169149398803711,-0.07952538132667542,-0.3229220807552338,0.025846365839242935
4.983853340148926,-1.5846638679504395,9.168909072875977,-0.10038462281227112,-0.3520969450473786,0.04386240616440774
5.05670166015625,-1.3121091127395632,9.151320457458498,-0.13491208851337436,-0.3710440397262573,0.05829466506838799
4.985206604003906,-1.464066743850708,9.131960868835451,-0.17284780740737915,-0.3961491584777832,0.06950054317712785
5.158084392547608,-1.662483334541321,9.090220451354982,-0.20221816003322604,-0.42062127590179443,0.05764122679829598
5.3441057205200195,-1.7289180755615234,8.976852416992188,-0.22040733695030212,-0.41623529791831976,0.045952353626489646
5.192084312438965,-1.5601787567138672,8.915998458862305,-0.2382050007581711,-0.40592747926712036,0.03924290463328362
5.064673900604249,-2.044787168502808,8.665449142456055,-0.2425992786884308,-0.385459303855896,0.014849270693957807
5.199282169342042,-2.750978231430054,8.70963764190674,-0.20626054704189303,-0.3573319911956787,-0.032400105148553855
4.634181499481202,-2.835063934326172,8.355354309082031,-0.16601334512233737,-0.32343775033950806,-0.09038688242435455
4.957379341125488,-2.8470206260681152,8.566567420959474,-0.12069428712129594,-0.3139986991882324,-0.15818725526332858
4.566510200500488,-3.170235872268677,8.289918899536133,-0.018937589600682262,-0.30108448863029486,-0.2720640301704407
4.255034446716309,-3.97315526008606,8.464053153991701,0.08351836353540422,-0.3066096305847168,-0.41862848401069647
5.102403163909913,-2.4439909458160405,8.766471862792969,0.10711720585823059,-0.37206187844276434,-0.525278151035309
5.032666206359863,-2.0641517639160156,8.81618404388428,0.12019036710262299,-0.32324972748756414,-0.6043151617050171
4.843215465545655,-2.5549163818359375,8.47293472290039,0.1465209722518921,-0.30923992395401,-0.6922804713249208
5.36385440826416,-1.457632303237915,8.920236587524414,0.16238801181316379,-0.33733534812927246,-0.6790679097175599
5.665973186492921,-0.6948256492614746,9.218359947204592,0.14114455878734591,-0.3554704189300537,-0.629072904586792
5.313702106475831,-0.9779826402664185,9.551295280456545,0.09479232877492906,-0.43147218227386475,-0.5800728201866151
5.463373661041261,-0.7672668695449829,9.58143711090088,0.05418763309717178,-0.5652072429656982,-0.5178778767585756
5.624544143676758,-1.0058258771896365,9.603587150573732,0.06744526326656342,-0.7021635174751283,-0.49420392513275146
4.8716230392456055,-1.822782635688782,9.517938613891602,0.14195305109024048,-0.8478042483329774,-0.5148672461509706
5.08418893814087,-1.894801378250122,9.378122329711914,0.2565695643424988,-1.0099717378616335,-0.5483106374740601
5.474726200103761,-1.5657124519348145,9.047755241394045,0.33076584339141846,-1.1411383152008057,-0.5497087836265565
6.007505893707276,-0.14796313643455505,8.831475257873537,0.29578083753585815,-1.2937399148941042,-0.48104459047317505
6.202707290649414,0.509363353252411,8.661456108093263,0.1855551302433014,-1.4069634675979616,-0.3784053027629853
6.107355117797852,-0.24329018592834473,8.604862213134766,0.07877480238676073,-1.4982695579528809,-0.30219474434852606
6.020064353942871,-0.8131818175315858,8.669942855834961,0.0033459095284342766,-1.6025006771087646,-0.2756278216838837
5.901440620422363,-0.9976329803466797,8.821128845214844,-0.017119310796260834,-1.7342294454574587,-0.27364635467529297
5.880859851837159,-0.4797840118408203,8.945486068725586,-0.052351780235767365,-1.9053994417190554,-0.257751077413559
6.24915361404419,-0.42210012674331665,8.82465934753418,-0.09394099563360216,-2.086047649383545,-0.23964379727840426
5.901036262512207,-0.5283569097518921,8.763234138488771,-0.1416754871606827,-2.279883146286011,-0.23942062258720398
6.154179096221925,-1.1394178867340088,8.489830017089844,-0.1051790714263916,-2.562672853469849,-0.29067230224609375
6.045066833496094,-0.9346405863761903,8.447237968444826,-0.10867978632450104,-2.8337237834930424,-0.3913197815418244
5.389438629150391,-1.5794470310211182,8.504920959472656,-0.1040390506386757,-3.199460506439209,-0.48073229193687445
5.36385440826416,-1.432180404663086,8.376389503479006,-0.030083036050200466,-3.6288425922393803,-0.5309126377105713
5.7286834716796875,-1.725386619567871,8.224414825439453,0.05669019743800164,-4.123386383056641,-0.5854119658470155
5.741728782653809,-1.930380702018738,7.996446132659913,0.09529120475053789,-4.678216934204102,-0.6524605751037598
5.947539329528809,-1.7906562089920046,7.645439624786378,0.1588375121355057,-5.340588569641113,-0.7622774243354798
6.013665676116944,-1.125812292098999,7.939360618591309,0.1480478048324585,-6.173894882202148,-0.9101254343986512
6.072212219238281,-1.6918772459030154,8.17291259765625,0.18578664958477023,-7.098931312561035,-1.1122907400131228
7.171236991882324,-2.272781133651734,9.049357414245607,0.19410154223442078,-8.100298881530763,-1.287067770957947
11.045765876770021,-3.8829288482666016,10.51742458343506,0.14560504257678988,-9.077253341674805,-1.5038064718246462
17.293663024902344,-4.749184131622315,11.595283508300781,0.1015920490026474,-9.760690689086914,-1.7758969068527224
24.405742645263672,-4.045164108276367,12.309852600097656,0.2145987004041672,-9.739734649658203,-2.2599961757659917
33.124889373779304,-3.767548799514771,12.012493133544922,0.2532497942447663,-8.909978866577148,-2.4640469551086426
33.60019302368165,-2.8031249046325684,12.739622116088867,-0.30531245470046997,-7.959990024566651,-2.024204730987549
26.28779792785645,-4.088698863983155,14.017589569091797,-0.7599786520004272,-7.2681169509887695,-1.8373595476150515
22.996925354003906,-7.639301300048828,16.75847434997559,-0.7982863187789917,-6.640105724334718,-2.0964879989624023
23.175003051757812,-9.492372512817383,19.300497055053714,-0.2433225065469742,-5.874005317687988,-2.5598716735839844
16.019388198852543,-5.448630809783936,14.65638828277588,0.8005664348602295,-4.945634365081788,-3.154143810272217
6.24229383468628,-7.5879530906677255,20.869989395141605,1.2576613426208496,-3.566131114959717,-2.739397764205933
36.50221252441406,-6.627229690551758,25.720560073852543,0.9784030914306641,-1.6720806360244753,-2.156999111175537
20.681137084960938,-8.786557197570803,27.543600082397464,0.9257245063781738,1.3728803396224978,-1.6412392854690554
5.805920124053956,-6.955361843109132,17.498086929321293,1.1326516866683962,3.1890716552734375,-1.3740998506546023
4.358407497406007,-4.542631149291992,13.124544143676758,1.0054551362991335,4.228873729705811,-0.9867918491363525
-0.4835502505302429,-2.7757863998413086,7.908236026763917,0.5224561095237733,4.551531791687012,-0.5515226721763612
-3.863278388977051,-2.4441411495208745,5.0640411376953125,-0.07818181812763214,4.491621494293214,-0.11256673187017442
-3.4869470596313477,-1.794649600982666,4.013439178466797,-0.5670309066772461,4.320472240447999,0.3697953224182129
-1.4084717035293581,-0.9904012084007264,4.642227649688722,-0.9946853518486024,4.234790325164796,0.8779759407043457
0.27700641751289373,-0.7741891145706177,5.903000831604004,-1.3357727527618408,4.336568355560304,1.3025376796722412
2.361508846282959,-0.7863078117370605,7.302831172943116,-1.4377071857452393,4.621443271636964,1.5962077379226687
4.153626441955566,-0.40452146530151367,8.34537124633789,-1.3366717100143435,5.039543151855469,1.7565277814865115
5.199084758758546,0.8111650943756104,8.8199462890625,-1.1704193353652956,5.516191005706788,1.7987289428710938
6.022629261016847,2.4581139087677006,8.91951656341553,-1.1376532316207888,5.9741411209106445,1.7569969892501833
6.824618816375733,4.078400135040284,8.720376968383789,-1.2920410633087158,6.410657405853272,1.6866596937179568
7.70273494720459,5.397782325744629,8.101227760314943,-1.6093084812164307,6.782726764678956,1.6088197231292725
8.490848541259766,6.232731342315675,7.365992546081543,-2.0128924846649174,7.030936717987061,1.537973165512085
9.47339725494385,6.052463054656983,6.658501625061035,-2.3934090137481694,7.161065101623535,1.4543234109878542
10.491618156433107,5.480191707611085,5.899922847747804,-2.579098463058472,7.160041809082031,1.3480610847473145
11.596076965332031,5.462648391723633,5.37260389328003,-2.5987222194671635,7.0297136306762695,1.2971037626266482
12.537169456481935,5.473767280578613,5.040804862976074,-2.518459558486939,6.823053836822511,1.2919337749481201
13.3603515625,5.794297695159913,5.38340711593628,-2.3762550354003906,6.564688205718995,1.2864809036254883
13.991682052612305,6.3167128562927255,6.258525848388672,-2.204470634460449,6.318915843963624,1.168248772621155
15.438853263854982,7.281126022338867,7.439266204833984,-2.081070899963379,6.128808498382569,0.9196417331695557
16.694887161254886,8.268407821655273,8.42396640777588,-2.058551788330078,5.980377197265625,0.5975001454353334
17.618017196655277,8.501797676086428,9.05088520050049,-2.127504825592041,5.842193126678468,0.20080572366714478
18.08040809631348,8.387287139892578,9.44205093383789,-2.2487049102783203,5.683338642120362,-0.2279506474733353
19.637550354003906,7.676636219024659,9.822477340698242,-2.3977916240692143,5.503822326660156,-0.6397739052772523
21.86833763122559,7.463988780975343,10.063658714294435,-2.545864820480347,5.342531681060792,-0.950879693031311
23.39358901977539,7.887099266052246,9.771716117858888,-2.7673354148864746,5.200075626373292,-1.1458775997161865
23.522239685058594,8.954203605651857,8.54949474334717,-3.0611827373504643,5.076840400695801,-1.2734575271606445
22.049671173095703,10.471535682678224,6.832857608795167,-3.4093360900878906,4.8919692039489755,-1.416001796722412
20.248077392578125,11.939187049865724,5.110099315643311,-3.7855052947998047,4.544665336608887,-1.648745656013489
18.749490737915043,12.175450325012209,3.4519901275634766,-4.007000923156738,4.059399127960206,-2.0718460083007812
17.228685379028324,11.422409057617188,2.4461548328399663,-3.9045011997222905,3.5219340324401855,-2.664562225341797
15.41135025024414,12.603934288024904,1.9931749105453493,-3.5958392620086674,2.9063987731933594,-3.3197700977325444
16.617189407348636,16.832323074340824,0.5141858458518983,-3.655110120773316,2.3765709400177006,-3.7173571586608887
17.927850723266605,14.773451805114748,-1.2145023345947266,-3.831282138824463,1.9963141679763796,-4.057781219482422
19.337125778198246,11.8847131729126,-2.9077444076538086,-3.54091215133667,1.6262391805648806,-4.4720425605773935
19.72121810913086,9.95953369140625,-4.72480058670044,-2.9671707153320312,1.2232114076614382,-4.724394798278809
18.44646263122559,7.434762001037598,-5.451288700103761,-2.4026372432708745,0.7257445454597474,-4.681309700012207
15.233724594116211,4.277675628662109,-4.0001220703125,-1.7346335649490359,0.055415548384189606,-4.461200237274171
8.62995719909668,-4.920298099517823,2.684634208679199,-0.6625214219093324,-0.6781367063522339,-4.124111175537109
8.186323165893555,-9.852392196655273,7.44444465637207,3.304603099822998,-1.5392020940780642,-4.551609992980957
7.048152446746827,-8.136637687683107,15.28860855102539,3.4391782283782963,-1.4147385358810427,-4.479022979736328
8.354887008666992,-17.389904022216797,13.966398239135742,3.679042339324951,-1.6017285585403445,-4.4914655685424805
9.771983146667482,-9.31130123138428,12.693384170532227,3.3786814212799077,-1.9617466926574707,-3.9715261459350586
17.64984893798828,-15.016167640686037,10.543863296508789,2.9594974517822266,-1.4626337289810183,-2.258744239807129
17.501724243164062,4.745928764343262,13.039928436279297,2.55027985572815,-1.398018002510071,-1.0354211330413818
12.057640075683594,14.964634895324709,13.285471916198732,1.953859806060791,-0.8526065945625306,-0.6030166149139404
8.223339080810547,10.171079635620117,13.89797592163086,1.0937448740005495,-0.5785747766494751,-0.6059871912002563
4.563902854919434,2.229907512664795,10.935267448425295,0.5879710316658021,-0.47617417573928833,-0.4248007237911225
5.598860740661621,3.4842090606689453,10.146312713623047,0.3255085647106171,-0.35782489180564886,-0.2337503731250763
6.146669864654542,5.153355598449707,10.120811462402344,0.06743804365396501,-0.12232880294322968,-0.19372098147869113
6.264437198638917,1.4906113147735596,10.012784004211428,0.03479895740747452,0.038227897137403495,-0.16296108067035678
6.231497764587402,-0.7700073719024658,9.696012496948242,-0.0043245116248726845,0.05701627954840661,-0.10644452273845673
6.35724687576294,-0.18028064072132113,9.71757221221924,0.008607375435531141,0.018840873613953594,-0.07121282815933228
6.063406944274902,-0.8031390905380249,9.725510597229006,-0.022297834977507595,-0.004689876921474934,-0.029485477134585384
5.993805408477784,-1.3487117290496826,9.637325286865234,-0.06336750090122223,0.018608724698424343,0.00298643414862454
5.778059959411621,-1.461982846260071,9.461629867553711,-0.09315221756696702,0.052319012582302094,0.020100174471735958
5.089268684387207,-1.5323295593261719,9.259510040283203,-0.07117633521556854,0.0751502513885498,0.02676576189696789
3.936403751373291,-1.9137158393859863,9.511885643005373,-0.050579864531755454,-0.007917501032352448,0.01367186661809683
4.620819091796875,-1.4525920152664187,9.337897300720217,-0.037739403545856476,-0.13223700225353244,0.0003592742432374508
5.127100467681886,-0.6103044748306274,9.328978538513185,-0.03865552321076394,-0.16689705848693848,0.018611604347825054
5.104419231414796,-0.15292581915855408,9.463241577148438,-0.10399319231510162,-0.17314738035202026,0.04371673241257668
5.0600786209106445,-0.3385352790355683,9.504601478576662,-0.15737767517566684,-0.19442692399024963,0.06164206191897393
4.964859962463379,-0.46891573071479803,9.386155128479006,-0.1874744147062302,-0.2221137285232544,0.057459086179733276
4.567874908447266,-1.3261103630065918,9.086079597473146,-0.2117150276899338,-0.2550758123397827,0.03971128538250924
4.900457382202148,-1.3529682159423828,9.277977943420412,-0.20891383290290833,-0.2979965806007385,0.013643710874021055
5.216062545776367,-1.5791949033737185,9.070474624633789,-0.18034467101097107,-0.28616604208946234,0.011785248294472694
5.203003406524659,-1.9315491914749148,8.963165283203125,-0.14372095465660095,-0.26850071549415594,0.013302062638103964
5.2723145484924325,-1.8072006702423096,8.868997573852539,-0.11957817524671556,-0.24455946683883667,0.0172735620290041
5.153699398040772,-2.1024231910705566,8.689579010009766,-0.08838753402233124,-0.21648401021957397,0.018579846248030666
5.118988990783691,-1.9637259244918825,8.84849262237549,-0.04941517487168313,-0.2038542628288269,0.007772608194500209
5.241661548614503,-1.5803961753845215,8.874165534973146,-0.033007532358169556,-0.19019438326358798,-0.010341328568756582
5.346709251403809,-1.503464698791504,8.878032684326172,-0.019800856709480286,-0.1612467020750046,-0.020857710391283035
5.089132308959961,-1.4192969799041748,8.932303428649904,-0.016008857637643814,-0.1486036777496338,-0.028562394902110103
5.193127632141113,-1.5414053201675417,9.051778793334961,-0.010570212267339231,-0.15402266383171082,-0.03878049179911614
5.299962043762207,-1.0481362342834473,9.208441734313967,-0.014939028769731522,-0.16096295416355136,-0.04005130752921105
5.21434211730957,-1.1991378068923952,9.14321804046631,-0.034901309758424766,-0.16661706566810608,-0.039998013526201255
5.057382106781007,-1.179257869720459,9.193136215209961,-0.04904178157448769,-0.18551047146320346,-0.04474594444036484
5.228755950927734,-1.1704679727554324,9.225706100463867,-0.07160080969333649,-0.205004557967186,-0.05757101625204086
5.12294626235962,-0.8808996677398682,9.197568893432617,-0.09850095212459564,-0.2276580780744553,-0.0633373185992241
5.095331668853761,-0.9773489236831665,9.202742576599123,-0.1427719742059708,-0.2700729966163635,-0.06091613695025445
5.16825008392334,-1.3333992958068848,9.103408813476562,-0.1758380085229874,-0.3007915914058686,-0.08217141032218933
5.252033710479737,-1.073777675628662,8.984721183776857,-0.1937827169895172,-0.34017315506935125,-0.0847715437412262
5.603727817535401,-0.7055220603942871,9.043812751770021,-0.2407475709915161,-0.37726166844367987,-0.0471571795642376
5.363171100616456,-0.9258017539978027,8.985444068908693,-0.2877514064311982,-0.43429630994796753,0.0021843847353011374
4.965400218963624,-1.3098914623260498,9.006078720092773,-0.3197931349277497,-0.5041844248771669,0.024238720536231995
5.2379150390625,-1.4101200103759766,9.064943313598633,-0.3544519543647766,-0.5874574780464173,0.02714153379201889
5.225266933441163,-1.7402623891830447,8.877112388610842,-0.36338976025581365,-0.6520899534225464,0.020372264087200165
4.922588825225831,-1.441606640815735,9.113814353942873,-0.38655614852905273,-0.755129635334015,0.012259263545274734
5.1117520332336435,-1.56521213054657,9.025123596191406,-0.43436440825462347,-0.8615226149559022,-0.004257017746567726
4.513847827911378,-1.8655523061752322,8.986824035644531,-0.453660249710083,-1.0117272138595583,-0.04623325914144516
4.585354804992676,-1.8577681779861452,9.23330307006836,-0.47985267639160156,-1.2270876169204714,-0.10574916750192644
5.308005809783936,-1.7942006587982178,9.204604148864748,-0.501675009727478,-1.4049552679061892,-0.130208820104599
5.435573101043702,-1.2126907110214236,8.977620124816896,-0.49923890829086304,-1.554189920425415,-0.10808857530355455
5.8206191062927255,-1.3686668872833252,8.732275962829592,-0.5026612281799316,-1.702017664909363,-0.07421153783798218
5.98538637161255,-1.3577969074249268,8.37405014038086,-0.46701410412788397,-1.8292415142059326,-0.06552182137966156
5.623661994934082,-0.8483899831771851,8.63459587097168,-0.4656973779201508,-2.001959800720215,-0.03210661187767983
5.636342525482179,-1.0259295701980593,8.888600349426271,-0.47032871842384344,-2.2819478511810307,0.039145469665527344
5.420596122741699,-1.5777509212493896,8.85097408294678,-0.5007669329643251,-2.6512036323547363,0.08990677446126939
4.8901824951171875,-1.3692948818206787,9.221436500549318,-0.5362980961799623,-3.096515655517578,0.0898144394159317
5.437461376190186,-1.078784465789795,8.893343925476076,-0.5926555395126343,-3.6535127162933354,0.08086897432804108
5.393932342529297,-0.43994143605232244,9.004390716552734,-0.7153198122978212,-4.252151966094972,0.14310255646705627
5.16155767440796,-0.8825313448905946,8.621472358703615,-0.8596302866935731,-4.890764236450195,0.30338129401206976
6.205895900726319,-1.1368077993392947,8.891316413879396,-1.0697370767593386,-5.573424339294434,0.46324723958969116
7.045081615447999,-0.8671409487724305,8.484926223754883,-1.46665620803833,-6.264541149139405,0.5835227966308594
8.604583740234375,-0.9840522408485414,9.281188011169435,-1.9593076705932617,-6.894227981567383,0.7300633788108827
8.96199131011963,-0.5899676084518433,10.97249507904053,-2.2663416862487793,-7.285248279571534,1.0238590240478516
11.527778625488281,-0.22204440832138062,12.494182586669922,-2.5421078205108647,-7.759697914123535,1.5057332515716553
14.716580390930178,-0.45230123400688177,11.731539726257326,-2.8660473823547363,-7.91077756881714,1.7804255485534668
19.44071769714356,-3.049956560134888,10.621644973754883,-3.314657688140869,-7.968531608581543,1.8924022912979128
24.491964340209964,-4.965303421020508,12.437149047851562,-3.719441652297974,-7.733158111572266,1.8922752141952517
22.490972518920902,-5.252260684967042,12.965373992919922,-3.794749975204468,-7.196699142456055,1.5087742805480957
19.171266555786136,-7.529303550720215,10.579490661621094,-3.9160304069519043,-7.365439891815186,1.1585001945495605
21.595783233642578,-7.559745311737061,11.24796772003174,-4.147407531738281,-7.3361053466796875,1.2859708070755007
22.346027374267578,-3.780132293701172,14.105348587036133,-5.353002548217773,-6.747904300689698,1.9734618663787842
21.53193855285645,-3.916518211364746,19.71734619140625,-6.875857830047608,-5.7593183517456055,2.2312421798706055
16.598140716552734,-2.115815401077271,18.869384765625,-7.933687210083008,-4.318048000335694,1.681265115737915
17.620277404785156,-3.0369145870208745,13.052544593811037,-7.53687858581543,-3.4595155715942383,-0.47356811165809637
32.14294815063477,-15.120841979980469,22.186101913452152,-5.068769931793214,-0.8158490657806396,-3.0993750095367436
14.682178497314453,-11.620045661926271,22.755086898803714,-3.1927905082702637,1.527912735939026,-3.473840951919556
13.628636360168459,-9.258506774902344,18.54126739501953,-1.2570152282714844,3.134661436080933,-3.646338939666748
8.742805480957031,-5.269540786743164,14.756690025329592,-0.32232987880706787,4.31765079498291,-3.5110919475555424
5.845284938812257,-1.3436968326568604,10.953484535217287,-0.1261618733406067,5.050302028656007,-3.3072142601013184
1.9243491888046267,0.6782283782958984,7.83857536315918,-0.49934682250022894,5.385141372680664,-2.958829879760742
-0.9582040309906006,1.3864158391952517,5.170565128326417,-1.089895486831665,5.325299739837647,-2.5206117630004883
-1.2060749530792236,0.46564057469367987,3.799559831619263,-1.6054238080978396,5.10899305343628,-2.0545763969421387
-0.3084549307823181,-1.502695083618164,4.028843879699707,-1.795882821083069,4.863785743713379,-1.7087541818618777
0.5585321784019471,-3.671421527862549,5.140063762664796,-1.511482119560242,4.686896324157715,-1.4716744422912598
1.680443286895752,-4.404916763305664,6.7025113105773935,-0.8969178795814515,4.641201972961426,-1.2609802484512331
3.6727669239044194,-3.430609464645386,8.20864009857178,-0.2588976919651032,4.806011676788331,-0.9954425096511841
4.92996883392334,-1.3447746038436892,9.220979690551758,0.1262452155351639,5.186559677124023,-0.647510588169098
5.457194805145265,0.8692723512649536,9.413675308227539,0.03861886635422707,5.648892402648926,-0.27401721477508545
6.117314815521241,1.7546374797821045,8.878570556640625,-0.36768364906311035,6.056989192962647,0.12601998448371887
6.091631412506104,1.230377435684204,8.09674072265625,-0.7545726895332338,6.353004932403565,0.49275821447372437
6.274401664733887,0.5299903154373169,7.916694164276124,-0.9390474557876587,6.510818004608155,0.7816100120544434
7.575267791748047,0.2910045683383942,8.47434711456299,-0.9323772192001343,6.628277301788331,0.995409905910492
8.565881729125977,0.6679348945617676,8.805518150329592,-0.8321471214294434,6.769853115081788,1.112555980682373
8.815694808959961,1.8199408054351807,8.843255996704102,-0.7772410511970521,6.8670392036438,1.193840503692627
9.118879318237305,2.6663258075714116,8.787678718566896,-0.8306826949119569,6.883808135986328,1.271466135978699
9.401269912719727,2.6771888732910156,8.955824851989748,-0.9376658201217651,6.844792842864991,1.2994652986526491
10.090526580810547,2.1557242870330815,9.81440830230713,-0.9285699129104614,6.757904529571534,1.2647082805633545
11.466899871826172,1.686655640602112,11.093929290771484,-0.7925577759742738,6.6713223457336435,1.175663948059082
12.808072090148928,1.4256610870361328,12.41719150543213,-0.5677286982536317,6.650579452514648,1.0286840200424197
13.842398643493654,1.6266239881515505,13.535670280456545,-0.3905375599861145,6.642114162445069,0.8523903489112855
15.137963294982912,1.9054468870162966,14.556981086730959,-0.33401036262512207,6.578130245208741,0.699051022529602
16.690675735473636,2.0389950275421147,15.534646987915039,-0.4105963110923767,6.448282241821289,0.5804476141929628
18.53426551818848,1.809587359428406,16.32616233825684,-0.5796254873275757,6.256154537200929,0.49793165922164917
21.177091598510746,0.9377540349960327,17.298019409179688,-0.760198712348938,6.017108440399171,0.45569917559623724
24.811893463134766,0.04469767212867737,17.838235855102543,-0.8478726148605347,5.847557544708253,0.46063530445098877
28.951011657714844,0.22009029984474182,17.17929267883301,-0.8929825425148011,5.849345684051515,0.5201297998428345
31.07160186767578,0.9870609641075135,14.28986930847168,-1.0591154098510742,6.035607814788819,0.6609359979629517
29.05016899108887,0.6071273684501649,9.63056755065918,-1.2676228284835818,6.124227523803711,0.8417065143585205
26.63915252685547,1.4229542016983034,3.9335241317749023,-1.3431603908538818,5.807788372039796,0.9190722703933716
27.70847892761231,4.2922635078430185,-3.4395813941955566,-1.5219117403030398,5.195182323455811,1.1000440120697021
29.452781677246094,4.209109306335449,-12.301118850708008,-1.6327488422393799,4.418130397796632,1.3163392543792725
31.42589378356934,2.2425456047058105,-20.703832626342777,-1.2776398658752441,3.3854706287384038,1.3618637323379519
30.278663635253906,1.2963598966598513,-25.717733383178714,-0.47367355227470404,1.9056363105773926,1.1876026391983034
23.404544830322266,3.346895217895508,-23.671697616577152,0.33805978298187256,-0.03386534005403519,0.8801980614662172
19.803363800048828,5.036920547485352,-15.628461837768555,0.7186407446861268,-1.7714083194732666,0.4571539461612702
22.31884765625,5.677545070648194,-5.146177768707276,0.7526440620422363,-2.6864454746246342,0.09859503060579301
14.291177749633789,7.056619644165039,5.314793586730957,0.9541661143302919,-3.7635421752929688,0.18657578527927401
-11.82338619232178,3.2180747985839844,5.04279899597168,0.8216609954833984,-3.498623847961426,0.28757104277610784
5.629663467407227,3.369994640350342,21.274433135986328,0.008124350570142271,-4.990170478820801,-1.502329468727112
12.916628837585451,-4.761988162994386,16.43328666687012,-0.719799280166626,-4.786802768707276,-1.8660436868667605
22.86734199523926,-6.275380611419679,13.055399894714357,-0.3146854043006897,-4.496549129486085,-1.352421522140503
23.426063537597656,-5.356823921203613,17.72147941589356,-0.5266439914703369,-4.000598907470703,-0.11333105713129045
24.316669464111328,-6.618786811828613,19.47738838195801,-0.2607260644435883,-3.2347822189331055,-0.10979063063859941
17.05858421325684,-0.7395774126052856,15.090203285217287,-0.08026123791933061,-2.6545352935791016,-0.14362013339996338
9.918821334838867,1.6489834785461426,11.829626083374023,-0.115746907889843,-2.2533698081970215,-0.23936669528484347
8.370623588562013,0.4162318706512451,11.423989295959474,-0.2099798768758774,-1.8539522886276247,-0.449474573135376
9.12089729309082,-4.501372814178468,10.285317420959474,0.07729407399892808,-1.4723708629608154,-0.6895611882209779
7.268010616302491,-6.425276756286621,8.82212543487549,0.4656350612640381,-1.2615860700607302,-0.689270317554474
6.456358909606934,-4.334171295166016,8.90981197357178,0.6319755911827089,-1.119441032409668,-0.61112779378891
8.233789443969727,1.0241502523422243,11.204445838928224,0.5920825600624086,-0.8805727362632753,-0.5129138231277466
5.114618778228761,0.009633973240852356,10.815358161926271,0.4626896679401398,-0.6053816080093384,-0.5332801938056947
4.805197715759277,-3.2167451381683354,9.831666946411133,0.37338143587112427,-0.6028749346733094,-0.5036814808845521
6.593478679656983,-0.7454456686973573,10.442589759826662,0.27841001749038696,-0.5502865910530091,-0.37126195430755615
6.5618958473205575,0.09581942856311798,10.66043472290039,0.17228038609027865,-0.4338882267475129,-0.2899671196937561
5.7724151611328125,-1.049572467803955,10.192440986633303,0.05541343241930008,-0.3580636680126191,-0.21424338221549988
5.647790431976319,-0.8568590283393861,10.194157600402834,-0.0467529296875,-0.34293767809867864,-0.1467295438051224
5.539228916168214,-0.749953031539917,9.942743301391602,-0.1384445279836655,-0.2991686463356018,-0.1003573462367058
4.725630283355714,-1.5685288906097412,9.278167724609375,-0.1768078058958054,-0.31048807501792913,-0.026978030800819397
5.153902053833008,-1.3794217109680176,9.334893226623537,-0.19013725221157077,-0.33224397897720337,-0.001954756444320083
4.909242630004883,-1.600027680397034,9.223700523376467,-0.21559943258762362,-0.3396490812301636,0.0097296591848135
4.618241310119629,-2.2141647338867188,9.235490798950195,-0.22949357330799106,-0.38184893131256104,-0.03462499007582665
4.952693939208984,-2.082275390625,9.191943168640138,-0.21830567717552185,-0.42507219314575195,-0.07079569250345231
5.131858825683594,-1.8021669387817383,8.961078643798828,-0.22196368873119357,-0.44256889820098877,-0.1005205884575844
5.089253902435304,-1.6655846834182741,8.833838462829592,-0.2354241907596588,-0.44392660260200506,-0.09405795484781267
5.50543212890625,-1.5424396991729736,8.890262603759766,-0.24368414282798767,-0.4291557371616364,-0.11147205531597137
5.317501068115234,-1.440725564956665,8.874700546264648,-0.2610648274421692,-0.40035951137542725,-0.11482296139001848
5.2724456787109375,-1.696242332458496,8.956024169921875,-0.2828315496444702,-0.3781964480876923,-0.09789980947971344
5.665003299713136,-1.8127896785736084,8.889441490173342,-0.3097129464149475,-0.3466173112392426,-0.13718910515308383
5.8038907051086435,-2.055362939834595,8.425225257873537,-0.28415504097938543,-0.28898781538009644,-0.14952109754085544
5.553126335144043,-1.9691365957260134,8.273779869079592,-0.22967904806137085,-0.21444672346115112,-0.1551712900400162
5.144534587860108,-2.489547967910767,8.221818923950195,-0.17219871282577515,-0.16489823162555697,-0.1725832223892212
4.938669681549073,-2.789306163787842,8.252555847167969,-0.10327377915382385,-0.1614194363355637,-0.2134058624505997
5.044711112976074,-2.5580074787139897,8.324050903320312,-0.04716237634420395,-0.16187606751918796,-0.2566564679145813
5.0941057205200195,-2.3418486118316655,8.419551849365234,-0.006741690449416637,-0.16939836740493774,-0.3008232414722443
5.150607585906983,-2.567208051681519,8.268020629882812,0.04458917304873467,-0.16321110725402832,-0.35054233670234686
4.9186720848083505,-2.4410147666931152,8.30087661743164,0.11322955042123796,-0.18106871843338013,-0.38085561990737915
5.231544971466065,-2.261553049087525,8.225300788879396,0.167108416557312,-0.18010018765926364,-0.41578537225723267
5.397377014160156,-2.0209181308746342,8.412763595581055,0.22012054920196533,-0.21227115392684937,-0.38724002242088323
5.373529434204102,-1.2831844091415407,8.83254909515381,0.23997838795185092,-0.2251587212085724,-0.35524740815162664
5.342347145080566,-0.9551503658294678,9.075680732727053,0.20872859656810763,-0.25648033618927,-0.3150157928466797
5.09773063659668,-1.0373642444610596,9.47987174987793,0.16310158371925354,-0.32448711991310125,-0.30368226766586304
4.969874858856202,-1.1406434774398806,9.531941413879396,0.1465972363948822,-0.44685178995132446,-0.33011570572853094
5.373934268951417,-0.972719967365265,9.581401824951172,0.0743073970079422,-0.5991505980491639,-0.28807610273361206
5.021979808807374,-0.4803704023361206,9.632676124572756,-0.007801361382007599,-0.7825521826744081,-0.22425286471843722
4.9029645919799805,-0.9085153937339784,9.795570373535156,-0.06231611222028732,-1.0353995561599734,-0.18150967359542847
4.450859069824219,-0.7337272763252259,9.90418815612793,-0.07926809787750244,-1.3165535926818848,-0.16297055780887607
4.617029666900636,-0.7542181611061097,10.39906406402588,-0.10793127119541168,-1.6654776334762575,-0.1317756175994873
5.080779552459718,-0.0984998494386673,10.35292720794678,-0.20493106544017795,-2.029667854309082,-0.05411848425865173
5.043424606323242,0.04266306757926941,10.62870502471924,-0.3413806855678559,-2.4505205154418945,0.06804383546113969
4.864410400390625,-0.45865535736083984,10.927295684814453,-0.492087870836258,-2.9607641696929936,0.14792880415916443
4.464958190917969,-1.662567973136902,10.66497802734375,-0.5996133089065552,-3.594660043716431,0.13583126664161682
3.363949060440064,-2.7328097820281987,11.089917182922365,-0.6639420986175537,-4.362784862518311,0.027263553813099865
1.5283316373825075,-4.233232498168945,10.74904537200928,-0.5563656687736512,-5.419544219970703,-0.2423379868268967
1.0688087940216064,-3.6873912811279297,10.363075256347656,-0.31711402535438543,-6.748797893524171,-0.5697629451751709
2.6972031593322754,-2.8666293621063237,10.745893478393555,-0.22357092797756198,-8.161937713623047,-0.7929509282112123
3.063366413116455,-2.261348962783814,10.708409309387209,-0.2959023714065552,-9.611437797546388,-0.9924620985984803
5.035878658294679,-4.510298252105714,11.060415267944336,-0.36574018001556396,-11.138979911804201,-1.2969396114349365
12.599258422851562,-5.487074851989746,13.435775756835938,-0.363419771194458,-12.187923431396484,-1.5271884202957156
21.291854858398438,-5.143994331359863,14.652423858642578,-0.2843339145183564,-12.395427703857422,-1.8716899156570437
33.69260787963868,-5.347034454345703,13.091405868530273,-0.12566913664340976,-11.644319534301758,-2.160210609436035
40.91822814941406,-3.993957996368408,15.329654693603516,-0.8490067124366761,-10.478998184204102,-1.7829848527908327
28.859920501708984,-7.362319469451905,13.07400417327881,-1.3172816038131716,-9.525179862976076,-1.7468807697296143
26.262928009033203,-13.042906761169435,15.783990859985352,-1.0045582056045534,-8.992340087890625,-2.293340921401978
23.950889587402344,-10.651919364929201,19.416603088378906,-0.34903669357299805,-8.12757968902588,-2.7898747920989995
20.419818878173828,-10.131837844848633,22.420150756835938,-0.2402535378932953,-6.861493587493897,-2.746568202972412
7.254246711730957,-7.3897061347961435,15.13724136352539,-0.11194902658462524,-5.595064163208008,-2.403413057327271
39.87192916870118,-6.662357807159425,25.692602157592777,-0.2787720561027527,-4.279186725616456,-2.2634644508361816
29.05925750732422,-11.89586067199707,33.92124938964844,0.24205343425273898,-0.09119382500648499,-2.108499050140381
11.894734382629396,-9.37230968475342,23.943004608154297,0.6521703004837036,2.6952211856842045,-1.571770429611206
8.067618370056154,-8.599481582641602,19.382461547851562,1.2062759399414062,4.5027618408203125,-1.2711533308029177
4.47774362564087,-4.7006425857543945,13.688626289367678,1.3377928733825684,5.377296924591065,-1.1423976421356201
-0.010320477187633514,-3.059643268585205,9.62606430053711,1.0996974706649782,5.717497825622559,-0.9769288301467896
-2.9142858982086186,-2.653757095336914,6.457463741302491,0.7544576525688172,5.739835739135742,-0.7826606631278993
-2.9991571903228764,-2.6566381454467773,4.680163860321046,0.3980311155319214,5.58296012878418,-0.6115503907203675
-2.179606199264527,-2.26381778717041,4.479928970336914,0.03046042285859585,5.35598087310791,-0.451688438653946
0.5062841176986694,-1.9023636579513552,6.047107219696046,-0.37445133924484253,5.280469417572022,-0.19670842587947848
3.7682127952575684,-2.525384664535523,7.67855167388916,-0.6686331629753114,5.580948829650879,0.13525553047657016
5.01270341873169,-4.128652572631836,8.492082595825195,-0.6228154301643373,6.118413448333741,0.398287296295166
5.069962024688722,-4.9352383613586435,8.129472732543945,-0.2803427875041962,6.6203155517578125,0.5361986756324769
5.185872554779054,-4.199670314788819,7.377887725830078,0.09013155102729797,6.91602659225464,0.6136602759361268
6.274011611938477,-2.2532160282135014,7.034280300140382,0.2088586390018463,7.104340076446534,0.7683583498001099
7.188385009765625,-1.004118084907532,6.803129673004151,0.0407792329788208,7.277775764465332,1.0303944349288943
7.2618145942688,-0.9502743482589722,6.625826358795167,-0.2407076358795166,7.387694835662843,1.2942383289337158
7.279778957366944,-1.3549954891204834,6.701026439666749,-0.4274480938911438,7.399670124053956,1.5168138742446902
7.841344356536866,-2.073521137237549,7.316035747528077,-0.4701304733753205,7.319511413574219,1.682026267051697
9.2600793838501,-2.692775249481201,8.406168937683107,-0.369049221277237,7.199306011199952,1.8252403736114502
11.14788818359375,-2.4517400264739995,9.85582160949707,-0.17645540833473206,7.095893383026124,1.979224443435669
12.670922279357912,-1.498246431350708,11.225728988647461,-0.068752720952034,7.049955844879151,2.1282956600189213
13.875804901123047,-1.3124091625213623,12.394686698913576,-0.04232599586248398,7.023883342742921,2.2364697456359863
15.33672618865967,-1.307100772857666,13.615357398986818,-0.002907268702983856,6.978314399719238,2.2967393398284917
17.450391769409183,-1.35025954246521,15.098901748657227,0.03951599821448327,6.95159912109375,2.337044477462769
19.754240036010746,-1.6053692102432253,16.693614959716797,0.092044435441494,6.996295928955078,2.337052345275879
21.95107460021973,-2.7409181594848633,18.19514656066895,0.20496647059917453,7.09907341003418,2.263628244400025
24.50274467468262,-4.021364688873292,18.75584983825684,0.4345137178897858,7.172527790069581,2.1446571350097656
27.35995101928711,-3.6414911746978764,18.206523895263672,0.6523874402046205,7.16851806640625,2.017346620559693
30.14743423461914,-2.112053394317627,16.469095230102543,0.5259840488433838,7.092107295989991,1.845933794975281
32.377655029296875,-1.6568273305892947,13.12106704711914,0.022654889151453975,6.972713470458984,1.6168862581253054
32.441162109375,-0.6332669258117676,8.413435935974123,-0.6424885392189027,6.713381290435792,1.2102792263031006
35.22759628295899,6.442282676696777,1.4502599239349365,-1.856398582458496,6.334519863128663,0.730576753616333
38.18279647827149,13.582821846008303,-7.713932991027832,-4.049637317657472,5.857818603515625,0.6167243719100952
40.52448272705078,9.916997909545898,-19.623546600341797,-5.604507923126222,5.196949005126953,0.9865564703941346
39.709144592285156,-1.8536881208419802,-30.08422088623047,-4.658705711364746,3.892788887023926,1.0796335935592654
31.444644927978516,-6.68581485748291,-32.832618713378906,-1.4591263532638552,1.2163097858428955,0.4735680520534516
20.17888450622559,0.9164514541625977,-23.221595764160156,1.3834795951843262,-1.6529504060745241,-0.7150915265083314
21.78350067138672,7.044920444488526,-8.068566322326662,1.815252184867859,-3.23612642288208,-1.5053642988204958
17.49455070495606,-2.0634002685546875,2.1569163799285893,2.8170642852783203,-5.201197624206543,-1.671683192253113
-10.373179435729982,7.720503807067871,6.33321475982666,2.4156806468963627,-4.9811906814575195,-2.03589415550232
5.656867504119874,8.314210891723633,21.36266899108887,0.5071841478347778,-5.727677822113038,-1.7402697801589968
13.4599084854126,-5.507781505584718,15.13499641418457,-0.19951066374778748,-6.314109325408936,-2.032970428466797
32.31592178344727,-0.9115827083587646,17.55138206481934,0.20439140498638156,-5.956423282623292,-1.5143799781799316
31.86186790466309,-1.4970256090164187,19.6639404296875,-0.155726820230484,-4.696324825286866,-0.33781319856643677
24.917491912841797,-3.197132825851441,18.013013839721683,0.09435836225748064,-3.8016858100891113,-0.6196832656860352
17.105142593383793,-1.8699848651885986,15.598095893859865,0.11841822415590288,-2.9822750091552734,-0.6771798729896547
10.614311218261719,0.620952844619751,11.75869655609131,0.15534366667270663,-2.474281549453736,-0.5788736343383789
9.726181983947756,0.36344233155250555,10.832827568054201,0.31205499172210693,-2.030098199844361,-0.8836886882781982
13.752098083496094,-3.6085433959960938,11.838361740112305,0.5513272881507875,-1.3080079555511475,-1.04317045211792
8.78893566131592,-4.017546176910401,9.638004302978516,0.7405490875244141,-0.8134309649467469,-0.7990206480026245
8.490000724792482,0.6643523573875428,11.562382698059084,0.6765719056129457,-0.6463852524757386,-0.511616587638855
7.010481834411621,0.8470809459686279,10.533562660217287,0.5509313344955444,-0.274363785982132,-0.4120623469352722
5.044683456420898,-2.024725198745728,9.618492126464844,0.3662278354167939,-0.2369307577610016,-0.2756888270378113
4.838560581207276,-0.9152130484580995,10.145770072937013,0.21095125377178195,-0.2257665991783142,-0.1929707378149033
4.793934345245362,-0.9399372935295106,10.171199798583984,0.1572460383176804,-0.22271822392940524,-0.20159024000167847
4.890596389770508,-1.221208095550537,10.078556060791016,0.06612137705087663,-0.2781568169593811,-0.1685847193002701
5.414315223693848,-1.0238118171691895,9.772000312805178,0.02251056581735611,-0.26179990172386175,-0.17564596235752108
5.354177474975586,-0.8567245602607728,9.534461975097656,0.03133934736251831,-0.2278740853071213,-0.1507781445980072
5.523830413818359,-0.34288811683654785,9.722288131713867,0.02730611898005009,-0.22043545544147494,-0.10367660224437714
5.745306015014648,-0.7777249813079834,9.652660369873047,-0.010823446325957777,-0.19724348187446594,-0.024705933406949047
5.523107528686523,-0.9491115212440492,9.504396438598633,-0.06257717311382294,-0.1674531847238541,0.032392766326665885
5.343057632446289,-0.6001463532447816,9.493326187133789,-0.11965588480234148,-0.14953142404556274,0.061538141220808036
5.0649614334106445,-0.9041904211044312,9.439770698547365,-0.16443569958209994,-0.14755736291408542,0.07825613021850586
4.75773572921753,-1.4909894466400146,9.280333518981935,-0.1882941722869873,-0.19372870028018954,0.07214055955410004
4.816100597381593,-1.831966042518616,9.08857822418213,-0.1630019694566727,-0.24174872040748596,0.037376098334789276
4.9353041648864755,-1.9030090570449831,8.890668869018555,-0.12989526987075806,-0.2519716322422028,-0.003569170832633972
4.927906036376953,-1.776644825935364,8.791521072387695,-0.09573466330766679,-0.2546278536319733,-0.028107523918151855
5.075178623199464,-1.8171950578689577,8.84260654449463,-0.07899884879589081,-0.24852009117603305,-0.052662819623947144
5.017887592315675,-1.685612678527832,8.876088142395021,-0.06188225746154785,-0.23279221355915072,-0.0797189846634865
5.12414312362671,-1.6666882038116455,8.80897617340088,-0.05031588673591614,-0.21826146543025973,-0.108618825674057
5.187948226928711,-1.639317870140076,8.669459342956545,-0.023577909916639328,-0.1878553330898285,-0.1317936331033707
5.135106563568116,-1.599442481994629,8.597049713134766,0.013247967697679998,-0.1517479419708252,-0.1599945276975632
4.746062755584718,-1.776102066040039,8.542189598083498,0.062296550720930106,-0.12712273001670837,-0.2065163552761078
4.431220531463624,-2.089354991912842,8.690745353698732,0.12382340431213379,-0.13328789174556735,-0.2958713173866272
4.321592330932617,-1.972952723503113,8.971415519714357,0.18761107325553894,-0.1701289713382721,-0.3830507099628449
4.613438606262207,-1.398364543914795,9.111454963684084,0.2149132788181305,-0.21912761032581332,-0.43769949674606323
5.012377262115479,-0.6543442606925965,9.382997512817383,0.17303580045700073,-0.2746367752552033,-0.4385667741298676
5.213539600372315,-0.3883066773414612,9.469022750854492,0.09754662960767747,-0.3205312490463257,-0.4027082026004792
5.174416542053223,-0.5669173002243042,9.393875122070312,0.0359061323106289,-0.3816561400890351,-0.3696432113647461
5.199618816375733,-0.4472231566905976,9.465628623962404,-0.020492449402809143,-0.46743461489677435,-0.33818519115448
5.088343143463136,-0.48348355293273926,9.416903495788576,-0.05076290294528008,-0.5749999284744263,-0.2997560501098633
5.305884838104249,-0.33654332160949707,9.555757522583008,-0.05374529957771301,-0.7138448357582093,-0.25796568393707275
5.288565158843995,-0.24942623078823092,9.565561294555664,-0.05005844309926034,-0.8877350687980653,-0.17253363132476807
4.829839706420898,-0.40171486139297485,9.52804470062256,-0.08398016542196275,-1.063936710357666,-0.08960480242967607
4.348214626312257,-0.8514646291732788,9.765372276306154,-0.12414804846048356,-1.2796039581298828,-0.05522116273641586
4.1582746505737305,-0.8611364960670472,10.121217727661133,-0.15615667402744296,-1.5658516883850098,-0.05893925204873086
4.169292449951172,-0.8594965934753418,10.373583793640138,-0.22261308133602145,-1.9327365159988406,-0.0756203830242157
4.511751651763917,-0.44491344690322876,10.321149826049805,-0.30973678827285767,-2.335090875625611,-0.06857630610466003
4.680190086364746,-0.22352451086044312,10.224401473999023,-0.3577732443809509,-2.765966176986695,-0.05412667617201806
4.930934429168702,-0.02889561653137207,10.151363372802734,-0.3751542568206787,-3.265898942947388,-0.06467191874980927
5.119942665100098,-0.093706876039505,10.498608589172365,-0.47157609462738037,-3.7938365936279297,-0.06559266895055772
3.6252930164337163,-2.080365419387818,10.735668182373047,-0.5546934008598329,-4.4133148193359375,-0.1328183859586716
1.7918006181716921,-4.263669967651367,10.224355697631836,-0.5031352043151855,-5.306661128997804,-0.36905130743980413
1.7735412120819092,-4.805610179901124,9.718478202819826,-0.2598282396793366,-6.475028038024902,-0.7791941761970521
2.68593168258667,-4.914058685302734,9.968420982360842,-0.0326378270983696,-7.798303604125977,-1.1451548337936404
4.125918388366699,-3.079665184020996,10.396705627441406,0.05649964511394501,-9.275685310363771,-1.4129061698913574
4.052142620086671,-2.9074656963348393,10.161493301391602,0.05981515347957611,-10.764897346496584,-1.7872422933578493
10.737173080444336,-4.379707336425781,11.271293640136719,-0.08746784925460815,-12.108483314514162,-2.0632123947143555
20.692779541015625,-4.406439781188965,13.825953483581545,-0.2863281071186066,-12.741547584533693,-2.2190637588500977
33.751434326171875,-2.8623547554016113,14.566171646118164,-0.18667614459991455,-12.164111137390138,-2.5100326538085938
41.17230606079102,-1.1446317434310915,13.907249450683594,-0.2410128116607666,-10.702227592468263,-2.2800323963165288
37.236122131347656,-5.152998447418214,13.112983703613281,-1.2884899377822878,-9.487653732299805,-1.556312441825867
27.548620223999027,-10.890509605407717,16.428880691528324,-1.3559925556182861,-8.540983200073242,-1.802937150001526
21.957279205322266,-8.957407951354982,21.14446830749512,-1.3213729858398438,-7.73388433456421,-2.161203384399414
17.425697326660156,-7.813504219055176,21.726739883422855,-1.1266686916351318,-6.778846263885499,-2.218197107315064
6.216196537017823,-8.58046054840088,10.947682380676271,-0.18020190298557284,-6.397391319274902,-2.5365207195281987
36.114459991455085,-8.55489253997803,20.694454193115234,0.19067041575908664,-5.42574167251587,-2.739276885986328
28.55703353881836,-10.512826919555664,31.566566467285156,0.6575186848640443,-1.9765021800994873,-2.535237073898316
14.359040260314943,-7.564441680908203,23.58116912841797,1.1097265481948855,0.759956955909729,-2.0289363861083984
12.239646911621094,-6.253324508666992,20.658794403076172,1.169457793235779,3.01143217086792,-1.3573454618453982
8.092566490173342,-4.001166820526124,14.993448257446289,0.9541410207748413,4.430417060852051,-0.9054313302040101
4.4220170974731445,-2.7852702140808105,11.277908325195312,0.5415713787078857,5.37671709060669,-0.49342626333236694
3.1607861518859863,-2.8746664524078374,8.509852409362795,0.15944603085517883,5.866636753082276,-0.14803276956081393
0.8260942697525024,-3.05288577079773,5.86061954498291,-0.11968886107206346,6.000299453735352,0.1418823450803757
-1.0219194889068604,-3.5855822563171387,4.278485298156738,-0.29155120253562933,5.906601428985597,0.3707658052444458
-0.47862288355827337,-3.1915147304534917,4.291534423828125,-0.3309609293937683,5.7385621070861825,0.5205841064453125
1.3222483396530154,-2.3154561519622807,5.0687575340271005,-0.4072368443012238,5.6860551834106445,0.7135328054428101
3.1242744922637944,-1.804819464683533,6.012648105621339,-0.5824925303459169,5.793648719787598,0.9554501175880433
3.8979406356811523,-1.614121675491333,6.496755599975586,-0.7217747569084169,6.032933712005616,1.212897777557373
4.149085998535156,-1.543372988700867,6.6016387939453125,-0.7602050900459291,6.282414436340332,1.4328459501266482
4.282893180847168,-0.9928249716758729,6.639669418334961,-0.7499372959136963,6.428088665008546,1.5942915678024294
5.643410205841065,-0.048581965267658234,7.086977005004883,-0.765978217124939,6.5180115699768075,1.7452888488769531
7.409834861755371,0.5170304775238037,7.810389518737793,-0.8437358736991883,6.688104152679444,1.8878438472747803
8.619613647460938,0.5299147367477417,8.403971672058107,-0.8933594822883607,6.921940803527832,1.9825488328933718
9.142343521118164,0.17644920945167542,8.72018051147461,-0.8199902176856996,7.149077415466309,2.0105791091918945
9.173586845397951,0.15180064737796786,8.799358367919922,-0.6845780611038208,7.3069472312927255,1.9811317920684814
9.60568618774414,0.4590010643005371,8.959562301635742,-0.5462591648101807,7.360915184020996,1.9548951387405398
10.380348205566406,1.0941940546035769,9.58504867553711,-0.4855535626411438,7.341723918914796,1.9806487560272217
11.742879867553711,1.421840310096741,10.79917621612549,-0.545501708984375,7.298710346221925,2.0281627178192143
13.297492980957031,1.0869768857955935,12.252285957336428,-0.5929518342018129,7.275240898132324,2.0588238239288335
15.036905288696289,0.3510014712810517,13.927874565124513,-0.5494366288185121,7.273695468902589,2.044908046722412
17.407213211059574,-0.42215973138809204,15.564800262451172,-0.36289340257644653,7.290730953216554,2.0121803283691406
19.40471649169922,-0.5023414492607118,16.822610855102543,-0.11497993022203447,7.317562103271484,1.9933948516845703
21.522232055664062,-0.37994617223739624,17.80533027648926,0.056194454431533813,7.299624919891358,1.9857914447784424
24.244337081909183,-0.506784200668335,18.766122817993168,0.128868505358696,7.210639476776124,2.0295071601867676
28.104303359985355,-0.3123214840888977,19.34499740600586,0.15619562566280368,7.058266639709473,2.099159479141236
32.56988906860352,0.6869254112243652,18.64104270935059,0.04434150084853173,6.883879661560059,2.0970258712768555
36.34233474731446,0.27871778607368475,16.20657730102539,-0.3046002984046936,6.75990915298462,1.9174809455871582
39.54204177856446,1.3944284915924072,10.07154655456543,-0.6546803116798402,6.733452320098878,1.4023220539093018
41.73645401000977,8.014706611633303,-1.5785491466522217,-1.4580992460250857,6.804843902587891,0.8914217352867128
44.065998077392585,12.543835639953615,-18.09148216247559,-2.9749364852905273,6.543477535247804,0.5244688391685487
46.84019470214844,5.81003475189209,-35.910400390625,-3.8310172557830815,5.595041275024414,0.5187657475471498
36.510169982910156,0.8790248036384584,-42.99807357788087,-2.9295639991760254,2.886772632598877,0.4018847048282624
18.549139022827152,-1.9674413204193115,-33.954296112060554,-1.202203154563904,-0.8958487510681152,-0.3516398370265961
17.36735343933106,-0.747163474559784,-16.9913330078125,0.5549492239952089,-3.663668155670166,-1.610823154449463
10.308568954467773,-5.555242538452148,4.481546878814698,2.3717091083526616,-5.266940116882324,-1.9941164255142214
13.085851669311523,-3.5581996440887456,13.031500816345217,3.6431725025177006,-5.445989131927491,-2.176541328430176
5.991415023803711,4.986011981964112,17.811176300048828,2.3274071216583256,-5.303777694702148,-1.7428587675094607
2.90338683128357,-0.4727056622505188,15.377270698547365,0.5115401148796083,-5.261706352233887,-1.0912644863128662
22.216985702514652,-1.156416893005371,13.013471603393555,0.2925484776496887,-5.781146526336671,-0.9937343597412109
37.30156326293946,7.485163688659668,22.096071243286136,0.18128401041030884,-4.759289741516113,-0.398404747247696
31.337543487548828,5.22767210006714,20.76906776428223,0.049298923462629325,-3.3667492866516113,-0.6073538661003114
17.549600601196293,-0.14730878174304965,15.942341804504396,0.18931537866592407,-2.5725843906402592,-1.1103607416152956
10.198171615600586,-4.886714458465577,12.334842681884766,0.21055522561073303,-2.141846895217896,-0.983543872833252
7.19103765487671,-2.0190412998199467,9.948781013488771,0.5532182455062866,-1.8877711296081543,-1.008252263069153
10.736855506896974,4.062261104583741,12.136080741882326,0.6462971568107606,-1.5342345237731934,-1.17684543132782
10.227457046508789,0.11980783939361572,11.402335166931154,0.7895085215568544,-0.7242405414581299,-1.3617103099822998
7.396958827972413,-6.808199405670167,9.2510986328125,1.0558836460113525,-0.638946831226349,-1.1968746185302734
9.132952690124513,-2.41110110282898,11.16100597381592,0.9310801029205322,-0.4671444892883301,-0.708113729953766
6.488316535949707,3.5549857616424565,11.141602516174318,0.687837064266205,-0.23303303122520447,-0.5060382485389711
6.541248798370362,-1.1053235530853271,10.03151035308838,0.4310518503189087,-0.10775253921747209,-0.38141474127769476
5.614881038665772,-0.6805405616760254,10.315066337585451,0.3663457930088044,-0.05557514727115631,-0.25677153468132025
5.448844432830811,-0.16980025172233582,10.34136486053467,0.3328327834606171,-0.0428917519748211,-0.2228272259235382
5.341208457946777,-0.5115318298339844,10.060155868530273,0.2543639540672302,-0.02772513218224049,-0.17131003737449646
4.416916847229004,-0.28191936016082764,9.689019203186037,0.19054877758026123,-0.050121564418077476,-0.135678306221962
4.616167068481445,-0.5797529220581055,9.679211616516115,0.13796870410442355,-0.09853434562683105,-0.10960327833890916
4.920637130737305,-0.4479984343051911,9.573186874389648,0.10118000954389574,-0.11907117813825609,-0.06546229124069214
4.883394241333008,-0.48650479316711426,9.517762184143068,0.05024288967251778,-0.11281655728816986,-0.024025036022067073
4.933250427246094,-0.8431710600852967,9.469707489013672,0.01680630072951317,-0.10490358620882036,0.0025666730944067244
4.986576557159425,-0.9328651428222656,9.4810266494751,-0.013657593168318273,-0.09945341944694519,0.024002404883503917
4.914687156677246,-1.0295404195785525,9.29786491394043,-0.031586796045303345,-0.09781083464622498,0.02869006805121899
4.842326641082765,-1.038549065589905,9.192505836486818,-0.009727002121508123,-0.11487029492855072,0.022285958752036098
4.6873626708984375,-1.2423906326293945,9.06832790374756,0.009686055593192579,-0.11439286172389984,-0.001695861341431737
4.768583297729492,-1.080639958381653,9.071999549865724,0.04380311071872711,-0.12135969847440721,-0.02749883383512497
4.500541210174561,-1.094686508178711,9.059150695800781,0.06368966400623322,-0.12435877323150635,-0.059312004595994956
4.706545352935792,-0.9967136383056641,9.09161376953125,0.0847371891140938,-0.12997493147850037,-0.09855299443006517
4.576167106628418,-0.9878578782081605,9.011509895324709,0.09559158980846405,-0.1294137388467789,-0.12853108346462253
4.339035987854004,-0.9776390790939331,9.140812873840334,0.10511268675327301,-0.1591555625200272,-0.162769615650177
4.839547634124757,-0.7077805995941162,9.23186779022217,0.10868971049785614,-0.19095081090927124,-0.18734066188335421
4.784409523010254,-0.4202768802642822,9.113234519958498,0.09231753647327423,-0.19529403746128085,-0.191425621509552
4.525884151458741,-0.5790309906005859,9.33875370025635,0.07481390237808228,-0.21574027836322787,-0.20809705555438998
