AccX,AccY,AccZ,GyrX,GyrY,GyrZ
0.00021628964168485257,-3.085873322561383e-05,0.0004043889930471778,-2.190671111179654e-08,-7.429767947542132e-07,-5.214889711169236e-07
4.933400630950929,-0.7073153257369995,9.28270149230957,-0.000781386042945087,-0.016270874068140987,-0.010468689724802971
4.93545961380005,-0.7314848899841309,9.280718803405763,0.0006618014886043967,-0.018101807683706284,-0.01114494539797306
4.9512677192688,-0.7427339553833008,9.27876949310303,-0.0016840780153870583,-0.018852258101105693,-0.01451105810701847
4.981766223907472,-0.7081374526023866,9.255720138549805,0.0002865120186470449,-0.016868289560079575,-0.014171351678669454
5.000781536102296,-0.6904233098030091,9.292169570922852,-0.00026678314316086477,-0.01402028277516365,-0.013060190714895727
4.984727382659913,-0.6910604834556581,9.267840385437013,-0.0004166788421571255,-0.01319717522710562,-0.009800606407225134
4.978427410125733,-0.7115987539291382,9.280153274536133,0.0002250922261737287,-0.011467198841273786,-0.010287601500749588
4.965341091156007,-0.7445961236953735,9.268031120300295,-0.00040337574318982666,-0.009813196025788786,-0.012045029550790787
4.9712185859680185,-0.7160350680351258,9.294356346130373,0.001159994164481759,-0.009308353997766973,-0.011983420699834824
4.952707767486573,-0.7192453742027284,9.312296867370607,0.00035194173688068986,-0.011779247783124449,-0.01068983878940344
4.987978458404542,-0.7096637487411499,9.278884887695312,0.0007820718456059694,-0.011840651743113996,-0.010701190680265427
4.952057361602784,-0.701802134513855,9.261216163635256,4.372167313704267e-05,-0.013966724276542664,-0.00985411833971739
4.9778790473938,-0.7105522155761719,9.273400306701662,-0.0006599651533178986,-0.013249032199382782,-0.009314323775470259
4.960619926452637,-0.7350616455078125,9.282021522521974,-0.00013362361642066392,-0.011385999619960785,-0.011588558554649353
4.951704502105714,-0.7232553958892822,9.28762722015381,-0.0006420703721232713,-0.015449121594429016,-0.011496751569211485
4.988698482513429,-0.6769124269485474,9.281153678894045,-0.001394355669617653,-0.01732872799038887,-0.011104910634458067
4.995610713958741,-0.6870115399360658,9.272255897521974,-0.004739169962704182,-0.01561418827623129,-0.010356375947594643
5.002641677856445,-0.7134218811988832,9.278006553649904,-0.004233684856444598,-0.014269731938838959,-0.009225092828273773
4.99165964126587,-0.7342793941497803,9.276055335998537,-0.001472295494750142,-0.011107697151601316,-0.007525968365371227
4.98973035812378,-0.7032424211502075,9.236808776855469,0.0014310922706499698,-0.01065638940781355,-0.010330786928534508
4.969386100769043,-0.7216534018516542,9.259236335754396,0.00017899049271363768,-0.007465452887117863,-0.008995174430310728
4.950897216796875,-0.735148847103119,9.256014823913576,-0.0009621507488191128,-0.005106262397021056,-0.010228746570646765
4.969871997833253,-0.7230143547058105,9.28219509124756,0.0032896590419113636,-0.008186117745935919,-0.011598380282521248
4.975152015686035,-0.6957284212112427,9.272875785827638,0.0012504017213359477,-0.006760998163372279,-0.010758772492408752
4.933591842651367,-0.6867315769195557,9.274502754211428,0.0006195013993419708,-0.009608404710888863,-0.01033382397145033
4.974099636077882,-0.7473409175872803,9.268097877502443,0.0019781901501119137,-0.009965308941900732,-0.01079139392822981
4.973957061767578,-0.7375607490539551,9.24395275115967,0.0025965038221329455,-0.010284043848514557,-0.01136151608079672
4.970696449279785,-0.6944618821144105,9.255525588989258,0.002290113363415003,-0.01060822606086731,-0.01041552145034075
4.9669814109802255,-0.6931936740875244,9.278646469116211,0.00013556526391766965,-0.009698848240077497,-0.00963970459997654
4.965506553649902,-0.7365968823432923,9.301902770996094,-0.0017900243401527405,-0.012951008044183256,-0.0091440761461854
4.976142883300781,-0.7136091589927674,9.283069610595703,0.00037325787707231944,-0.012416921555995941,-0.011096405796706678
4.974435329437257,-0.7008837461471558,9.28729248046875,0.0007807145593687892,-0.015443120151758194,-0.008474291302263738
4.983813285827637,-0.7068582773208618,9.296972274780273,-0.00037670216988772154,-0.01456499192863703,-0.00783616304397583
4.971564292907715,-0.7337225675582886,9.277506828308107,0.0003058041329495609,-0.01234859135001898,-0.009828328154981138
4.972848892211914,-0.7252899408340454,9.281601905822756,0.0007950383005663753,-0.014122209511697294,-0.009753404185175896
4.944735527038574,-0.7205225229263306,9.239687919616701,0.0010351309319958093,-0.011147971265017988,-0.010063767433166504
4.964517593383789,-0.7339974641799927,9.25938606262207,0.0016980482032522561,-0.013177672401070595,-0.013195422478020193
4.978473186492921,-0.6885590553283691,9.288516044616701,0.0024774156045168643,-0.010976100340485573,-0.013425247743725777
4.956643581390382,-0.737924337387085,9.260470390319826,0.00036702372017316526,-0.013891706243157387,-0.012714599259197714
4.972617149353027,-0.7155736088752748,9.30162239074707,-9.340194083051757e-05,-0.014850006438791754,-0.012690329924225807
4.984641075134277,-0.7039056420326234,9.311134338378906,-0.0001552916073706001,-0.016075329855084423,-0.011404847726225853
4.965004920959473,-0.6986549496650697,9.299951553344727,-0.0027171229012310505,-0.01559767033904791,-0.012729379348456861
4.966952800750733,-0.7268680334091187,9.245760917663576,-0.0031687344890087847,-0.016100559383630753,-0.012151812203228475
4.952568531036378,-0.7177155017852783,9.265829086303711,-0.002886285306885839,-0.016226610168814663,-0.011684589087963104
4.968655586242676,-0.7371648550033569,9.287979125976562,-0.0015483263414353132,-0.016312422230839733,-0.013310778886079788
4.972216606140137,-0.7314490079879761,9.260921478271484,0.0013853446580469608,-0.01623753644526005,-0.013517054729163648
4.959946155548097,-0.7285717725753784,9.269965171813967,0.0008294370491057634,-0.013696375302970411,-0.013460259884595871
4.990159034729004,-0.6866851449012757,9.279829978942873,0.0013472080463543536,-0.014978556893765928,-0.013094507157802582
4.986191749572754,-0.6839414834976196,9.276665687561037,-0.0008380772196687759,-0.012921908870339394,-0.011758836917579176
4.971468925476074,-0.7355085611343384,9.250995635986328,0.0007921212818473577,-0.013155872933566572,-0.009656910784542562
4.973278999328613,-0.7108982801437378,9.260427474975586,0.0005497008096426725,-0.01258282456547022,-0.010694503784179688
4.9487199783325195,-0.7086979150772095,9.29018306732178,-0.0008932525524869561,-0.01426723413169384,-0.011163304559886457
4.940686702728272,-0.7466034889221191,9.28518581390381,-0.0009732877369970083,-0.01659147255122662,-0.011196894571185112
4.9570374488830575,-0.6978664398193359,9.292041778564453,-0.00252926372922957,-0.01967654749751091,-0.011886456981301308
4.965049743652344,-0.7180166244506836,9.269091606140138,-0.0031123459339141846,-0.019469065591692928,-0.011380605399608612
4.961579322814941,-0.732845664024353,9.27952766418457,-0.0038498837966471915,-0.022158296778798107,-0.012265268713235855
4.975447177886964,-0.6935921907424927,9.267375946044922,-0.0039840429089963445,-0.02114810422062874,-0.011408149264752867
5.010711669921875,-0.6957424879074097,9.28871822357178,-0.00459103798493743,-0.019275609403848648,-0.010942911729216576
5.00955629348755,-0.7253685593605043,9.255722999572756,-0.0046177669428288945,-0.015668686479330063,-0.006609447766095401
4.98447322845459,-0.7356948852539062,9.240672111511232,-0.0025073161814361815,-0.013129659928381445,-0.007503761909902096
4.9705047607421875,-0.7499578595161439,9.293380737304688,0.0011063332203775644,-0.01210578065365553,-0.008485440164804459
4.964288234710694,-0.7447201609611512,9.296871185302734,0.0008414976764470339,-0.011725795455276968,-0.012128707952797415
4.978091239929199,-0.7037786245346069,9.269251823425295,0.0007241101702675223,-0.012699400074779989,-0.011140737682580948
4.970610141754151,-0.7023683190345765,9.281090736389162,0.00023364953813143075,-0.014981439337134361,-0.011631575413048269
4.994082450866699,-0.7339245676994325,9.27982807159424,0.0021577246952801947,-0.011359816417098045,-0.011428746394813062
4.961130619049073,-0.7100099325180054,9.267046928405763,0.0021994165144860744,-0.013444495387375357,-0.012587477453053
4.984907150268555,-0.7339913249015809,9.251000404357912,0.0030980629380792384,-0.010991882532835007,-0.01294564548879862
4.976142883300781,-0.7269679307937622,9.284930229187013,0.0024750248994678263,-0.013208427466452123,-0.011996408924460411
4.979860305786133,-0.7155495882034302,9.279721260070803,0.002807821147143841,-0.010987280867993833,-0.013075405731797218
4.952263355255128,-0.6897209882736206,9.285744667053224,0.0008423930266872048,-0.01278518605977297,-0.012121182866394522
5.01210880279541,-0.7015535831451416,9.27525520324707,-0.00046267206198535865,-0.014972357079386711,-0.011264047585427763
4.989724636077882,-0.6995860934257508,9.266229629516602,-0.0006897259736433625,-0.013304580003023148,-0.011345610953867437
4.975377559661866,-0.7083746790885926,9.282816886901857,-0.0004899537889286876,-0.012556469999253752,-0.010596469044685364
5.017999649047852,-0.7270311117172241,9.298129081726076,-0.00039190388633869594,-0.013331392779946327,-0.009884718805551529
4.967118740081788,-0.6944574117660522,9.27015495300293,-0.0015657877083867788,-0.012844773940742018,-0.009744644165039062
4.970737457275391,-0.7334566712379457,9.256156921386719,-0.002605398884043098,-0.01304715219885111,-0.010082842782139778
4.9591689109802255,-0.7242403030395508,9.286442756652834,-0.0010856165317818525,-0.014295363798737526,-0.010832506231963636
4.94210147857666,-0.7505861520767212,9.276276588439943,0.0004084565152879805,-0.014858203008770943,-0.013289283961057663
4.98781681060791,-0.7183610200881958,9.292936325073242,0.0009490529191680254,-0.01745148003101349,-0.014840410090982916
4.99468755722046,-0.6945505738258363,9.260496139526367,-0.0014616317348554733,-0.017325403168797496,-0.012048173695802689
4.992720127105714,-0.7008806467056274,9.262748718261719,-4.909091148874723e-05,-0.015399452298879623,-0.010863342322409155
4.966106414794922,-0.7470917105674745,9.272663116455078,0.001061870367266238,-0.014343410730361938,-0.011747341603040695
4.965829372406007,-0.7151904106140137,9.275918006896974,0.00022005899518262598,-0.015345172956585884,-0.012797192670404913
4.985080242156983,-0.6678306460380555,9.261491775512695,-0.0016772709786891937,-0.016311686486005783,-0.00984169449657202
4.979338169097901,-0.7020690441131592,9.262259483337404,-0.004136073403060436,-0.017838971689343456,-0.010251808911561966
4.983598232269288,-0.7105401158332826,9.253349304199219,-0.003224691608920694,-0.016485661268234253,-0.010121475905179977
4.9771695137023935,-0.7488620281219482,9.249957084655763,-0.00425872439518571,-0.017341535538434982,-0.011691673658788206
4.974608421325684,-0.7321439385414125,9.26949214935303,-0.003300376003608108,-0.018264992162585262,-0.01042230799794197
4.997860908508301,-0.7024258375167847,9.261207580566406,-0.0019500688649713993,-0.017879394814372066,-0.010217465460300446
5.001335620880128,-0.7272706627845765,9.255181312561037,-0.003795287571847439,-0.016451826319098476,-0.009643453173339369
4.983371734619141,-0.7432947754859925,9.268550872802734,-0.002790860598906875,-0.015699487179517746,-0.009742307476699354
4.969693660736085,-0.7457284927368164,9.285654067993164,3.9470603951485834e-05,-0.016875511035323146,-0.01327606663107872
4.992561340332031,-0.7232486605644227,9.291316986083984,-0.001502597937360406,-0.01945200748741627,-0.015349535271525383
5.017413139343262,-0.6822199821472168,9.283008575439453,-0.002579621970653534,-0.018345108255743984,-0.012784860096871855
5.0234880447387695,-0.7178747653961182,9.270999908447266,-0.003087683347985149,-0.015199942514300346,-0.009716517291963102
5.02423906326294,-0.7214506268501283,9.236550331115724,-0.003949602600187064,-0.01283931825309992,-0.009179841727018356
5.015800952911378,-0.6951535940170288,9.242354393005373,-0.00013896444579586387,-0.009567887522280218,-0.008068528026342392
5.003678798675538,-0.730829417705536,9.250399589538576,-0.0015743159456178548,-0.008482884615659714,-0.0072984276339411736
4.980735301971436,-0.7226244211196899,9.264916419982912,-0.0009111040853895248,-0.0068336958065629005,-0.007001011166721583
4.915750026702882,-0.746169924736023,9.294796943664553,-0.0019973164889961485,-0.010357824154198171,-0.011146649718284607
4.971015930175781,-0.7464752793312074,9.298639297485352,0.0014126504538580777,-0.012792522087693214,-0.0119445463642478
4.9914002418518075,-0.6966202259063721,9.287978172302248,-0.0021986239589750767,-0.014809534884989263,-0.012345843948423864
5.02379035949707,-0.7138029336929321,9.285803794860842,-0.0004673522780649364,-0.012311204336583616,-0.011871548369526863
5.024330139160156,-0.6790120601654053,9.240370750427248,-0.0014374738093465567,-0.011640898883342743,-0.010745224542915823
4.991806507110597,-0.7016443610191346,9.240266799926758,0.00015405534941237423,-0.009213954210281372,-0.006922734435647727
4.9794678688049325,-0.7102665901184082,9.260335922241211,-6.813255458837376e-05,-0.008240582421422005,-0.007824113592505455
4.940761566162109,-0.7634289264678955,9.303336143493654,0.0009859303245320918,-0.011046083644032478,-0.010736280120909216
4.971759796142578,-0.721858322620392,9.29765033721924,0.0004918830236420035,-0.012928219512104988,-0.011462681926786901
4.9907426834106445,-0.6649302244186401,9.239595413208008,-0.0017540385015308857,-0.01448855269700289,-0.011913221329450607
4.98560380935669,-0.7231842875480653,9.251007080078125,-0.0020076679065823555,-0.013584748841822149,-0.010769442655146124
4.981940269470215,-0.7202643752098085,9.246615409851076,-0.00037288758903741837,-0.01234445068985224,-0.011357979848980904
5.011548042297363,-0.7033339738845825,9.264939308166506,-0.0001773985422914848,-0.011724800802767278,-0.009377354755997658
5.003540515899659,-0.7399997711181641,9.263489723205568,0.0003014557296410203,-0.008905266411602499,-0.011426711454987526
4.993797302246094,-0.7187559008598329,9.266014099121094,0.002253375248983503,-0.008423026651144028,-0.01329994946718216
4.98156499862671,-0.6937770247459413,9.267739295959474,0.00025171702145598834,-0.009584246203303337,-0.011211964301764967
5.002758979797363,-0.7379614114761353,9.258959770202638,0.0016030677361413839,-0.008501612581312658,-0.011066790670156479
4.980931282043457,-0.6917194724082948,9.258364677429201,0.001432653400115669,-0.0102000180631876,-0.008330882526934149
4.986225605010987,-0.7127507925033569,9.286476135253906,-8.034571510506795e-05,-0.010470269247889519,-0.00813714973628521
4.982425689697266,-0.7197537422180176,9.28755283355713,-0.0017569861374795437,-0.011825515888631346,-0.007844245061278343
4.999268531799316,-0.7096059918403627,9.298175811767578,-0.0007688309997320175,-0.010249221697449684,-0.00810487847775221
4.970597743988038,-0.7343067526817323,9.253258705139162,-0.0005994943203404546,-0.010932466946542265,-0.00968201458454132
4.988131046295167,-0.7332499027252197,9.272688865661623,3.404041490284726e-05,-0.010317663662135603,-0.010861291550099851
4.966498374938965,-0.7219393253326416,9.267866134643555,-0.0025235088542103767,-0.01082731503993273,-0.009601935744285583
5.01450252532959,-0.7064964175224305,9.282716751098633,-0.001258287811651826,-0.01280369982123375,-0.009926103986799719
4.983763694763184,-0.7189986705780029,9.251239776611328,-0.00230736518278718,-0.012016781605780126,-0.009227104485034943
4.977520465850831,-0.6942211985588075,9.269820213317873,-0.0010107336565852165,-0.013628839515149595,-0.008556813932955267
4.992327690124512,-0.6935281753540039,9.271614074707031,-0.003551118774339557,-0.01099165715277195,-0.00788391660898924
4.98127031326294,-0.719964861869812,9.264843940734865,-0.0029220846481621265,-0.012138433754444122,-0.008383709006011488
4.970159530639648,-0.7658314108848573,9.258454322814943,-0.001540841767564416,-0.01178597938269377,-0.009017940610647202
4.985489845275879,-0.7282613515853882,9.29323959350586,-0.0016508513363078239,-0.012972820550203323,-0.009059812873601913
4.988630294799805,-0.6979421377182007,9.267892837524414,-0.0015826270682737233,-0.011154120787978172,-0.00931914057582617
4.987811565399171,-0.7403022646903993,9.234121322631836,-0.0017407544655725362,-0.011480784974992277,-0.008262835443019867
4.977508544921875,-0.7647377848625184,9.254522323608398,-0.0010748658096417787,-0.009805092588067055,-0.010536725632846357
4.9676575660705575,-0.7183930277824403,9.25973415374756,0.0006479324656538666,-0.011094432324171066,-0.010309489443898201
4.960109710693359,-0.7171546220779419,9.246952056884766,0.0005057111266069115,-0.010240700095891953,-0.01080757286399603
4.992515563964844,-0.7289189696311952,9.28811264038086,0.0004617790109477937,-0.012935169041156769,-0.00942517537623644
5.007671356201172,-0.6835622787475586,9.254003524780273,-0.002219957066699863,-0.014397520571947098,-0.01027959678322077
5.003826141357422,-0.6888819932937622,9.260809898376467,-0.0018167415400967004,-0.014092225581407547,-0.007515352219343185
5.008203506469727,-0.7514095902442933,9.256683349609375,-0.0016412291442975404,-0.012240108102560043,-0.008503378368914129
4.987680912017823,-0.7289977073669434,9.294294357299805,0.0001779703743522987,-0.011079872958362104,-0.00816936045885086
4.9796600341796875,-0.7064766883850098,9.275806427001953,-0.0020901914685964584,-0.012851231731474401,-0.009267117828130722
5.016491413116456,-0.6856502890586854,9.271673202514648,-0.005026893224567176,-0.013679414987564087,-0.007542702369391918
4.99992561340332,-0.7087098956108094,9.264370918273928,-0.006532594095915557,-0.010201619938015938,-0.007058163639158011
4.999965667724609,-0.7634849548339844,9.263338088989258,-0.0024818535894155502,-0.009224899113178253,-0.006975020747631789
5.0322465896606445,-0.7588757276535034,9.255713462829592,-0.00015423029253724965,-0.00517483614385128,-0.00706980424001813
4.969643592834473,-0.7032794356346131,9.269171714782717,0.0017952891066670418,-0.0031879663001745944,-0.005956732202321292
5.015907764434815,-0.7329072952270508,9.241778373718263,-0.0003000459109898657,-0.0010168927256017923,-0.00752397207543254
4.960841655731202,-0.716904103755951,9.317956924438477,-0.0006066936184652151,-0.0005023907287977637,-0.006852058693766594
4.958176612854004,-0.7551665902137757,9.270215034484865,0.001293279929086566,-0.0015346383443102243,-0.00728704035282135
4.9798994064331055,-0.7818623781204224,9.299530982971193,0.002157346578314901,-0.004136708565056324,-0.00812666304409504
4.967562675476074,-0.7174084186553955,9.325630187988281,0.002017625607550144,-0.008003539405763151,-0.010309314355254173
5.0460004806518555,-0.6641562581062318,9.29426670074463,-0.0013069397537037732,-0.01107494253665209,-0.008481508120894432
5.040961742401124,-0.6244125962257386,9.274937629699709,-0.0035023787058889866,-0.004489179234951735,-0.00191709422506392
5.0477356910705575,-0.636890172958374,9.251126289367678,-0.008551398292183876,-0.0003082889888901264,0.002324482193216682
4.951862335205078,-0.7510169744491577,9.239072799682617,-0.008917813189327719,0.005567772313952446,0.004388318862766028
4.937204837799073,-0.7888906002044678,9.255496978759766,-0.002229270758107305,0.002166127553209663,0.001717250095680356
4.927878379821777,-0.8079394102096558,9.29115104675293,-0.002515522763133049,0.0011245991336181762,-0.002597307786345482
4.928454399108887,-0.757119119167328,9.270325660705568,-0.00023819266061764213,-0.005156761035323143,-0.006516421213746071
4.918975830078125,-0.7552450895309448,9.27620601654053,-0.003808376844972372,-0.0075382380746305,-0.008656986057758331
4.966142177581788,-0.7993064522743226,9.273933410644531,7.660474511794746e-05,-0.010426228865981102,-0.012610708363354208
4.973334789276124,-0.722272515296936,9.281240463256836,0.00483270874246955,-0.01302049309015274,-0.014149461872875692
4.998796939849854,-0.740064263343811,9.252309799194336,0.002733069239184261,-0.009324369952082634,-0.013292264193296432
5.034297943115234,-0.6983096599578857,9.269460678100586,0.005303770303726196,-0.008360263891518118,-0.011812789365649223
5.035757064819336,-0.6735138893127441,9.281255722045898,0.0029245780315250163,-0.0027627751696854834,-0.008012665435671806
5.032413959503175,-0.6943401098251343,9.27478885650635,0.0018360607791692019,0.003539141966030002,-0.0035046804696321487
5.035004138946534,-0.7075316905975342,9.273411750793459,0.0023027828428894286,0.00914309173822403,-0.00015385140432044864
4.895498752593995,-0.7288640737533569,9.245728492736818,0.004210826009511948,0.01320366654545069,0.00019772257655858994
4.861381053924561,-0.8002210259437562,9.261670112609865,0.0054057808592915535,0.006791086867451668,-0.006051723379641772
4.95601511001587,-0.7928471565246582,9.261026382446289,0.010312819853425026,0.004269614350050689,-0.007943430915474892
4.860876083374023,-0.7774678468704224,9.244263648986818,0.010603345930576324,0.002412051195278764,-0.011586927808821203
4.889898300170898,-0.8097920417785645,9.290560722351076,0.013025874271988869,-0.007141053210943938,-0.016929853707551956
5.002876281738281,-0.7106037735939027,9.297805786132812,0.015269631519913673,-0.008130857720971107,-0.019899347797036174
4.959796905517578,-0.7460761070251465,9.296616554260256,0.011862161569297315,-0.004450077190995216,-0.01805294491350651
4.9850525856018075,-0.7236764430999756,9.282957077026367,0.014414641074836256,-0.004654252901673317,-0.01875462755560875
5.028028964996339,-0.6671424508094789,9.264788627624513,0.0163106732070446,-0.0006989152752794326,-0.01566464826464653
4.945423126220703,-0.6334456801414491,9.195178031921388,0.011932585388422012,0.005323159508407116,-0.011709281243383886
4.768909931182862,-0.7259802222251893,9.225452423095703,0.01021868083626032,-0.0009559355676174164,-0.013982071541249754
4.6727566719055185,-0.8585087060928345,9.327073097229006,0.0072754533030092725,-0.02223784476518631,-0.024599827826023102
4.860707759857179,-0.8063026070594789,9.354703903198242,0.008311190642416479,-0.04205252230167389,-0.03348586335778237
4.91363525390625,-0.8049203157424927,9.336076736450195,0.009698589332401754,-0.053147699683904655,-0.040883004665374756
5.003233909606934,-0.6367385983467103,9.314951896667482,0.011431239545345306,-0.05616943910717965,-0.041197896003723145
5.062737941741944,-0.5572461485862733,9.294057846069336,0.007667635567486286,-0.05212323740124703,-0.03513117507100106
5.084161758422852,-0.636875092983246,9.225251197814943,0.003999678883701564,-0.043446965515613556,-0.029722997918725017
5.090197086334229,-0.6318330764770508,9.252872467041016,0.005006101913750172,-0.030088946223258972,-0.02457240037620068
5.116580963134766,-0.6263608932495117,9.282580375671388,0.0024238864425569777,-0.018236808478832245,-0.0172997247427702
5.093213558197022,-0.5744391679763794,9.247544288635256,-0.001226422260515392,-0.006101093254983425,-0.008591679856181145
5.035373210906983,-0.6611212491989136,9.224505424499513,-0.0059654717333614835,0.003258605021983385,-0.0010493959998711946
5.023637294769288,-0.7079467177391053,9.27023696899414,-0.004099784418940544,0.007960157468914986,-0.0002813597384374589
4.9989686012268075,-0.6436771154403687,9.285560607910156,-0.0045390017330646515,0.012619827874004843,0.0030810735188424587
4.976308345794679,-0.6676617860794067,9.292585372924805,-0.005758888088166714,0.013620463199913503,0.006999979261308909
5.007840633392335,-0.6890708804130555,9.303409576416016,-0.00903065875172615,0.01695322804152966,0.008961915969848633
5.027837276458741,-0.7740240693092347,9.305110931396484,-0.006884259637445212,0.01935561187565327,0.0074982838705182076
5.117106914520265,-0.6988492012023926,9.301308631896974,-0.0032015352044254546,0.028314538300037384,0.010031343437731268
5.169046878814698,-0.6150735020637513,9.284860610961914,-0.0014842383097857237,0.04160073027014733,0.017212921753525737
5.1449341773986825,-0.6250109672546387,9.286317825317383,0.001188282039947808,0.05869312584400177,0.025777859613299373
5.080240249633789,-0.6155773997306825,9.22651481628418,0.0035596445668488745,0.0738336816430092,0.02966438978910446
5.035446643829347,-0.6016714572906494,9.256132125854492,0.003420017426833511,0.08824697136878967,0.03925928846001626
4.868067741394043,-0.7407963871955873,9.292866706848146,0.0026778625324368477,0.0899908170104027,0.04209881648421288
4.818778514862061,-0.8305265307426454,9.366786003112795,0.002986718667671085,0.08295974135398865,0.03457819297909737
4.789362907409668,-0.8356264233589173,9.324395179748537,0.0040809097699821,0.07528645545244218,0.027425136417150497
4.872739791870117,-0.7010199427604676,9.324172019958498,-0.0014845406403765085,0.06642165780067444,0.025705611333251003
4.863812446594238,-0.7731302976608276,9.286252021789553,-0.003593506757169962,0.06859355419874193,0.028316052630543712
4.877627372741699,-0.8243007659912109,9.242088317871094,0.0005740929045714439,0.07208520174026489,0.022300636395812038
4.880524635314941,-0.698008954524994,9.316553115844727,-0.001215353491716087,0.06928140670061113,0.017467420548200607
4.977703094482422,-0.6977055072784424,9.299962043762209,-0.008106481283903122,0.07045235484838487,0.01602070778608322
4.947665214538574,-0.5432701706886293,9.285314559936523,-0.027049133554100994,0.07836730778217316,0.03257652372121811
5.048799514770508,-0.2888767719268799,9.454636573791506,-0.07231269031763078,0.08004000782966614,0.06906680017709733
4.849897861480714,-0.7802451848983765,9.338725090026857,-0.09571132063865662,0.08889701962471008,0.08515421301126481
4.899192810058594,-0.7510221600532533,9.283120155334474,-0.0789356753230095,0.10267201066017151,0.09002170711755754
4.896764755249023,-0.45410531759262085,9.266213417053224,-0.08735428750514984,0.10234124213457109,0.09550521522760393
4.904123306274414,-0.9349982142448426,9.170088768005373,-0.08692720532417297,0.11674993485212327,0.10883104801177979
4.97812557220459,-1.141308069229126,9.150544166564943,-0.049092501401901245,0.1325065791606903,0.1092878356575966
4.757113933563233,-1.0308210849761963,9.19705104827881,-0.019299350678920746,0.14769272506237033,0.10455714166164398
4.749475955963136,-1.0885059833526611,9.206172943115234,0.010608405806124212,0.15490490198135376,0.08958479762077332
4.787055969238281,-1.0749512910842898,9.182315826416016,0.0458340048789978,0.16771049797534945,0.0756310522556305
4.702817916870117,-0.8977326750755311,9.31629753112793,0.07512579113245012,0.17611075937747958,0.061542026698589325
4.703679084777832,-0.9437381029129028,9.442434310913086,0.08781704306602478,0.17118953168392184,0.04962041974067688
4.4849915504455575,-0.9405631422996522,9.635725975036623,0.08498031646013261,0.15212035179138184,0.0438697412610054
4.150737762451172,-0.8501678705215454,9.764591217041016,0.05921110510826111,0.11434229463338853,-0.003667819779366255
4.647184371948242,-0.8592436909675599,9.587522506713867,0.041473254561424255,0.07669539749622345,-0.038037959486246116
4.739526748657227,-0.66058349609375,9.477957725524904,0.03186589106917382,0.07444384694099426,-0.03058326803147793
4.680749893188477,-0.7461714744567871,9.351672172546388,0.0357249565422535,0.07792435586452484,-0.022504083812236786
4.629776954650879,-0.5983193516731263,9.45723056793213,0.03851366415619851,0.07982409000396729,-0.012421754188835623
4.523201942443848,-0.6323285102844238,9.56014919281006,0.033693034201860435,0.06808843463659288,-0.009001674130558968
4.3323683738708505,-0.7614511251449585,9.463079452514648,0.026240848004817963,0.04578490927815438,-0.008578399196267128
3.509228229522705,-0.9845921993255615,9.376510620117188,0.013293365947902204,-0.007931865751743317,-0.025495603680610657
4.612323284149171,-0.8578052520751953,9.675176620483398,0.017010055482387543,-0.061166722327470786,-0.05684159696102142
4.871651649475098,-0.6390893459320068,9.606822013854982,0.017927953973412517,-0.05558282509446145,-0.05073167383670807
4.769613265991211,-0.5576146841049194,9.568346977233888,-0.008211683481931686,-0.052116107195615775,-0.033297568559646606
4.620234489440918,-0.817478120326996,9.51585102081299,-0.014100149273872375,-0.06128697469830514,-0.02924097888171673
4.6061415672302255,-0.7709485292434692,9.580430030822756,-0.003667721757665277,-0.07130055129528046,-0.03318241611123086
4.527761459350586,-0.934653639793396,9.356477737426758,0.0034904505591839556,-0.08777233213186265,-0.04387799650430679
4.517561912536621,-0.7547997236251831,9.441633224487305,0.004644320346415043,-0.09795162826776506,-0.05082271993160248
4.67255735397339,-0.7355870604515077,9.335580825805664,-0.008423671126365662,-0.10699938982725145,-0.050853166729211814
3.9084899425506596,-0.862995207309723,9.174224853515625,-0.03689680621027947,-0.12732729315757751,-0.048292402178049094
4.3903093338012695,-0.7399228811264038,9.684856414794922,-0.07126466184854509,-0.18642412126064303,-0.0660189688205719
4.61119031906128,-0.6892116069793701,9.631780624389648,-0.09277229011058807,-0.21334274113178256,-0.06968621909618378
4.911710262298585,-0.23020994663238525,9.579214096069336,-0.12349059432744981,-0.2363305389881134,-0.0670991986989975
4.929682254791261,-0.33776551485061646,9.489220619201662,-0.16005162894725802,-0.24269923567771912,-0.03890845552086831
4.727517604827882,-0.49533605575561523,9.48588275909424,-0.20156630873680115,-0.2569150924682617,-0.018105039373040203
4.728797912597656,-0.7155581712722778,9.496152877807617,-0.22391515970230103,-0.28207758069038397,-0.009451661258935928
4.798852443695069,-0.7484151721000672,9.412983894348146,-0.233348622918129,-0.30044931173324585,0.0005750418640673161
4.800590038299561,-0.9544066786766053,9.335477828979492,-0.2340844422578812,-0.31379425525665283,-7.141382229747252e-05
4.7661848068237305,-1.2042084932327273,9.117277145385742,-0.19628272950649264,-0.31061765551567083,-0.022820372134447098
4.623021602630616,-1.2424850463867188,9.171189308166506,-0.1431279182434082,-0.31658163666725164,-0.07228407263755798
4.783049106597901,-1.069075107574463,9.195600509643555,-0.10233569890260698,-0.33520758152008057,-0.10338792204856873
4.661811828613281,-0.49612128734588623,9.520689010620117,-0.1171189770102501,-0.3663567304611206,-0.11767252534627916
4.765710353851319,-0.7129863500595093,9.45234775543213,-0.1382517367601395,-0.4086926877498627,-0.12504929304122925
4.576747894287109,-0.730084002017975,9.55288600921631,-0.16227245330810547,-0.4719120562076569,-0.13656476140022278
5.057021617889405,-0.7412687540054321,9.50846576690674,-0.17475689947605136,-0.5558218955993652,-0.1341141164302826
4.885162353515625,-0.610847294330597,9.488453865051271,-0.19542200863361361,-0.6430670022964478,-0.12491822987794877
4.856053352355957,-0.47397512197494507,9.721500396728516,-0.2037579566240311,-0.7715983986854554,-0.09287872910499573
4.604598045349121,-0.02765066921710968,10.267349243164062,-0.2717628479003906,-0.9292806982994081,-0.05883707106113434
4.160699844360352,-0.4011721611022949,10.138352394104006,-0.3520224094390869,-1.1376150846481325,-0.007875251583755018
4.054800987243652,-1.041236758232117,9.96402359008789,-0.4258095622062683,-1.3793581724166872,0.0038942713290452957
4.032309532165527,-0.842874586582184,9.986042022705078,-0.4609410464763642,-1.6737412214279177,0.023543741554021835
4.222902297973633,-1.0793397426605225,10.106724739074709,-0.4495368003845215,-1.9831701517105105,0.03685000538825989
4.2900800704956055,-1.7777725458145144,9.820143699645998,-0.44121253490448,-2.293355226516724,0.003042869502678514
4.296109676361085,-1.7923004627227783,9.691987037658693,-0.38989925384521484,-2.634018182754517,-0.0500725582242012
4.6864895820617685,-2.0405485630035405,9.717188835144045,-0.32310813665390015,-2.9869418144226074,-0.123771570622921
4.313747406005859,-2.5376052856445312,9.451835632324219,-0.2113156020641327,-3.3892028331756596,-0.24688509106636047
4.835270404815675,-2.7322127819061284,9.751000404357912,-0.12631963193416598,-3.7613043785095215,-0.40345531702041626
4.207776069641113,-2.755940198898316,8.847910881042482,0.01808550395071507,-4.277134895324707,-0.574290692806244
4.2066192626953125,-2.4519004821777344,8.478575706481935,0.22531537711620334,-4.919359683990479,-0.7667458057403564
4.99526071548462,-2.443751335144043,8.1868371963501,0.41839525103569036,-5.695079803466797,-0.9654983878135682
5.394397735595703,-2.1070415973663335,8.45401382446289,0.5226505398750306,-6.4971113204956055,-0.9716012477874756
6.531017303466797,-1.0379230976104736,9.001633644104006,0.5484594106674194,-7.37575387954712,-0.9844378232955933
6.532487392425538,0.02541746199131012,9.61484146118164,0.4563166201114655,-8.279147148132326,-1.0730135440826416
9.005232810974123,-0.48242950439453125,10.713244438171388,0.23186764121055603,-9.066294670104982,-1.253316879272461
13.122724533081055,-2.3071656227111816,10.831409454345703,0.04735925421118737,-9.439868927001953,-1.278324842453003
17.769489288330078,-2.248360872268677,10.776167869567873,0.11842557787895203,-9.59617328643799,-1.3681421279907227
25.286231994628906,-0.9634217023849487,11.087182044982912,-0.03406424447894097,-9.021971702575685,-1.3190782070159912
29.694669723510746,-2.366400003433228,13.253653526306154,-0.07740834355354309,-8.364813804626467,-1.2148282527923584
25.10338592529297,-2.1314070224761967,13.931849479675295,-0.5240787267684937,-7.7004456520080575,-0.8406794667243959
16.272727966308594,-4.408966064453125,9.947488784790039,-0.6877723932266235,-7.6554322242736825,-1.0616893768310547
24.842975616455078,-8.239816665649414,13.947196960449219,-0.30699223279953003,-7.845623016357422,-1.633125424385071
21.549757003784183,-6.114892959594727,17.882156372070312,0.09228609502315521,-7.006713390350343,-1.787247657775879
22.988012313842777,-7.13199281692505,20.83061981201172,0.20377609133720398,-5.678766727447511,-1.5608812570571902
10.349536895751953,-3.355010509490967,17.433492660522464,0.12301269173622131,-3.7382814884185795,-1.2895820140838623
29.627267837524418,-0.9504098892211914,24.070261001586918,-0.5115823149681092,-2.4024350643157963,-1.34016752243042
23.045604705810547,-8.840356826782227,28.55891609191895,-0.276242882013321,0.5725717544555664,-1.3582946062088015
8.18245601654053,-6.612648487091065,19.843656539916996,-0.007626182865351439,2.467252254486084,-1.2335562705993652
7.49477481842041,-7.2923951148986825,16.46734619140625,0.5958669781684877,3.5231552124023438,-1.28393828868866
2.5198242664337163,-4.5483717918396005,11.743082046508789,0.8550722002983094,4.120831966400147,-1.216703176498413
-1.131594777107239,-3.651182889938355,8.347992897033693,0.8170396685600282,4.270355224609375,-1.1698728799819949
-2.403106689453125,-2.754870176315308,6.656503677368164,0.5874208807945253,4.203352928161621,-1.0927581787109375
-1.6235753297805788,-1.9036463499069216,6.414678096771241,0.1340078264474869,4.09500789642334,-0.8408334851264955
0.4965491592884064,-1.9434784650802615,7.43682622909546,-0.4516871869564057,4.204976558685304,-0.4876275658607483
2.032136678695679,-2.9834046363830566,8.4361572265625,-0.8722838759422303,4.540139198303223,-0.14638914167881015
2.7549364566802983,-4.42227840423584,8.803035736083984,-0.9960100054740907,4.960659027099609,0.18397292494773865
3.4004142284393315,-5.078733444213867,8.69838619232178,-0.815232515335083,5.358535289764405,0.4317311644554138
4.346728801727296,-4.177957057952882,8.835970878601076,-0.608008623123169,5.7172136306762695,0.6485397219657899
6.285717010498047,-2.988067150115967,9.26777744293213,-0.5791698098182679,6.0773515701293945,0.9278969168663026
7.262746334075929,-2.138032197952271,9.201805114746094,-0.6738657355308534,6.498926162719727,1.2208561897277832
6.70707654953003,-1.8247529268264773,8.389482498168945,-0.757454514503479,6.825769901275636,1.475414514541626
5.804233074188233,-1.2959104776382449,7.429401874542237,-0.8050531744956971,6.916232585906983,1.7058579921722412
5.630819320678711,-0.4374239444732666,6.879382610321046,-0.8579851388931274,6.806748867034913,1.912923812866211
6.131586551666261,0.4934079647064209,7.23813533782959,-0.964450776576996,6.59351921081543,2.0611581802368164
7.512722969055176,1.1131088733673096,8.418183326721193,-1.1140710115432741,6.3867292404174805,2.1225869655609135
9.731499671936037,1.129446625709534,10.185426712036133,-1.2411566972732546,6.291241168975831,2.093400001525879
11.55244541168213,0.5857675671577455,11.443722724914553,-1.2275118827819824,6.321233272552491,1.9945800304412842
12.373992919921875,0.2754696905612946,11.9425048828125,-1.0546375513076784,6.360352516174316,1.8719871044158936
12.562387466430664,0.5082834959030151,12.013731002807617,-0.7940108776092529,6.304094791412354,1.7482967376708984
12.914417266845703,1.258604407310486,12.237420082092287,-0.5923935770988465,6.135624408721925,1.6422429084777832
13.95411491394043,1.9634552001953125,12.970678329467773,-0.5285359025001527,5.909977912902832,1.5505837202072146
15.855722427368164,2.201309442520142,14.519490242004396,-0.5620869398117065,5.65981149673462,1.4806019067764284
19.315923690795902,1.632270932197571,16.765035629272464,-0.6359636783599854,5.49119520187378,1.3898563385009766
23.731622695922855,0.34889358282089233,18.515199661254886,-0.5682817697525024,5.532343864440918,1.30442750453949
26.70698738098145,0.09361886978149414,18.97905540466309,-0.38391923904418945,5.716389179229737,1.2735047340393066
29.054622650146484,1.204904913902283,17.889812469482422,-0.33648622035980225,5.931807041168214,1.3371576070785525
29.713394165039062,1.9912688732147217,14.887800216674805,-0.5087041854858398,6.116192340850831,1.447495698928833
28.442636489868168,1.015251874923706,10.500839233398438,-0.7224718332290649,6.11289119720459,1.4898928403854372
26.838855743408203,-0.7082504034042358,5.7111310958862305,-0.7348881363868714,5.779471397399902,1.2910712957382204
27.908300399780277,2.090919733047486,-0.5116876363754272,-0.7961423397064209,5.243276119232179,1.0209797620773318
27.90776634216309,6.449579715728761,-7.580462455749512,-1.4024639129638672,4.598265171051026,0.8248342275619507
30.37384033203125,7.886946201324464,-15.33830451965332,-2.4794936180114746,3.8405518531799316,0.7908253073692323
33.94486618041993,3.1695632934570312,-22.601085662841797,-2.8389878273010254,2.934810876846314,0.9308744668960571
29.237071990966797,-0.5710644721984863,-25.375936508178714,-1.8715550899505615,1.461522698402405,0.9667167067527772
20.595844268798828,-0.31117337942123413,-21.63241958618164,-0.44894453883171087,-0.5508912801742554,0.5913736224174501
19.57113838195801,1.789205551147461,-12.605763435363771,0.580810546875,-2.2379150390625,-0.05071860179305077
20.314624786376953,2.7563424110412598,-1.19661283493042,0.9340218901634217,-2.9060821533203125,-0.43970403075218206
11.727705001831055,-2.0771272182464604,10.354894638061523,2.143506288528443,-4.176509857177734,-0.5382764339447021
-10.136255264282227,-0.42238831520080566,12.290777206420898,2.092913389205933,-3.664372444152832,-1.3141986131668093
3.991908550262451,2.9638614654541016,20.395538330078125,0.6912119984626771,-3.9675228595733647,-1.5926449298858643
9.63225841522217,-5.001259803771973,11.590066909790039,0.18355432152748108,-4.452187061309815,-1.585864782333374
22.94014930725098,-2.5044617652893066,14.010535240173342,0.4874193966388703,-4.62617301940918,-0.8920117616653442
28.521005630493168,0.5242501497268677,20.47832489013672,0.29595911502838135,-3.7342860698699956,-0.2880405783653259
21.02632331848145,3.7449109554290776,17.862178802490234,0.30838933587074285,-2.874339818954468,-0.6221297979354858
13.108076095581055,3.338473320007324,13.740712165832521,0.1532229483127594,-2.3979804515838627,-0.5945608615875244
10.482680320739748,1.1483509540557861,12.579547882080078,-0.008674539625644684,-2.040143728256226,-0.5193607211112977
9.36958408355713,-0.47019425034523016,11.387680053710938,-0.08719903230667114,-1.6607786417007449,-0.43990403413772583
8.08127212524414,-2.7492876052856445,10.121902465820312,0.09091048687696458,-1.3251484632492068,-0.5089867115020752
8.74500370025635,-4.757612228393555,9.97434711456299,0.3338831663131714,-1.0223377943038943,-0.5228350162506104
8.662243843078615,-3.001463651657105,10.74365234375,0.4153061211109162,-0.7133938074111938,-0.3764841556549072
6.638630390167237,-0.5261048078536987,10.76593017578125,0.39782932400703436,-0.4905950427055359,-0.2569964230060578
5.738069534301758,-0.6398162245750428,10.343866348266602,0.30493777990341187,-0.3537442088127136,-0.21679224073886874
5.379397392272949,-1.6522836685180664,10.079625129699709,0.18653859198093417,-0.27108150720596313,-0.15698097646236422
5.337915897369386,-1.084452271461487,9.913885116577148,0.17315982282161715,-0.236165851354599,-0.11522851884365082
4.938867568969727,-0.9830656051635742,9.879989624023438,0.2161882519721985,-0.22638179361820224,-0.1494770050048828
4.8479413986206055,-1.1038668155670166,9.680805206298828,0.22758916020393372,-0.21931251883506775,-0.15731023252010348
4.625329494476319,-1.1086277961730957,9.57743549346924,0.23539678752422336,-0.21049445867538452,-0.1582029610872269
3.9998903274536133,-1.5349794626235964,9.359938621520998,0.2439997047185898,-0.22952184081077576,-0.16748371720314026
4.294070720672608,-2.139723300933838,9.163267135620117,0.24906966090202332,-0.26297119259834295,-0.18978342413902283
3.92848539352417,-2.150345802307129,8.662637710571289,0.27721902728080755,-0.26479890942573553,-0.20008692145347595
2.8478012084960938,-2.8636853694915776,8.766911506652834,0.3065444827079773,-0.38625344634056097,-0.24973952770233154
4.916033744812012,-1.5522425174713135,9.792304039001467,0.24288190901279452,-0.5068652629852295,-0.22956877946853638
5.697460174560547,-0.1757309585809708,10.388250350952148,0.1189350411295891,-0.41099536418914795,-0.15154711902141574
5.688965320587159,-0.5160225629806519,9.809196472167969,-0.026411715894937515,-0.31883007287979126,-0.06372029334306718
5.6246490478515625,-0.7403730750083924,9.596305847167969,-0.11309912055730821,-0.2790355682373047,-0.047157946974039085
5.402756690979004,-1.0440380573272705,9.235214233398438,-0.1494148075580597,-0.2459812015295029,-0.029036553576588634
5.34158754348755,-1.1505821943283083,9.17470455169678,-0.15166360139846802,-0.2151802331209183,-0.010367963463068008
5.236489772796632,-1.1060720682144167,9.18309211730957,-0.1524082571268082,-0.18445996940135959,0.0016396623104810715
4.888026237487793,-1.5226714611053467,8.963492393493654,-0.11911134421825409,-0.1750692576169968,-0.013084722682833672
4.884789943695069,-1.8032972812652588,9.02763557434082,-0.05868317931890488,-0.1788885444402695,-0.05026420578360558
4.80022954940796,-2.095522880554199,8.833725929260256,-0.009212858974933624,-0.16030152142047885,-0.08038865029811859
4.546414852142335,-2.1926128864288335,8.759483337402344,0.037590742111206055,-0.15822815895080566,-0.14477808773517611
4.774024963378906,-2.088794231414795,8.741674423217773,0.07941895723342896,-0.1444312781095505,-0.22098630666732788
4.435096263885499,-2.2864255905151367,8.563911437988281,0.15538766980171204,-0.09154678136110307,-0.3341799080371857
3.773259162902832,-2.888720273971558,8.592302322387695,0.23342254757881165,-0.04135165736079217,-0.4841095805168152
4.3933119773864755,-2.4433255195617676,8.578309059143068,0.3201127052307129,-0.03228713572025299,-0.6344401240348817
5.567505836486816,-0.43812328577041626,9.249051094055178,0.32625049352645874,-0.11910303682088853,-0.5309246778488159
5.6219849586486825,0.5984553098678589,9.877234458923342,0.22885154187679294,-0.10833561420440674,-0.4136168360710144
4.659187316894531,-1.3122279644012451,9.628920555114748,0.1482635736465454,-0.16219095885753634,-0.39776283502578735
4.873600482940675,-0.36170536279678345,9.751913070678711,0.10540068894624711,-0.22101019322872165,-0.41601258516311646
5.312140464782715,0.026888027787208557,9.750398635864258,0.04050593078136444,-0.2994969785213471,-0.37908315658569336
5.368618011474609,0.04467421770095825,9.651010513305664,-0.053860098123550415,-0.36049059033393865,-0.3196151554584504
5.630005836486816,0.49775469303131104,9.70663833618164,-0.17527832090854648,-0.4216839671134949,-0.21666578948497775
5.064220428466797,-0.19788554310798645,9.555183410644531,-0.23138627409934998,-0.52275550365448,-0.15970937907695773
4.837353706359863,-0.8733381032943726,9.552508354187013,-0.2485734969377518,-0.6619826555252075,-0.16810218989849093
4.257363319396973,-1.1433675289154053,9.76101303100586,-0.28762662410736084,-0.856615960597992,-0.19353707134723666
4.12398386001587,-0.6266484856605531,9.978251457214357,-0.3092993497848511,-1.1235278844833376,-0.1606009602546692
3.907935619354248,-0.6628021001815796,10.145408630371094,-0.3852495551109314,-1.425593376159668,-0.10862358659505846
3.610697507858277,-1.0100581645965576,10.305583953857422,-0.42008572816848755,-1.7594238519668581,-0.10804292559623718
3.579037427902222,-1.055589199066162,10.509536743164062,-0.4057138860225678,-2.1556811332702637,-0.14058959484100342
4.2184767723083505,-1.0757590532302859,10.366663932800295,-0.38611602783203125,-2.5834591388702397,-0.14996099472045898
4.646844863891602,-0.8361995816230775,10.128163337707521,-0.37209850549697876,-3.025783061981201,-0.1351326555013657
5.167528629302979,-0.6990146040916444,10.05795192718506,-0.3783507645130158,-3.50283145904541,-0.15762059390544894
4.722232341766358,-1.2006078958511355,10.224036216735842,-0.42460447549819946,-3.974145650863648,-0.23522917926311496
3.23033881187439,-1.8851203918457031,9.875036239624023,-0.43379965424537664,-4.630448341369629,-0.3496831357479096
2.2458443641662598,-2.4360055923461914,9.367782592773438,-0.31797263026237493,-5.546753406524659,-0.5056208372116089
3.224930763244629,-2.5745110511779785,9.659297943115234,-0.15935248136520386,-6.658630847930909,-0.6875251531600952
3.8381104469299316,-1.7227755784988406,10.15398693084717,-0.07426200062036516,-7.934001922607422,-0.7463032007217407
4.599518775939941,-0.36842003464698797,10.66331195831299,-0.016668668016791347,-9.309883117675781,-0.7946889996528627
6.185421943664551,-1.9633018970489502,10.54752826690674,-0.10106481611728668,-10.610492706298828,-0.9028020501136781
12.076098442077638,-3.3187773227691655,12.481464385986328,-0.4439378678798676,-11.635089874267578,-0.988238036632538
20.734071731567386,-3.5995604991912846,14.072063446044922,-0.5778953433036805,-11.945907592773438,-1.1600699424743652
34.26108169555665,-3.414223432540894,14.51536750793457,-0.5026445984840394,-11.115909576416016,-1.4226835966110232
37.34330368041993,-2.6602504253387456,13.662358283996584,-0.6369147300720215,-9.75815200805664,-1.2735375165939333
28.24584007263184,-4.709246635437012,12.75792980194092,-1.4391570091247559,-8.943047523498537,-0.8963865041732788
22.087198257446293,-10.523987770080568,14.036147117614748,-1.27545702457428,-8.596376419067383,-1.3275935649871826
19.38877677917481,-7.204188823699952,17.297811508178714,-0.8903924822807313,-8.147026062011719,-1.751460671424866
20.27029800415039,-7.060961246490479,22.02000236511231,-1.0090668201446533,-7.1950788497924805,-1.7233206033706667
11.806233406066896,-2.4232180118560795,15.585241317749023,-1.4505856037139893,-5.793887615203858,-1.5689101219177246
23.940984725952152,-1.0684466361999512,18.802799224853516,-1.7646064758300781,-5.004910945892335,-1.8496905565261843
33.865440368652344,-12.469265937805178,30.48992729187012,-1.1183251142501833,-1.4081857204437256,-2.233800649642945
14.566118240356445,-10.228655815124513,23.997144699096683,-0.4398312568664551,1.576272964477539,-1.7769721746444704
11.093667984008789,-10.765405654907227,19.05712127685547,0.7481584548950195,3.556395769119263,-1.5469577312469482
7.2626495361328125,-7.282661437988281,13.775609016418459,1.4046891927719118,4.797586441040039,-1.3725905418395996
4.6602797508239755,-4.2491044998168945,10.208739280700685,1.6132876873016357,5.449991703033448,-1.25099515914917
1.7048848867416384,-2.619935750961304,7.276753902435304,1.401413917541504,5.734922409057617,-1.0603827238082888
-0.6263127326965332,-1.6156748533248904,4.840929985046387,0.9035327434539795,5.791594982147218,-0.8102209568023682
-1.932922601699829,-1.578489065170288,3.454479217529297,0.36801648139953613,5.650903224945069,-0.5429778695106507
-2.042770147323609,-1.1961153745651247,3.1889183521270756,-0.13859964907169345,5.401379585266113,-0.25062945485115057
-0.39552074670791626,-1.6199452877044678,4.031623363494874,-0.5878355503082275,5.211269378662109,0.08179613202810289
1.6370331048965456,-2.8650131225585938,5.473102092742921,-0.811010479927063,5.223011493682862,0.38866090774536133
3.876077651977539,-3.930479764938355,6.797892093658448,-0.7209655642509462,5.45994758605957,0.6392472982406616
5.218197822570801,-4.337361812591554,7.512362480163574,-0.41027867794036865,5.84279489517212,0.8293683528900146
5.944327831268311,-3.5310702323913574,7.541232109069824,-0.08328717947006226,6.215465545654297,1.0121785402297976
6.017137050628663,-2.087781190872193,7.132038593292237,0.06985021382570268,6.468788146972656,1.2096043825149538
6.414825916290284,-0.6920995116233827,6.778132915496827,-0.0014938367530703545,6.620219707489015,1.4376841783523562
7.194481372833253,-0.20422714948654175,6.730295181274414,-0.1965477466583252,6.720941066741944,1.660776138305664
8.042298316955568,-0.1468830704689026,6.878217220306397,-0.34450215101242065,6.798276901245117,1.8450006246566775
8.966633796691896,-0.16645491123199463,7.118213176727296,-0.38728171586990356,6.819506168365479,1.9403266906738281
10.361878395080568,-0.0832921788096428,7.650477886199952,-0.38639897108078003,6.783298015594483,1.97613799571991
11.627046585083008,-0.3680607378482819,8.338788986206055,-0.31675264239311224,6.726360321044922,1.9647868871688845
12.557024002075195,-0.43667423725128174,9.209026336669922,-0.16631616652011874,6.653048038482667,1.9240460395812988
13.398904800415039,-0.41778314113616943,10.18193244934082,0.00841887854039669,6.58033323287964,1.8522405624389648
14.106000900268555,0.01820656657218933,11.282222747802734,0.17484864592552185,6.491967678070069,1.7774301767349245
15.48721694946289,0.42383202910423284,12.41485595703125,0.23993518948554993,6.4034390449523935,1.7137513160705566
17.542415618896484,-0.3711038827896118,13.469635963439943,0.2830303609371186,6.3500380516052255,1.6700615882873535
19.60683631896973,-1.34141743183136,14.429732322692873,0.4014593064785004,6.303739547729492,1.640169978141785
21.238262176513672,-2.3216981887817383,15.00268077850342,0.595867395401001,6.235684871673585,1.6315439939498904
22.57442855834961,-2.881807327270508,15.191295623779297,0.8228169083595277,6.139961242675781,1.6039587259292605
24.75582504272461,-3.0234329700469975,14.832468032836914,0.9691426157951356,6.032540798187257,1.5551550388336182
26.852718353271484,-2.601715564727783,13.652932167053224,0.9192750453948975,5.961897373199464,1.4805519580841064
27.228796005249027,-2.4404892921447754,11.52061653137207,0.6303247213363647,5.882830142974854,1.3587852716445925
26.344694137573246,-2.7086477279663086,8.850051879882812,0.19949947297573092,5.661857604980469,1.1445771455764773
25.783605575561527,0.8429744243621826,4.766770839691163,-0.4167132675647736,5.241868495941163,0.8852901458740234
26.372421264648438,7.4954633712768555,-0.9435003399848939,-1.7444078922271729,4.738858699798585,0.8692057132720947
28.424560546875,10.025980949401857,-7.578595638275147,-3.5036604404449467,4.259520530700684,1.1572144031524658
33.81716537475587,2.921515941619873,-16.225486755371094,-4.1607985496521005,3.826474666595459,1.5402473211288454
34.64488601684571,-4.3627076148986825,-23.37822532653809,-2.6546988487243652,2.9325027465820312,1.5848428010940554
25.597454071044922,-2.173679828643799,-25.065288543701172,-0.32142317295074463,0.8638814091682435,1.158473253250122
15.482025146484375,3.9095747470855717,-18.284393310546875,1.1502090692520144,-1.475632667541504,0.13293161988258362
11.602404594421388,10.29127597808838,-9.209823608398438,1.1594712734222412,-3.797993898391724,-0.9270662069320679
-0.9066879153251649,4.932791709899902,-1.6228888034820557,0.41410467028617864,-4.688296794891358,-1.4520337581634521
11.934637069702148,3.176462173461914,12.963248252868654,0.08220914751291276,-5.7048845291137695,-2.238460779190064
10.512877464294435,-5.936403751373292,20.223863601684574,-1.130380988121033,-5.088677406311035,-1.7837767601013184
17.967300415039062,-14.9569787979126,13.440258979797365,-0.6182684302330018,-5.103069305419922,-1.5906490087509157
20.63836669921875,-8.109977722167969,13.93321418762207,-0.1549975574016571,-4.949233055114746,-0.6415963768959047
27.70919418334961,-4.244694709777832,18.35059356689453,-0.24522195756435397,-4.164079666137695,0.04769251868128777
26.674457550048828,1.976729393005371,18.936101913452152,0.04858701676130295,-3.0890662670135502,-0.5000827908515931
15.128649711608888,1.735810160636902,14.400886535644531,0.045227926224470145,-2.18601655960083,-0.7164573073387147
9.244139671325685,-2.7116091251373295,10.96254634857178,0.10785453766584398,-1.8354479074478152,-0.7083640098571777
8.247901916503906,-4.38434934616089,9.586585998535156,0.29184550046920776,-1.5448979139328005,-0.6758471727371216
9.672389030456545,-2.580918788909912,10.547750473022461,0.5555462837219238,-1.1697665452957156,-0.7490354180336
9.097777366638185,-0.5253005027770996,11.051889419555664,0.6635801792144775,-0.732811987400055,-0.7317771911621094
7.377298831939698,-1.5644071102142334,10.473652839660646,0.706827223300934,-0.450109750032425,-0.6412695646286011
5.990861892700195,-0.616672158241272,10.66891860961914,0.5858914852142334,-0.2954728305339814,-0.5014971494674683
5.003588199615479,-0.3881998062133789,10.008934020996094,0.49342334270477295,-0.24334026873111728,-0.4618127644062043
4.654661655426026,-1.5262280702590945,9.60973644256592,0.47089874744415283,-0.15752877295017245,-0.5188062191009521
5.326828479766847,-1.7451025247573855,9.929450988769531,0.4343712329864502,-0.19248181581497192,-0.4668577611446381
5.603137969970703,-0.5552472472190858,9.85545539855957,0.40795245766639715,-0.17981880903244019,-0.38571503758430487
5.80637264251709,-0.20099839568138123,10.163353919982912,0.32232391834259033,-0.15922184288501742,-0.242996022105217
5.397210121154785,-0.28346952795982366,9.888298988342287,0.2433189302682877,-0.1170986145734787,-0.15339602530002597
5.095647335052491,-0.494457095861435,9.708728790283203,0.19255618751049045,-0.09955304116010667,-0.09434305131435394
4.966025352478027,-0.5523883104324341,9.645138740539553,0.136511892080307,-0.08916624635457994,-0.0326366052031517
4.848674774169922,-0.6646581292152406,9.661462783813477,0.08201351761817932,-0.07460474222898485,0.010372064076364042
4.934206485748292,-0.8702356219291688,9.550142288208008,0.067002072930336,-0.06634584814310075,0.02199595794081688
4.888909816741944,-1.1759585142135622,9.398102760314943,0.05511542037129403,-0.07311523705720903,0.0159398652613163
4.747625350952148,-1.1328140497207644,9.25807857513428,0.052443623542785645,-0.08471130579710008,0.0052841538563370705
4.749716758728027,-1.34794282913208,9.153314590454102,0.06864055246114732,-0.09315334260463715,-0.01880159229040146
4.631649017333984,-1.6037845611572266,9.021878242492678,0.08715343475341797,-0.08977561444044115,-0.04396425187587738
4.586007118225098,-1.8679212331771853,8.981537818908693,0.11029728502035142,-0.07650279253721239,-0.08825984597206116
4.67104196548462,-1.690047264099121,8.965799331665039,0.15841932594776156,-0.059045515954494476,-0.1448144763708115
4.658439636230469,-1.359523057937622,9.002861022949219,0.19803279638290405,-0.05112369731068612,-0.18861411511898044
4.495146274566651,-1.3606572151184082,9.03378677368164,0.20305776596069336,-0.06305972486734392,-0.2092704474925995
4.532255649566651,-1.0149675607681277,9.217216491699219,0.2055428922176361,-0.06873233616352081,-0.24312032759189608
4.434620380401612,-0.8653331995010376,9.167644500732422,0.20731197297573092,-0.07401871681213379,-0.27407673001289373
4.177833080291749,-0.6092678308486938,9.378135681152344,0.17922826111316684,-0.11850951611995697,-0.3022794723510742
4.644103050231934,-0.8886585831642152,9.431336402893068,0.147798165678978,-0.15235304832458496,-0.3044357597827912
3.579993724822998,-2.1169209480285645,9.320327758789062,0.1384570300579071,-0.18439501523971558,-0.3656130731105805
4.109661579132081,-0.673628568649292,9.647527694702148,0.1520379334688187,-0.27254265546798706,-0.44298812747001654
4.624045848846436,-0.9428746104240419,9.649903297424318,0.14546494185924533,-0.30038678646087646,-0.46021413803100586
4.903584957122804,-0.6618480682373047,9.714693069458008,0.1206555962562561,-0.3416945636272431,-0.4733065366744995
4.934732913970948,-0.5821825265884399,9.506292343139648,0.1076948568224907,-0.3720159232616425,-0.48676300048828125
5.213901519775391,-0.7308357954025269,9.505823135375977,0.12747316062450412,-0.4449197053909302,-0.48689052462577825
5.289055824279785,-0.7507121562957764,9.404942512512209,0.13477838039398193,-0.48697724938392645,-0.4802884757518769
5.146349430084229,-0.7578318119049072,9.507787704467773,0.16924311220645907,-0.5453006029129028,-0.4797526895999909
5.046907424926758,-0.819281041622162,9.464256286621094,0.2234039604663849,-0.624773383140564,-0.4787751138210297
4.9837613105773935,-0.8964075446128846,9.450728416442873,0.26602348685264593,-0.7148052453994751,-0.48252138495445257
5.076300621032715,-0.4698198437690735,9.503339767456055,0.28073668479919434,-0.8201605677604676,-0.49435350298881536
5.10173225402832,-0.0032647699117660522,9.597950935363771,0.25687775015831,-0.9562788009643555,-0.4888195097446442
4.683525562286378,0.10889129340648651,9.703559875488281,0.19840243458747864,-1.1109602451324463,-0.4565782248973847
4.632306575775147,-0.16115683317184448,10.01644515991211,0.18283157050609591,-1.3121330738067627,-0.42424955964088445
4.8740739822387695,0.2737017869949341,9.900477409362795,0.16570828855037692,-1.5304157733917236,-0.3906581401824951
4.968672275543214,0.7023326754570008,9.800541877746584,0.10395460575819017,-1.7497122287750244,-0.34505376219749456
5.1172194480896005,0.9640098810195923,9.67825698852539,0.014256781898438932,-1.9689096212387087,-0.28243494033813477
5.252801895141602,0.9622519016265869,9.610178947448732,-0.07121969759464264,-2.18692421913147,-0.20693626999855042
5.262516498565675,0.8174817562103271,9.579770088195803,-0.14909377694129944,-2.425796747207642,-0.1443770378828049
5.245804309844972,0.664790153503418,9.613009452819826,-0.22450152039527893,-2.7258298397064213,-0.09644441306591034
5.294680118560792,0.15058241784572604,9.307993888854982,-0.2641695737838745,-3.03902006149292,-0.0820639953017235
5.459314346313477,0.0721493512392044,9.00892448425293,-0.2918187081813813,-3.369565486907959,-0.10947703570127489
5.927403450012207,-0.1681601256132126,9.115790367126467,-0.29506257176399237,-3.716586112976074,-0.17123037576675415
5.197691440582276,-1.0663150548934939,9.206263542175295,-0.21018576622009277,-4.194997310638429,-0.27244657278060913
4.423352718353272,-1.6685761213302615,9.34352779388428,-0.16258129477500916,-4.705212593078613,-0.37795266509056097
4.5864105224609375,-1.6425819396972656,9.444825172424318,-0.026868652552366257,-5.459081172943116,-0.5843125581741333
4.9817962646484375,-1.24933135509491,9.785112380981445,0.16845524311065674,-6.450743198394776,-0.8538847565650941
4.897051334381104,-1.6760686635971072,10.132362365722656,0.35371229052543646,-7.679591178894043,-1.1608649492263796
7.771601200103761,-2.8200039863586426,11.406070709228516,0.4699406623840332,-8.965606689453125,-1.415229916572571
10.596535682678224,-3.634690761566162,12.575498580932617,0.4646663963794709,-9.94047737121582,-1.6619931459426882
18.86796379089356,-4.272759437561035,14.098896980285646,0.3675943613052368,-10.449477195739748,-1.9069012403488161
30.874704360961918,-4.598865032196046,15.32474136352539,0.4085821509361267,-9.88630771636963,-2.1742825508117676
35.09953308105469,-3.067823171615601,14.49853038787842,0.5779451131820679,-8.904611587524414,-2.0851042270660405
29.660985946655277,-2.152527332305908,14.440249443054201,-0.02542726695537567,-7.818779468536378,-1.7384631633758545
19.84583282470703,-3.466624021530152,16.29068183898926,-0.17831915616989136,-7.3245511054992685,-1.9828885793685915
16.667499542236328,-5.056061267852784,18.946668624877933,0.09802122414112091,-6.799804210662843,-2.4681921005249023
13.514856338500977,-7.030930042266847,15.422343254089357,1.1023108959197998,-6.298763275146484,-3.0228011608123784
11.212286949157717,-5.141852378845215,19.865289688110355,1.8154478073120117,-4.890206813812257,-2.8792452812194824
24.39724922180176,-1.5306816101074219,20.757522583007812,1.3640295267105105,-3.5165228843688965,-2.5947389602661133
21.73239517211914,-2.8590981960296635,27.027847290039062,0.37775269150733953,-0.6817039251327515,-1.7365490198135378
9.408923149108888,-4.47751522064209,19.102970123291016,-0.2083403766155243,1.5544390678405762,-1.2471474409103396
7.699853420257569,-5.066655635833741,15.385144233703615,-0.5747126936912538,3.121694564819336,-0.555531680583954
2.390619039535523,-5.121422290802003,9.675318717956545,-0.7491945624351503,3.975607395172119,0.025646746158599854
-1.134814739227295,-5.518217086791992,6.063814163208008,-0.7199358344078065,4.354605674743652,0.5230013728141786
-2.758927345275879,-4.151427268981934,3.8961524963378906,-0.5449715852737427,4.408339500427246,0.893558442592621
-3.1763243675231934,-2.2661685943603516,2.9662153720855717,-0.5621395707130433,4.298867225646973,1.303690314292908
-2.295806169509888,-0.7608650922775269,3.1894850730895996,-0.7661873698234559,4.129023551940918,1.675950527191162
-0.34083989262580877,0.2595809400081635,4.391186237335206,-1.034240961074829,4.048943042755128,1.9426908493041992
1.9169539213180544,1.0260542631149294,5.949804306030273,-1.2914017438888552,4.179198741912843,2.090116500854492
3.8434557914733887,1.8434727191925049,7.260480880737305,-1.475098252296448,4.490911483764648,2.074362993240357
5.675393104553223,3.3012256622314453,8.211444854736328,-1.6872401237487793,4.929802417755128,1.969766974449158
6.831009387969972,4.6213393211364755,8.398077011108398,-1.9987548589706423,5.416712760925293,1.799007058143616
7.61711311340332,5.647180557250977,8.172384262084961,-2.397122144699097,5.860350131988526,1.592475414276123
8.598374366760256,5.818350315093995,7.593235015869141,-2.8174722194671635,6.240288734436035,1.395731568336487
9.57534694671631,4.8102922439575195,6.931123733520508,-3.0761678218841557,6.514768600463867,1.217926025390625
10.123971939086914,4.161118984222413,6.152529716491699,-3.0958800315856934,6.655455112457276,1.1071553230285645
10.379029273986818,3.899556398391724,5.308255195617676,-2.9707806110382085,6.645933628082276,1.0552880764007568
10.697995185852053,3.790864706039429,4.615850448608398,-2.801052331924439,6.509027481079102,1.0551139116287234
10.464396476745607,4.217106342315675,4.334815502166749,-2.6621317863464355,6.253161907196046,1.0738424062728884
10.64937973022461,5.352877140045167,5.067281723022461,-2.6241888999938965,5.914675235748292,1.055293083190918
11.741185188293459,6.312406539916992,6.66443681716919,-2.743153333663941,5.628431797027589,0.9394432306289673
13.394001007080078,6.781203746795655,8.584292411804201,-2.9319741725921635,5.455962181091309,0.7007904648780824
15.451982498168945,6.797415256500245,10.518104553222656,-3.109907627105713,5.41283941268921,0.37166532874107366
17.153446197509766,7.171685695648194,11.63185787200928,-3.269112348556519,5.46367073059082,0.055386576801538474
18.450397491455078,7.80347490310669,12.339386940002443,-3.47160005569458,5.540666580200195,-0.18129317462444308
19.075651168823246,8.125520706176758,11.889624595642092,-3.6760542392730717,5.590151786804199,-0.34927180409431463
18.853822708129886,8.92234516143799,10.66841220855713,-3.8270421028137207,5.491137027740479,-0.46572902798652654
18.260879516601562,9.385251998901367,9.244291305541992,-3.8919801712036133,5.226288318634034,-0.5926575660705566
18.051982879638672,10.3486328125,8.429475784301758,-3.8448119163513184,4.819031715393066,-0.7645620703697206
17.883558273315433,11.519017219543459,7.520375728607179,-3.716668128967285,4.3625807762146005,-1.0154078006744385
17.187862396240234,12.306699752807617,6.730847835540772,-3.498359203338623,3.8761856555938725,-1.3968542814254763
17.156139373779297,12.641337394714357,6.140619277954102,-3.199067354202271,3.3872628211975098,-1.8799766302108767
17.825235366821293,12.103740692138672,5.8573150634765625,-2.9255607128143315,3.0041224956512456,-2.41849422454834
18.516702651977543,11.412930488586428,4.813557147979737,-2.7739949226379395,2.7477424144744877,-2.9581222534179688
18.547830581665043,14.114085197448732,2.3393151760101323,-3.0020580291748047,2.497830152511597,-3.3243272304534917
18.043024063110355,14.222126007080078,-1.4999423027038574,-3.5541570186614995,2.1964292526245117,-3.4182832241058354
17.489425659179688,10.406182289123537,-5.05921220779419,-3.6134760379791264,1.7191513776779177,-3.463036060333252
17.75652885437012,6.846957206726074,-6.982327461242676,-2.9070701599121094,1.0419024229049685,-3.395839214324951
15.802133560180664,-10.607436180114748,-7.7993011474609375,0.03025600872933865,-0.14508533477783203,-3.355320453643799
17.875736236572266,4.1365556716918945,-11.11487674713135,4.2296156883239755,-1.8167507648468018,-4.285187244415284
8.429283142089844,10.529546737670898,5.701532840728761,4.306093215942383,-1.912283182144165,-4.097020626068116
14.116117477416992,-18.04267120361328,20.340808868408203,4.361248016357422,-1.8900324106216433,-3.81123685836792
12.79982662200928,-17.1003589630127,25.74482917785645,4.361567020416261,-1.392852783203125,-4.032345771789551
8.624027252197266,-9.006402015686037,8.26591205596924,2.744130373001099,-0.9210309982299805,-1.9670952558517458
4.519562721252441,6.922878265380859,5.641297340393066,2.5328402519226074,-1.7056784629821777,-0.964924991130829
22.89492225646973,22.636686325073246,18.219463348388672,1.966362714767456,-1.354868531227112,-0.7866512537002563
11.895061492919922,12.066926002502443,13.721498489379883,0.6540226340293885,0.057219646871089935,-0.505852222442627
1.2032554149627686,-1.6739541292190554,10.414791107177734,0.3592303097248078,-0.18990039825439453,-0.3068771660327912
6.125406265258789,4.102639675140382,11.563052177429201,0.09765235334634782,-0.19343836605548861,-0.2747754454612732
6.459808826446534,4.662370204925538,9.092825889587404,0.0767044872045517,-0.03950216248631478,-0.21654799580574036
6.420450687408448,-0.8124706745147705,9.671073913574219,0.08889994025230408,0.03317968919873238,-0.20851789414882663
5.60442876815796,-1.2410271167755127,9.114062309265138,0.12742924690246582,0.08154798299074174,-0.1299746036529541
6.38503122329712,-0.4928258359432221,9.56648063659668,0.10483738780021667,0.10765098035335541,-0.13075001537799838
6.063131332397461,-1.3373050689697266,9.417010307312013,0.10930126905441284,0.13482834398746493,-0.08785131573677063
5.737608909606934,-0.7917725443840028,9.453274726867678,0.10016160458326341,0.14634114503860474,-0.04345996677875519
5.405351161956788,-1.2372591495513916,9.354974746704102,0.04204609617590905,0.16782858967781067,-0.010175799019634725
5.192155838012695,-1.3450469970703125,9.56737804412842,0.044669218361377716,0.16194769740104675,-0.013757443986833097
4.640849590301515,-1.0819774866104128,9.5601282119751,0.0508522093296051,0.10489920526742937,-0.02467159926891327
4.660439968109132,-1.1004769802093506,9.521373748779297,0.055745214223861694,0.02217897586524487,-0.028889415785670284
4.76912784576416,-0.8441634178161621,9.547124862670898,0.060470595955848694,-0.04303409531712533,-0.022899650037288666
4.979050636291504,-0.44148439168930054,9.46126937866211,0.029999861493706707,-0.08127117902040483,-0.008606867864727974
5.127324104309082,-0.4723292589187622,9.468059539794922,-0.021721271798014644,-0.09033170342445374,0.01848975755274296
5.068644046783448,-0.6162642240524292,9.313740730285646,-0.07050029933452606,-0.08512031286954881,0.048693824559450156
4.966265201568604,-0.5609882473945619,9.365741729736328,-0.09480103105306627,-0.08058977127075195,0.06291691213846208
4.960978031158448,-1.0167142152786257,9.242446899414062,-0.09007585793733598,-0.08054576069116594,0.05863446742296219
4.810639381408691,-1.014569163322449,9.227252960205078,-0.08993740379810333,-0.08272638171911241,0.054167501628398895
5.072030067443848,-1.0394591093063357,9.136256217956545,-0.0895514041185379,-0.08163451403379442,0.05000541731715203
5.096966266632081,-1.4611141681671143,8.89260005950928,-0.06168568134307861,-0.04539450630545617,0.04350516200065613
4.927393436431886,-1.7705354690551758,8.86428737640381,-0.0370231568813324,-0.01719093695282936,0.028369365260005
3.9940381050109863,-2.041281223297119,8.71338748931885,0.0167927909642458,-0.01377062126994133,-0.007625246886163951
4.044556617736816,-2.2717573642730717,9.167878150939943,0.03321503847837448,-0.09406737238168718,-0.062266614288091666
5.175796031951905,-1.7817076444625857,8.992849349975586,0.06646990776062012,-0.13267247378826144,-0.09452414512634277
5.232500076293945,-1.0571582317352295,8.997378349304201,0.08635950833559038,-0.09458259493112565,-0.09493282437324524
5.026317596435547,-0.7513847947120668,9.123779296875,0.06767677515745164,-0.07324326038360596,-0.08734149485826494
5.033117294311523,-0.8537849187850952,9.273810386657717,0.0589652992784977,-0.07265359163284302,-0.07198645174503326
4.915597915649414,-0.4873013496398926,9.440279960632326,0.03164622187614441,-0.08577562123537065,-0.058673642575740814
4.824684143066406,-0.8413257002830506,9.55377197265625,-0.006376896984875202,-0.11421579122543335,-0.04730500653386117
5.1471829414367685,-0.7997642755508423,9.440453529357912,-0.03997206687927246,-0.1318936496973038,-0.03682629019021988
4.65783452987671,-0.6785091161727905,9.164292335510256,-0.06962975859642029,-0.13795433938503268,-0.024304995313286785
4.377310276031495,-1.0866125822067263,9.353245735168459,-0.0967557430267334,-0.19559244811534884,-0.04621260613203049
4.8284363746643075,-1.6124076843261719,9.04312515258789,-0.07104308903217316,-0.23911714553833008,-0.07229382544755937
4.500658988952637,-1.3713883161544802,9.238819122314453,-0.03153113275766373,-0.2784532010555268,-0.1161026656627655
5.06823492050171,-1.3040626049041748,9.201683044433594,-0.013044305145740509,-0.3081518709659577,-0.1571808606386185
4.885468482971191,-1.5091404914855957,9.221697807312013,0.008513459004461767,-0.29781675338745117,-0.19853307306766513
5.137432575225831,-1.1840121746063232,9.170115470886232,0.007270407862961292,-0.3169870376586914,-0.22368560731410983
5.441734313964844,-0.8784427642822266,9.006532669067383,-0.0015583975473418834,-0.30316388607025146,-0.1946341842412949
5.454597473144531,-1.1112263202667236,9.134492874145508,-0.018581828102469448,-0.3051212430000305,-0.16532862186431885
5.417877674102784,-0.9342778921127319,9.150698661804201,-0.02344509027898312,-0.3197547197341919,-0.14303506910800937
5.205649375915527,-0.7641606330871582,9.219799995422365,-0.03573913127183914,-0.3390358090400696,-0.13573969900608066
5.4638519287109375,-0.6019884347915649,9.242412567138672,-0.0629793629050255,-0.3879820704460144,-0.1173577979207039
5.3553009033203125,-0.3694103062152863,9.350713729858398,-0.0978720486164093,-0.431071549654007,-0.0807628706097603
5.54848337173462,-0.347766786813736,9.423842430114748,-0.15923810005187988,-0.5056445002555848,-0.044232793152332306
5.039385795593262,-0.28377041220664984,9.359389305114748,-0.20861859619617465,-0.5895293354988099,-0.004790978506207466
5.032193183898926,-0.46549975872039795,9.505355834960938,-0.27095723152160645,-0.7154530882835389,0.02827618271112442
5.104421615600586,-0.020467177033424377,9.582594871520998,-0.3796229362487793,-0.8634325861930848,0.0765783414244652
4.699562549591065,0.13585843145847323,9.910214424133303,-0.5059217214584351,-1.0392388105392458,0.13969027996063232
4.617595195770265,-0.12814414501190186,10.00303363800049,-0.6150729656219482,-1.280236005783081,0.18702404201030734
4.794587135314941,-0.4193888306617737,9.998632431030273,-0.7222031950950624,-1.5506422519683838,0.2197748273611069
4.264690399169922,-1.0255084037780762,9.86494541168213,-0.7428017854690552,-1.8244997262954714,0.20984654128551486
4.472625732421875,-0.7628533840179443,9.680593490600586,-0.7539975047111512,-2.1497254371643066,0.2016645818948746
4.420506954193116,-0.7638449668884277,9.818467140197756,-0.7838313579559326,-2.480466365814209,0.2118165045976639
4.035700798034668,-1.410144925117493,9.906669616699219,-0.7813495397567749,-2.9451038837432866,0.19508469104766846
3.623902559280396,-2.500074863433838,9.712502479553224,-0.7983667254447938,-3.4873552322387695,0.12241585552692413
3.859559297561646,-2.149993181228638,9.651386260986328,-0.7628167271614076,-4.130924224853516,0.02766700275242329
4.331204414367676,-2.2860701084136967,9.279320716857912,-0.7390315532684326,-4.896256446838379,-0.05487871542572976
4.189221382141113,-1.3048752546310427,9.00143814086914,-0.7765038609504701,-5.763090133666992,-0.07456471771001817
5.685654640197754,-0.00649029016494751,9.224023818969727,-0.974029541015625,-6.702433109283448,0.01637794263660908
6.683574199676515,-0.44747272133827215,9.00984287261963,-1.351100564002991,-7.597284317016602,0.14416734874248507
7.417783737182617,-0.5841184258461,9.423347473144531,-1.811906099319458,-8.50567626953125,0.2809911668300629
9.789892196655273,0.6038452386856079,11.583730697631836,-2.190516471862793,-9.138424873352053,0.5978349447250366
12.958584785461428,1.605753540992737,11.69673252105713,-2.4459853172302246,-9.190470695495607,1.4387632608413699
19.816486358642578,1.0603522062301638,13.397356986999513,-3.0167233943939213,-9.343671798706055,2.0674698352813725
25.97658920288086,-4.181996822357179,10.881354331970217,-3.358674287796021,-8.917845726013185,2.10616397857666
27.543031692504886,-3.750438451766968,14.148591041564943,-3.500953912734986,-8.292537689208984,1.9116047620773318
20.850017547607422,-5.874871253967285,12.261416435241701,-3.684812068939209,-7.67524290084839,1.6428877115249636
15.028831481933594,-5.871429920196534,8.548903465270998,-3.683854579925537,-7.714097499847413,1.469524621963501
19.63677215576172,-4.651828765869141,10.661478996276857,-4.396808147430421,-7.546532154083253,1.7887933254241943
20.861942291259766,-2.237438678741455,17.531536102294922,-5.87772274017334,-6.531837940216065,2.398874282836914
18.23961448669434,-2.022733688354492,20.008495330810547,-7.184237957000733,-4.766547203063965,2.3530468940734863
10.002120018005373,-3.7530658245086674,15.732604026794435,-7.218712329864503,-3.1570496559143066,1.279281258583069
30.231590270996094,-13.176231384277344,20.811569213867188,-5.314044952392578,-1.030749797821045,-1.1354078054428103
18.77086448669434,-14.86543369293213,26.7198486328125,-2.624790668487549,2.2970411777496342,-1.8877291679382324
13.350300788879396,-7.926412582397461,19.861080169677734,-0.7604840993881226,4.442980289459229,-1.9701460599899294
8.762901306152344,-4.359057903289796,15.32833480834961,0.1884189248085022,5.846098423004151,-2.095212936401367
4.150057792663574,0.3070197105407715,10.355501174926758,0.27185678482055664,6.53334903717041,-2.1174037456512456
0.8133796453475952,3.1103525161743164,7.351911544799805,-0.17210179567337036,6.683000087738038,-2.1168036460876465
-1.0564752817153933,3.6784904003143315,5.620831966400147,-0.8457931280136108,6.453021526336671,-2.0472857952117924
0.11110378801822662,3.713246583938599,5.357272624969483,-1.3617377281188965,6.104830265045167,-2.0382080078125
2.219305753707886,2.519112825393677,6.0661516189575195,-1.6561745405197146,5.944750308990479,-2.0742039680480957
2.495253086090088,0.3588751554489136,6.786705017089844,-1.643324613571167,5.950790882110597,-2.1383767127990723
2.7545564174652104,-0.5240467190742494,7.541516304016113,-1.3421171903610232,5.971955299377441,-2.1687755584716797
3.2752203941345215,-0.4179643094539643,7.968475341796875,-0.9888374209403993,6.009764671325684,-2.0165574550628667
3.988353490829468,0.836398720741272,8.278465270996094,-0.8496426343917847,6.063593864440918,-1.6886032819747927
5.352193832397461,2.553096294403076,8.878552436828615,-1.0313498973846436,6.143079280853272,-1.2261784076690674
6.639160633087159,3.4919836521148686,9.409208297729492,-1.4197527170181277,6.301548957824707,-0.6780571937561035
6.933318614959718,3.7907788753509526,9.709571838378906,-1.8231492042541504,6.485991954803468,-0.16492974758148193
7.964919090270996,3.3596618175506596,10.09062385559082,-2.060418844223023,6.65081548690796,0.20531997084617615
8.531374931335451,2.139477252960205,10.138821601867678,-1.9952926635742188,6.774333477020265,0.43279194831848145
8.520531654357912,1.765686273574829,10.116745948791506,-1.6635735034942627,6.7938857078552255,0.5320265889167787
8.858842849731445,2.2220916748046875,10.378754615783693,-1.2946441173553467,6.720745563507081,0.5964280366897583
9.461620330810547,2.9729449748992924,10.825277328491211,-1.0156830549240115,6.615371227264405,0.6633983850479126
10.038019180297852,3.2451827526092534,11.483736038208008,-0.8814752697944642,6.529219627380371,0.7194704413414003
10.53731918334961,2.9105029106140137,12.142558097839357,-0.7841415405273438,6.415728092193604,0.7428529858589173
11.441138267517092,2.2597641944885254,12.825996398925781,-0.6419495940208436,6.256983757019043,0.7368069291114808
12.952988624572756,1.5786613225936892,13.399503707885742,-0.4252238869667053,6.056982040405273,0.7225863337516786
14.540623664855959,1.2931334972381592,13.905580520629883,-0.1726452112197876,5.813834667205811,0.7041982412338257
16.548873901367188,1.6250954866409304,14.570322036743164,0.018985461443662643,5.5342469215393075,0.7004893422126771
19.358835220336918,2.421001195907593,15.70830821990967,0.0970379337668419,5.266877174377441,0.757048785686493
23.143960952758793,2.5597710609436035,16.966764450073246,0.09124126285314561,5.110865116119386,0.8252109289169312
27.223924636840824,2.6495628356933594,17.190809249877933,0.08632504940032959,5.1581768989563,0.8821002244949341
29.96227264404297,3.2993688583374023,15.442693710327148,-0.03739496693015099,5.364385604858398,1.0024316310882568
30.08832550048828,2.152651309967041,11.737567901611328,-0.27294853329658514,5.570486068725586,1.1545644998550417
29.43277168273926,-0.16484692692756653,7.014064788818359,-0.4239508211612702,5.57823133468628,1.186124324798584
30.202377319335938,4.222567558288574,-0.06833761930465698,-0.6542260646820068,5.380934238433839,1.1739370822906494
29.941505432128906,9.790410995483398,-9.151199340820312,-1.693430542945862,4.9810333251953125,1.2856884002685547
30.691713333129886,8.536737442016602,-18.67401123046875,-2.8045861721038823,4.274785995483398,1.3892763853073122
30.839063644409183,1.5196654796600342,-26.60932159423828,-2.602783679962158,3.1856913566589355,1.3636912107467654
24.209623336791996,-1.4628757238388064,-28.014284133911136,-0.9137694239616395,1.1028623580932617,0.8972378373146058
17.193965911865234,0.9066901206970215,-21.909507751464844,1.0365619659423828,-1.2770067453384402,0.028809459879994396
18.87912178039551,5.610517978668214,-11.9727258682251,1.919269323348999,-2.93667483329773,-0.8999783992767334
12.196327209472656,11.151488304138185,4.929913520812988,1.4275184869766238,-3.5489265918731694,-1.3480112552642822
4.098109722137452,10.795955657958984,17.143503189086918,-0.11438316106796265,-3.184313535690308,0.24003943800926208
-7.09937858581543,-6.185771942138672,14.840875625610352,-0.42525663971900945,-4.261636734008789,-1.4823267459869385
3.757589340209961,-7.677344799041749,17.25480461120606,-1.2827869653701784,-4.76020622253418,-1.9571603536605837
21.490520477294922,-14.95375156402588,10.909346580505373,-0.882699728012085,-4.325982093811035,-1.43260395526886
24.303827285766605,-6.743772506713867,14.704118728637695,-0.81360000371933,-3.7653651237487793,0.14459507167339328
21.179662704467777,-4.303626537322999,18.524314880371094,-0.8292183876037598,-2.963332891464234,0.7512806057929994
20.300165176391605,1.9949344396591189,18.123117446899418,-0.5507695078849794,-2.506472110748291,0.12274575978517534
13.028818130493164,0.5988261103630067,13.265256881713867,-0.49373024702072144,-2.021376132965088,-0.10407119244337083
8.737358093261719,-2.6400294303894043,11.070423126220703,-0.458182841539383,-1.7464337348937988,-0.13053037226200107
7.375030040740968,-3.100353240966797,10.415173530578615,-0.34008666872978216,-1.4916517734527588,-0.13141542673110962
7.725685119628906,-3.4497385025024414,10.192919731140138,0.008334681391716003,-1.2464057207107546,-0.3392874598503113
7.336754322052003,-3.730632781982422,9.660385131835938,0.3027269542217255,-0.9763635993003846,-0.5387873649597168
7.48441219329834,-3.723477363586426,9.736754417419435,0.4402313828468323,-0.7922874093055726,-0.5361884832382202
6.63824224472046,-1.9602155685424805,10.272216796875,0.43162634968757635,-0.6500943899154663,-0.42595410346984863
5.552568912506104,-1.3289877176284792,9.834609985351562,0.47531336545944214,-0.4923891127109528,-0.4055325984954834
5.093550205230714,-2.3789350986480717,9.422245979309084,0.4353235363960266,-0.4404323697090149,-0.3809570968151093
4.605159282684327,-1.8557627201080322,9.373870849609375,0.43941402435302734,-0.43053475022315985,-0.3531327247619629
3.6586971282958984,-2.0538878440856934,9.32979488372803,0.5214156508445741,-0.49903935194015503,-0.3652784824371338
4.436583042144776,-2.1915855407714844,9.49894428253174,0.5854063630104066,-0.5892636775970459,-0.4092778861522675
5.783465862274171,-0.8268734216690063,10.10586166381836,0.546403467655182,-0.5688523650169374,-0.32000553607940674
5.827740192413331,0.02226155996322632,10.830977439880373,0.4436009824275971,-0.45526331663131714,-0.24958316981792453
6.019433498382569,-0.56530898809433,10.418114662170412,0.2921095788478852,-0.32748377323150635,-0.18493393063545227
5.948864936828613,-0.73944228887558,9.894113540649414,0.13324514031410217,-0.2129825204610825,-0.09572669863700867
5.709449768066406,-0.5283873081207275,9.757833480834961,0.019097134470939636,-0.17921656370162964,-0.01981904543936253
5.131221771240234,-0.8567978143692017,9.467129707336428,-0.059846989810466766,-0.15845187008380893,0.019151419401168823
4.540449619293214,-1.6412732601165771,9.24250888824463,-0.0897739827632904,-0.17491148412227633,0.013635459356009962
4.549519062042237,-2.042841911315918,9.19198989868164,-0.08687188476324083,-0.20831260085105896,-0.008813696913421156
4.786224842071534,-1.9139939546585085,9.110735893249513,-0.07311298698186876,-0.22255806624889377,-0.024534784257411957
5.010997772216797,-1.8777551651000977,9.006269454956055,-0.05790394917130471,-0.21542763710021973,-0.03434316441416741
4.979723930358887,-2.1552200317382812,8.821539878845217,-0.027406675741076473,-0.18344801664352417,-0.053650714457035065
4.737584114074707,-2.327359199523926,8.779424667358398,0.009570900350809097,-0.16689474880695346,-0.08434933423995972
4.805534362792969,-2.352587461471558,8.753192901611328,0.053190279752016074,-0.15981452167034152,-0.1312820017337799
4.993266582489015,-2.0162217617034917,8.81868648529053,0.09255874902009965,-0.13671737909317017,-0.16940282285213473
4.9799089431762695,-1.51031494140625,8.89974117279053,0.1141442060470581,-0.10074458271265031,-0.20838783681392672
4.96130132675171,-1.5780702829360964,8.819586753845217,0.1319626271724701,-0.050916668027639396,-0.25536054372787476
4.357242584228516,-2.2500414848327637,8.492381095886232,0.20219992101192477,-0.02988052181899548,-0.33661413192749023
4.211801528930664,-2.464219570159912,8.781721115112305,0.2695017755031586,-0.05075833201408386,-0.40824702382087713
5.069986343383789,-1.0027023553848269,9.34197521209717,0.266313374042511,-0.09812723845243455,-0.39154514670372015
4.6871914863586435,-1.2053993940353396,9.227134704589844,0.2522523701190949,-0.08628256618976593,-0.4112589061260224
4.692386150360108,-1.3046448230743408,9.41317367553711,0.23403801023960116,-0.10108106583356859,-0.44702351093292236
4.837035179138184,-0.6596564054489136,9.518264770507812,0.21883107721805575,-0.10878261923789978,-0.4727098643779755
5.40309762954712,-0.07531070709228516,9.667565345764162,0.14165107905864718,-0.17171406745910645,-0.3931477665901184
5.054744720458984,-0.574610710144043,9.514906883239748,0.07593800872564317,-0.2188849151134491,-0.34004619717597967
5.042075157165527,-0.47299158573150635,9.449531555175781,0.0357060693204403,-0.2971713840961457,-0.3224003314971924
4.451237201690675,-1.1734482049942019,9.369050025939943,0.07025695592164995,-0.38879042863845825,-0.3744699656963349
4.6551713943481445,-1.3977468013763428,9.469623565673828,0.07507190108299255,-0.48119392991065985,-0.4424146115779877
5.277881145477296,-0.3023588359355927,9.70883083343506,0.037380218505859375,-0.6034566760063172,-0.43709003925323486
5.364989757537843,0.17403580248355868,9.893026351928711,-0.044105824083089835,-0.7539008259773256,-0.3469507098197937
4.718430042266847,-0.04114973545074463,10.178997039794922,-0.11520454287528992,-0.9882187247276307,-0.23499053716659546
3.6087901592254643,-0.5247414112091064,10.368314743041992,-0.17455393075942993,-1.297986149787903,-0.155082181096077
3.587989330291748,-0.2400072664022446,10.61928462982178,-0.25134059786796575,-1.6762394905090332,-0.08602368086576463
4.393253326416016,0.40975356101989746,10.551454544067383,-0.3536255359649658,-2.0524544715881348,-0.02226122282445431
4.362859725952148,0.27080589532852173,10.189247131347656,-0.4343548715114594,-2.4206795692443848,0.03427530452609063
4.127456188201905,0.2552361190319062,10.408559799194336,-0.4896600842475891,-2.8488113880157475,0.048476498574018485
4.529265880584718,-0.4453774690628052,10.586397171020508,-0.47665297985076904,-3.4083602428436284,0.008826248347759247
4.088401317596436,-1.9724562168121338,10.99246120452881,-0.540449857711792,-4.02606201171875,-0.07150844484567644
2.4717564582824707,-4.1662659645080575,11.11693859100342,-0.5591094493865967,-4.779319286346436,-0.26921385526657104
1.466712832450867,-4.8040833473205575,10.3447265625,-0.4216136932373047,-5.777254581451417,-0.6092411875724794
1.2957324981689453,-4.983341693878175,9.874823570251467,-0.07900328934192657,-7.087330341339112,-1.0572776794433594
2.9426445960998535,-4.436883926391602,10.243924140930178,0.26002427935600286,-8.57670307159424,-1.384662389755249
3.3441638946533203,-2.943130254745484,9.788162231445312,0.46185511350631714,-10.11785411834717,-1.6670031547546387
5.5465664863586435,-1.8640203475952148,9.977760314941406,0.39411053061485296,-11.609695434570312,-1.9610180854797363
14.437995910644531,-3.728560447692871,13.398653984069826,0.059309035539627075,-12.714409828186037,-2.089529037475586
24.86004638671875,-3.7570786476135254,14.801610946655273,-0.16612187027931213,-12.846580505371094,-2.190398454666138
39.243019104003906,-3.379441738128662,14.365943908691406,-0.1550310254096985,-11.647620201110842,-2.44840145111084
40.88119888305665,-0.9249553680419922,13.516982078552248,-0.4775369167327881,-10.043654441833498,-2.0201041698455815
32.3006591796875,-6.657050609588624,13.785859107971193,-1.2700514793395996,-8.752116203308107,-1.6782517433166504
21.126005172729496,-8.710543632507326,16.736200332641605,-1.1541832685470583,-8.014998435974123,-1.9752414226531982
18.421260833740234,-8.630176544189453,21.346393585205078,-1.1585592031478884,-7.3270978927612305,-2.327006101608277
13.929858207702638,-6.924747943878175,19.362916946411136,-0.7874475717544556,-6.429452419281007,-2.394476175308228
8.424975395202638,-4.727921009063722,11.228317260742188,-0.07396917045116425,-5.7859864234924325,-2.4382147789001465
40.04216384887696,-10.303561210632326,27.700468063354496,0.2844899892807007,-3.572742462158203,-2.788885354995728
20.778682708740234,-8.585692405700685,28.251897811889652,0.5981628894805908,-0.1395498961210251,-2.2913527488708496
12.354773521423342,-8.281402587890625,21.620563507080078,1.1403272151947021,2.175303220748902,-1.9015456438064577
9.189373016357422,-5.965723037719727,16.97857666015625,1.2873536348342898,3.9129576683044434,-1.4658204317092898
5.709467887878418,-3.819876194000244,12.256689071655273,1.1371097564697266,4.885994911193848,-1.1556116342544558
2.523253202438355,-2.9777739048004155,8.981465339660646,0.7407694458961488,5.423793792724609,-0.8493167757987977
0.1812201738357544,-2.646610736846924,5.981791973114015,0.32635217905044556,5.579082012176515,-0.5469555258750917
-1.8901424407958984,-2.718599796295166,4.103466033935547,-0.14430850744247437,5.463593006134034,-0.21336042881011963
-1.9370942115783691,-3.0005161762237553,3.5875880718231206,-0.4990421533584595,5.1976470947265625,0.10466905683279039
0.11925778537988664,-2.9524843692779545,4.658931732177734,-0.7431983947753906,5.025250911712647,0.41988784074783325
2.1945414543151855,-2.8738195896148686,5.972265243530273,-0.9106199741363525,5.109229564666749,0.7057945132255555
3.6522908210754395,-3.181507825851441,6.952878952026367,-0.9755673408508301,5.338243961334229,0.9643349647521973
4.4185686111450195,-3.1825239658355717,7.341110706329347,-0.9039171934127808,5.657628059387207,1.2003740072250368
5.06197214126587,-2.9625473022460938,7.4576416015625,-0.7581554055213929,5.947630882263184,1.4064553976058962
5.831830501556397,-2.216153621673584,7.551990509033203,-0.6352890729904175,6.198831081390382,1.565838932991028
6.8809356689453125,-1.1384063959121706,7.821152210235597,-0.6428410410881044,6.421874046325684,1.717119336128235
8.217518806457521,-0.2878226637840271,8.159744262695312,-0.7568346858024598,6.655370235443116,1.8629748821258545
9.225225448608398,0.015634074807167053,8.490243911743164,-0.9513155817985536,6.9071245193481445,1.9879735708236697
9.442738533020021,-0.7686221003532411,8.546594619750977,-1.0444420576095583,7.109850883483887,2.05075740814209
9.949368476867678,-1.2286180257797243,8.448065757751467,-0.9758483767509462,7.208953857421875,2.111634492874146
10.767325401306154,-0.8555046319961548,8.581878662109375,-0.8344055414199829,7.207851409912109,2.210119009017945
11.849067687988281,0.08598558604717255,9.25381851196289,-0.7730332612991333,7.149620532989503,2.3304882049560547
13.092518806457521,0.48377829790115356,10.37009048461914,-0.8261589407920839,7.077643394470215,2.4383678436279297
14.114595413208008,0.25468897819519043,11.658273696899414,-0.8380718231201172,7.015662670135499,2.4988760948181152
15.408261299133303,-0.06119276583194733,13.08279800415039,-0.7523977756500244,6.952801704406738,2.5050351619720463
16.720027923583984,-0.3339616060256958,14.415605545043945,-0.6021546125411987,6.875678539276124,2.472013473510742
18.509098052978516,-0.580632507801056,15.78769302368164,-0.44540661573410034,6.770348072052003,2.4165866374969487
21.353006362915043,-1.1150141954422,17.182540893554688,-0.2936904728412629,6.6640777587890625,2.3605678081512456
24.615036010742188,-1.1455249786376953,18.351610183715824,-0.147874191403389,6.564893245697022,2.311769485473633
28.27581024169922,0.0688769519329071,19.029056549072266,-0.1531893461942673,6.4959917068481445,2.243158102035523
32.10325241088868,1.4291198253631592,17.954483032226562,-0.4521919190883637,6.542538642883301,2.1396985054016113
33.62822723388672,0.5820692777633667,14.364119529724123,-0.9005872607231141,6.633904457092285,1.9595748186111452
33.384662628173835,0.4515414237976074,7.84008550643921,-1.104107975959778,6.605003833770753,1.5733685493469238
33.41498565673828,3.5012831687927246,-1.540461778640747,-1.3948695659637451,6.327929019927979,1.068047046661377
35.90791320800781,8.585306167602539,-13.314729690551758,-2.1637096405029297,5.71758794784546,0.6039430499076844
40.93040084838868,6.241486072540284,-27.563234329223636,-2.8592722415924077,4.840793609619141,0.4821829497814179
35.06107711791993,2.6052308082580566,-34.851226806640625,-2.3335094451904297,2.9007411003112793,0.5457436442375184
21.524078369140625,0.9466023445129395,-30.208518981933594,-1.1688275337219238,-0.005032533314079047,0.20368465781211853
17.07553482055664,0.4870406091213227,-17.87142372131348,0.24377818405628207,-2.475170612335205,-0.6368530988693237
14.936576843261719,-7.616576671600343,-5.649135112762452,2.5323195457458496,-4.519005298614503,-1.194573163986206
8.165050506591797,1.879343628883362,3.0027816295623784,4.097529411315918,-5.215547561645508,-2.0504405498504643
10.973114967346193,14.751174926757812,16.818073272705078,2.7190034389495854,-5.694772720336914,-1.881273150444031
7.077725887298585,5.388769149780273,22.685861587524418,0.4874975979328156,-5.088418006896973,-1.1600697040557861
22.442474365234375,1.8786685466766357,15.18551540374756,0.030031364411115646,-5.2082257270813,-1.351090669631958
30.167306900024418,5.548264026641847,19.01293754577637,-0.11474916338920593,-4.493821144104004,-0.6875090003013612
29.65479278564453,-3.0702733993530273,20.219614028930668,-0.08890324085950853,-3.5137786865234375,-0.48413017392158514
18.767139434814453,-4.722011089324952,15.997569084167482,0.11144519597291948,-2.717623710632324,-0.6543328762054443
10.01254177093506,-3.759068489074707,11.755331039428711,0.23885424435138705,-2.337106704711914,-0.385458916425705
7.540567398071289,2.8400015830993652,10.490837097167969,0.2940144836902619,-2.0983369350433354,-0.3553200364112854
9.071831703186037,3.1012084484100346,10.650179862976076,0.2037521451711655,-1.6962835788726807,-0.6290497183799745
11.804341316223146,-3.8634812831878667,11.007936477661133,0.4034819006919861,-1.1268550157547,-0.851698935031891
8.491276741027834,-5.73564100265503,9.760736465454102,0.6470959782600404,-0.7342954874038696,-0.6178752779960633
6.691004753112793,0.6633169651031494,10.884912490844727,0.6322975754737855,-0.6017799973487855,-0.3245190978050232
5.752162933349609,2.4390311241149902,11.440535545349123,0.3691750764846802,-0.4483788907527924,-0.35589325428009033
6.265461444854737,-2.2237455844879155,9.810645103454592,0.1787739843130112,-0.3049141764640808,-0.28435492515563965
5.228679180145265,-1.4703143835067751,9.944391250610352,0.09680052101612091,-0.2658954560756684,-0.11081667244434357
5.923588275909425,0.6122951507568359,10.990165710449219,0.003221428254619241,-0.286293774843216,-0.06470020115375519
5.511846542358398,-0.9689068198204042,10.14382076263428,-0.09156036376953125,-0.24902312457561496,-0.02997223287820816
4.763986587524414,-0.9219969511032104,9.721542358398438,-0.12324598431587219,-0.2563415467739106,-0.017255535349249843
5.619813919067383,-0.5008938312530518,10.01693630218506,-0.15809480845928195,-0.2627636194229126,-0.01870854385197163
5.262815952301026,-0.9510484933853149,9.61696529388428,-0.22015063464641574,-0.2457152456045151,0.03650800883769989
4.957165241241456,-1.2522027492523193,9.392840385437013,-0.26596698164939886,-0.2575356364250183,0.13358862698078158
4.614531517028809,-1.4923425912857058,9.349884986877443,-0.27966487407684326,-0.26509121060371404,0.0893017277121544
4.802642345428468,-1.9083689451217654,9.444138526916506,-0.3052164018154145,-0.31202930212020874,0.012088323943316938
4.863494396209718,-2.0202083587646484,9.266090393066406,-0.3323350846767426,-0.3225254118442536,0.01803215965628624
4.746567249298097,-2.180688619613648,9.022480010986328,-0.3140458166599274,-0.32058602571487427,-0.005646265577524901
4.797032356262207,-2.2411057949066167,8.789388656616211,-0.2714769542217255,-0.34263044595718384,-0.05392882972955704
5.002671718597413,-2.057904481887818,8.671480178833008,-0.21976512670516968,-0.34151473641395574,-0.06297855079174042
5.053491592407227,-2.0674722194671635,8.69284439086914,-0.1856753379106522,-0.3376975357532502,-0.09731321036815643
5.319718837738038,-1.7442677021026611,8.936713218688967,-0.17445695400238037,-0.3182250559329987,-0.10307686030864716
5.361130714416504,-1.5117413997650146,8.78426742553711,-0.16711713373661044,-0.26007503271102905,-0.09192515909671783
5.183262825012207,-1.781027674674988,8.640677452087404,-0.15333716571331027,-0.21782639622688293,-0.12039918452501298
4.977306842803956,-1.7153043746948242,8.757392883300781,-0.1392861008644104,-0.18589118123054504,-0.1470894664525986
4.773580074310304,-1.9415551424026491,8.758402824401857,-0.1320905536413193,-0.18896451592445374,-0.19142706692218783
4.674895286560059,-2.0916805267333984,8.720609664916992,-0.12447272986173631,-0.21871739625930786,-0.24238276481628418
5.018338680267335,-1.881112813949585,8.756001472473146,-0.11811655759811401,-0.24592469632625583,-0.27410250902175903
4.8755202293396005,-1.8244742155075075,8.691884040832521,-0.12060627341270447,-0.2737972140312195,-0.298151046037674
5.199305534362793,-1.5989651679992676,8.874914169311523,-0.12725241482257846,-0.33068859577178955,-0.2962832152843476
5.518559455871582,-1.3837354183197021,8.87696933746338,-0.1378172188997269,-0.36291658878326416,-0.2701091170310974
5.674573421478272,-1.4178802967071533,8.751578330993654,-0.14257091283798218,-0.3862453401088715,-0.21749553084373474
5.346420764923097,-1.3917665481567383,8.656248092651367,-0.13383208215236667,-0.4034780561923981,-0.1530812680721283
5.209603786468507,-1.656182646751404,8.700293540954592,-0.10533676296472551,-0.42656081914901733,-0.0842697098851204
4.522061824798585,-1.8685331344604492,8.811438560485842,-0.10830768942832947,-0.49880281090736395,-0.09491068869829179
4.740570545196534,-1.8225140571594238,9.344135284423828,-0.1122446209192276,-0.6239605545997621,-0.11854660511016846
4.896679401397706,-2.055790424346924,9.163171768188477,-0.11823552101850511,-0.7681450247764589,-0.17056676745414734
4.550098419189453,-2.1113762855529785,9.321585655212404,-0.11480265110731126,-0.9584335088729858,-0.2315844148397446
4.737022876739503,-1.4324303865432741,9.686187744140625,-0.17746558785438538,-1.1543320417404177,-0.24075533449649814
5.178955554962159,-1.3409671783447266,9.686954498291016,-0.19910053908824923,-1.3826522827148438,-0.2362332493066788
5.041596412658691,-0.97513747215271,9.888252258300781,-0.1969598084688187,-1.6230727434158327,-0.269652783870697
4.857656955718995,-0.6004736423492432,10.028473854064943,-0.25576642155647283,-1.9445571899414062,-0.2338717430830002
5.299155712127686,-0.44865882396698,9.943305015563967,-0.3222203254699707,-2.32846474647522,-0.13068856298923495
5.245612621307374,-0.754565954208374,9.742964744567873,-0.3383335173130036,-2.7380290031433105,-0.02392418868839741
5.174298286437988,-0.2986066937446594,10.126461029052734,-0.38027137517929077,-3.191922187805176,0.024461464956402782
4.934580326080323,-1.4839346408843994,10.002160072326662,-0.41706252098083496,-3.8262116909027104,-0.007310248911380768
2.126994848251343,-3.2139687538146973,10.285877227783203,-0.4216748774051667,-4.641436576843262,-0.1587686538696289
2.3391976356506348,-4.094367980957031,10.197354316711428,-0.31141492724418646,-5.7412824630737305,-0.4512572586536408
2.5734052658081055,-4.107714653015137,9.846001625061037,-0.2506839334964753,-6.92701005935669,-0.6774770021438599
3.014766216278076,-2.540070772171021,10.359682083129883,-0.2842522561550141,-8.231338500976562,-0.9103177189826966
4.168130397796632,-3.3397254943847656,10.96785068511963,-0.3310987949371338,-9.644856452941896,-1.1353904008865359
7.927391529083253,-4.046629905700684,12.36332416534424,-0.3842673599720002,-10.981943130493164,-1.3331300020217898
15.113977432250977,-4.646174907684327,14.290917396545412,-0.5742464065551758,-11.75241470336914,-1.552951216697693
22.57767105102539,-6.429674625396729,13.841743469238281,-0.49986594915390015,-11.804333686828615,-1.9872865676879883
35.462982177734375,-4.195955753326417,13.442835807800295,-0.5319967269897461,-11.133503913879396,-2.0793526172637944
39.841346740722656,-4.340417861938477,16.896871566772464,-1.3146727085113525,-9.896914482116701,-1.6967453956604004
26.730474472045902,-9.557040214538576,14.60519790649414,-1.7324284315109255,-8.938771247863771,-1.7589678764343262
24.815704345703125,-12.756972312927248,16.962656021118168,-1.099985122680664,-8.370974540710451,-2.4757628440856934
21.370532989501953,-10.055458068847656,20.916601181030277,-0.37444004416465765,-7.652012825012207,-2.98167085647583
16.636154174804688,-10.763133049011232,19.081178665161136,0.1274244785308838,-6.411275386810304,-3.077145576477051
8.823029518127443,-2.743952035903931,17.96554183959961,0.014398918487131597,-5.255190372467042,-2.5461392402648926
42.07069396972656,-8.06968879699707,29.72801017761231,0.37664860486984253,-3.3981654644012456,-3.2281651496887207
20.65490531921387,-5.919436454772949,30.18273735046387,0.0876939818263054,0.2433527410030365,-2.573291778564453
13.06765651702881,-8.273118019104006,23.039510726928714,0.239572748541832,2.6694440841674805,-2.1911737918853764
9.62037754058838,-7.373658180236816,17.84823799133301,0.5154231786727905,4.45404052734375,-1.7990711927413943
5.530398368835449,-5.637290000915527,12.485807418823242,0.6484150290489198,5.382305145263672,-1.5305994749069216
0.7312339544296265,-4.852137088775636,8.416108131408693,0.5835471153259277,5.762246608734132,-1.2243973016738894
-1.5328266620635986,-4.5706987380981445,5.552894592285156,0.43869748711586004,5.803321838378906,-0.9476117491722108
-2.1323788166046147,-4.059260845184327,4.331557750701905,0.28907454013824463,5.593910217285156,-0.655186951160431
-1.3944746255874636,-3.404122829437256,4.3550477027893075,0.10049815475940704,5.380492687225343,-0.3988487720489502
0.26893556118011475,-2.5271544456481934,5.468225955963136,-0.10151805728673936,5.327299118041992,-0.14982593059539795
2.446386098861695,-1.804569959640503,6.583110809326172,-0.43938413262367254,5.457370758056641,0.15887422859668734
4.009421348571777,-2.5304765701293945,7.524858951568604,-0.6799150705337524,5.760406494140625,0.4737214148044587
5.232365131378175,-3.139089584350586,8.040139198303224,-0.7074359059333802,6.150718688964844,0.7314226031303407
6.586397647857667,-3.24849271774292,8.291636466979982,-0.6009668111801147,6.52834177017212,0.9249015450477601
7.689476490020753,-2.539335250854492,8.33864498138428,-0.47085368633270264,6.876650333404542,1.0892095565795898
8.0843505859375,-1.4809917211532595,7.881932735443116,-0.4485927522182465,7.189725399017335,1.2496087551116943
7.781125068664551,-1.0705167055130007,7.216327667236328,-0.559506118297577,7.356829643249512,1.43242084980011
7.676807880401612,-1.297565579414368,6.798592567443848,-0.6531741023063661,7.3714799880981445,1.621429443359375
7.913853645324707,-2.579017877578736,6.674116134643555,-0.6031149029731752,7.271462440490723,1.7943924665451052
8.9040002822876,-0.9892179369926454,7.634951114654542,-0.41143217682838445,7.098760128021241,1.9699149131774902
11.07152843475342,-0.6330320835113525,9.367506980895998,-0.4815298318862915,6.99500322341919,2.1662631034851074
13.048833847045898,-0.4876062273979187,11.220087051391602,-0.5567154884338379,6.993840694427491,2.2854001522064213
14.076128005981445,-0.890044093132019,12.5847864151001,-0.4922637045383454,7.057247161865234,2.300817251205445
14.742617607116701,-0.9057316780090332,13.474226951599123,-0.31960114836692816,7.080122470855714,2.2477593421936035
15.752087593078615,-0.7610485553741455,14.189208030700685,-0.13414645195007324,7.0324110984802255,2.169771671295166
17.45214080810547,-0.5228867530822754,15.041565895080568,0.0010023472132161262,6.940141677856445,2.1111435890197754
19.907428741455078,-0.42437455058097845,16.128318786621094,0.051051016896963126,6.8345842361450195,2.093878030776978
23.168701171875,-0.004807502031326294,17.724044799804688,-0.008333597332239151,6.759029388427734,2.132588624954224
26.42082977294922,0.6030855178833008,18.921222686767578,-0.17529992759227755,6.746952056884766,2.1802961826324467
29.463184356689453,1.8099405765533447,18.799724578857422,-0.5170828104019165,6.759145259857179,2.1851174831390385
31.568950653076172,2.2980785369873047,16.324686050415043,-1.1414005756378174,6.7143311500549325,2.194732189178467
32.578224182128906,-0.49732375144958496,12.260637283325195,-1.6606953144073486,6.547780990600586,2.1095559597015385
33.77336502075196,-1.339205026626587,4.974328517913819,-1.776296615600586,6.309158802032472,1.815765619277954
35.909217834472656,3.02210545539856,-4.853215217590332,-2.04872989654541,5.7941250801086435,1.34430468082428
43.75285720825196,7.187581539154054,-19.334989547729496,-2.9932816028594975,5.300573348999023,1.161447882652283
45.35897445678712,3.5349571704864506,-33.31838607788087,-3.2508094310760502,4.337510585784913,1.2816789150238037
32.435516357421875,1.8690123558044434,-36.1119728088379,-2.583695888519287,1.760111451148987,1.0170097351074219
17.2756519317627,-2.317699909210205,-26.727684020996094,-1.0934233665466309,-1.3937460184097292,0.0252769198268652
19.92245101928711,-1.440517067909241,-12.192358016967773,0.4953473508358002,-3.4738430976867676,-1.2804659605026247
23.688697814941406,-1.9552696943283083,3.524730682373047,1.2374325990676882,-3.95007872581482,-1.9199941158294678
12.891992568969727,-10.278282165527344,15.388567924499513,3.4559161663055424,-4.960947036743164,-1.6054958105087282
-6.386639595031738,3.294546604156494,12.536782264709474,2.8730046749114995,-4.284615516662598,-1.475759506225586
-0.39399254322052,5.441824436187745,16.420516967773438,0.7698779702186586,-4.804616928100586,-0.8761450648307801
7.470227718353272,0.1790660321712494,9.201218605041506,0.0402614213526249,-5.851797580718995,-0.8947066068649292
29.676218032836918,6.08547067642212,18.078077316284183,-0.20384040474891663,-5.855294704437257,-0.41462117433547974
33.19735336303712,4.342511177062988,21.519220352172855,-0.28619363903999334,-4.548307418823242,-0.24207854270935059
22.264841079711918,-0.1274729073047638,17.082628250122074,0.055886246263980865,-3.4120342731475835,-1.1572210788726807
16.634735107421875,-6.551339149475098,14.126869201660156,0.3463962376117707,-2.7959830760955815,-1.2463397979736328
11.376246452331545,-4.624362468719483,11.462096214294435,0.5917059183120728,-2.3641173839569096,-0.975406289100647
11.661155700683594,0.18155398964881897,12.952818870544435,0.7725017666816713,-1.9567582607269287,-1.0652430057525635
12.537179946899414,3.069338321685791,13.094977378845217,0.7760215401649476,-1.0603058338165283,-1.0830966234207156
7.250048160552979,-4.15326738357544,8.785564422607422,0.814110279083252,-0.6733994483947754,-0.909525215625763
8.653889656066896,-2.0446338653564453,10.535313606262209,0.7655507326126099,-0.553838074207306,-0.4794970750808716
7.149353981018066,1.4328588247299197,11.051581382751467,0.5607976913452148,-0.2516286671161652,-0.36462375521659857
6.235374450683594,-0.8948241472244263,10.282773017883303,0.3748328685760498,-0.11823678761720659,-0.268923819065094
4.788467884063722,-0.906430721282959,9.822526931762695,0.29236602783203125,-0.0628749430179596,-0.19353611767292025
4.707511425018311,-2.018917798995972,9.97399425506592,0.2779477834701538,-0.08352860063314439,-0.23247382044792175
5.01720952987671,-1.5050276517868044,9.733343124389648,0.2646271586418152,-0.10573846846818925,-0.2597401440143586
4.747221946716309,-1.1079037189483643,9.690135955810547,0.2570872604846955,-0.08637155592441559,-0.30305895209312445
4.986988067626953,-1.1026202440261843,9.56557369232178,0.26260426640510565,-0.09336257725954057,-0.3162350058555603
5.11236333847046,-0.629306435585022,9.687347412109375,0.23905369639396667,-0.10892788320779802,-0.25987708568573
5.346441268920898,-0.2547295093536377,9.676057815551758,0.17817689478397372,-0.11296522617340088,-0.19090530276298523
5.3172101974487305,-0.36891904473304754,9.598185539245607,0.08674395084381104,-0.11488460749387742,-0.09797796607017517
5.195269107818604,-0.5126508474349976,9.50247097015381,0.004523462615907192,-0.10695195198059082,-0.03353403136134148
5.157451152801515,-0.5495380163192749,9.403813362121584,-0.058484144508838654,-0.10964273661375047,0.01464851014316082
5.064054965972901,-0.9619947075843812,9.202110290527344,-0.08456163853406908,-0.1136569082736969,0.03533327579498291
5.063161373138429,-1.0252861976623535,9.014556884765625,-0.08194369077682495,-0.11084183305501939,0.0389375239610672
4.989764213562012,-1.057185173034668,8.943624496459961,-0.07237636297941209,-0.10185291618108751,0.03587682545185089
4.938118934631348,-1.1567625999450684,8.904221534729006,-0.05549772083759308,-0.09503488987684251,0.024854756891727448
4.788588523864746,-1.3119176626205447,8.838151931762695,-0.026817142963409424,-0.07067323476076127,-0.007563089486211539
4.397529125213624,-1.622511625289917,8.879832267761232,0.014593511819839478,-0.07166843861341478,-0.04558292776346207
4.44545841217041,-1.3677668571472168,9.058282852172852,0.0464986115694046,-0.09910166263580322,-0.09378433972597124
4.528342723846436,-1.1201202869415283,9.020729064941406,0.07248057425022125,-0.1222212389111519,-0.1347583532333374
4.5609283447265625,-1.1897988319396973,9.022041320800781,0.11847082525491716,-0.14965906739234924,-0.19180378317832947
4.62662410736084,-1.0458537340164187,9.126033782958984,0.10915838181972504,-0.1674306243658066,-0.2089672088623047
4.529664993286133,-0.8816948533058168,9.196537971496584,0.1396629512310028,-0.16431781649589539,-0.26175627112388616
4.506345748901367,-0.829228401184082,9.43093013763428,0.12806679308414462,-0.18720880150794983,-0.31711325049400335
4.527479648590089,-0.9680817127227783,9.378002166748047,0.09635036438703538,-0.2347361445426941,-0.33743417263031006
4.6376848220825195,-0.9490500688552856,9.411700248718263,0.08763866126537323,-0.2800839245319367,-0.3671116232872009
4.671836853027344,-0.9951788187026978,9.543111801147461,0.07535222172737122,-0.34320735931396484,-0.4088973701000214
5.213447570800781,-0.6480190753936768,9.473810195922852,0.043514486402273185,-0.40937328338623047,-0.4185189306735993
5.002094268798828,-1.0381004810333252,9.377737998962404,0.03549393266439438,-0.4922280609607697,-0.43474563956260687
4.627019405364991,-0.9846117496490479,9.590862274169922,0.08785489946603776,-0.6277573108673096,-0.4337387382984162
5.1592116355896005,-0.5362882614135742,9.620583534240724,0.09088353067636491,-0.7831230759620668,-0.4211266040802002
4.964857578277589,0.2891444861888886,10.038144111633303,0.03904322907328606,-0.9676005840301514,-0.34535172581672674
4.248943328857422,0.38244789838790894,10.336408615112305,-0.047939028590917594,-1.2331032752990723,-0.25085002183914185
3.831331253051758,0.002926558256149292,10.600100517272951,-0.10266546905040741,-1.5674203634262087,-0.15045154094696045
3.626066207885742,-0.2741621136665344,10.806436538696289,-0.14143820106983188,-1.963372588157654,-0.09111683070659637
4.335839748382569,0.49912595748901367,10.993236541748047,-0.19983218610286715,-2.401317596435547,-0.035034645348787315
4.73748540878296,1.1092536449432373,10.474100112915039,-0.32041034102439886,-2.833017349243164,0.0471939891576767
4.539981365203858,1.356806993484497,10.7544641494751,-0.467268317937851,-3.29948091506958,0.13255183398723605
4.068689823150636,-0.13180488348007202,10.825389862060547,-0.5301464796066284,-3.938717842102051,0.1159069910645485
3.3899312019348145,-1.8312276601791384,11.104927062988281,-0.5313977599143983,-4.676074981689453,-0.06202952936291695
1.8798936605453493,-3.637277126312256,11.032325744628906,-0.5024770498275757,-5.544106006622315,-0.3032354414463044
0.6982172727584839,-3.832668542861939,10.5949182510376,-0.3156653642654419,-6.708317279815675,-0.6636544466018677
1.374377727508545,-4.482635021209718,10.294970512390138,0.06829684972763062,-8.359703063964844,-1.09092652797699
3.1781761646270756,-3.273542881011963,9.586748123168945,0.34207853674888616,-10.072532653808594,-1.3383077383041384
4.213062286376953,-1.926751494407654,10.897141456604006,0.35731935501098633,-11.877642631530763,-1.6882849931716921
11.699822425842287,-3.3117918968200684,12.923398017883303,0.034983232617378235,-13.215954780578615,-1.9154081344604492
23.411931991577152,-4.0625505447387695,14.257548332214357,-0.2269403785467148,-13.825602531433107,-1.9421639442443848
39.33290100097656,-1.4865961074829102,15.856266975402834,-0.16326090693473816,-12.79221820831299,-2.138387680053711
44.83591842651368,-2.5112044811248784,14.49017333984375,-0.30067211389541626,-10.957036018371584,-1.8295627832412722
35.23775863647462,-8.651412963867188,13.557159423828125,-0.7216787934303285,-9.611183166503906,-1.6690336465835574
25.377059936523438,-9.783963203430178,18.902929306030277,-0.9395821690559388,-8.761189460754396,-1.8891699314117432
20.58792495727539,-6.092384815216065,24.764196395874027,-1.145777940750122,-8.01830577850342,-2.069427490234375
16.14352798461914,-7.342115879058839,21.043878555297855,-0.645537257194519,-6.941922664642335,-2.2982556819915776
12.33279323577881,-6.7754364013671875,15.28866195678711,-0.008462348952889442,-5.9527955055236825,-2.2383670806884766
44.628746032714844,-13.1536340713501,34.46932601928712,0.3695840537548066,-2.848636865615845,-2.405944347381592
22.017286300659183,-9.385058403015138,31.502113342285156,0.5472435355186464,1.5115256309509277,-1.5226944684982302
12.561284065246584,-9.379004478454592,23.552276611328125,0.9754933714866639,4.106511116027832,-0.994543194770813
8.541831970214844,-6.168877601623535,16.86273002624512,1.0837675333023074,5.814282417297363,-0.6100988984107972
3.6148917675018315,-4.054778575897218,10.63224983215332,1.004089117050171,6.491758346557617,-0.36857387423515325
-1.9861179590225222,-2.83492374420166,6.46241331100464,0.7785433530807495,6.506767749786378,-0.20104801654815674
-4.612612247467042,-2.6167671680450444,3.2641592025756836,0.4539068341255188,6.1030240058898935,-0.09460844844579698
-4.450326442718507,-1.6284934282302859,2.6579101085662846,0.07213890552520752,5.537116527557374,0.05372266471385956
-0.9663032293319702,-0.5831758975982666,4.374022006988526,-0.41598284244537354,5.153825759887695,0.3036158382892609
2.468471050262451,-0.3757414221763611,6.506697177886964,-0.9336271882057191,5.209535598754883,0.581713616847992
4.00789737701416,-1.1252859830856325,8.04508686065674,-1.2950854301452637,5.541981220245362,0.7895211577415467
4.605956077575684,-2.1310744285583496,8.502866744995117,-1.328193545341492,5.961972236633301,0.9349423050880433
4.861852645874023,-2.3072142601013184,8.12308979034424,-1.1599087715148926,6.309907913208008,1.0382386445999148
5.452200889587402,-1.4288245439529421,7.802407741546632,-0.9933886528015137,6.521661281585694,1.1506991386413574
6.5203857421875,-0.2840981781482697,7.81484079360962,-0.9681136012077333,6.672155380249023,1.3113758563995361
7.319155216217042,0.5115532279014589,8.021228790283203,-1.0576843023300173,6.8149261474609375,1.476295351982117
8.236063003540039,0.7116320729255677,8.350200653076172,-1.1775076389312744,6.950711250305176,1.6276043653488161
8.826545715332031,0.2559790015220642,8.647039413452148,-1.2075031995773318,7.084052085876465,1.7085608243942263
9.208413124084474,-0.13459253311157227,9.00206184387207,-1.13899564743042,7.1650662422180185,1.7289501428604128
10.011569023132326,-0.27789959311485296,9.625537872314453,-0.9837396740913392,7.176966667175293,1.754134774208069
11.343782424926758,0.5501279830932617,10.492810249328615,-0.8696647882461548,7.172056198120117,1.8155301809310915
13.07960319519043,1.476903557777405,11.658590316772461,-0.9249217510223389,7.197015285491944,1.9153902530670166
14.358731269836428,1.3599522113800049,12.817030906677248,-1.0405975580215456,7.235067367553711,1.9879658222198486
15.844401359558107,0.9430639743804932,14.13299083709717,-1.068504810333252,7.251836299896241,2.023209571838379
17.510784149169922,0.706128716468811,15.506838798522951,-1.0007810592651367,7.255114555358887,2.0561854839324956
19.453907012939453,0.18500691652297974,16.91974639892578,-0.8900642395019531,7.235564708709718,2.106248378753662
22.249425888061527,-0.4417219460010529,18.361795425415043,-0.6939088702201844,7.175050735473633,2.206153392791748
25.8641357421875,-0.38984954357147217,19.67339134216309,-0.4538107812404633,7.063758850097656,2.354890584945679
29.719093322753906,0.5459233522415161,20.053085327148438,-0.2975667715072632,6.918942451477051,2.4699618816375737
33.020164489746094,1.1061451435089111,19.410955429077152,-0.3488735556602478,6.713797092437745,2.498927116394043
35.95611190795899,-1.2222558259963991,14.732450485229492,-0.46521648764610296,6.523495674133301,2.3314948081970215
38.217918395996094,-4.728900909423828,4.747426509857179,-0.14632228016853333,6.403849124908448,1.683464527130127
44.83793258666993,7.046257495880128,-11.563982963562013,-0.3396517038345337,6.262749671936035,0.9271929860115052
58.35955047607422,13.419985771179201,-33.32177734375,-2.66239070892334,6.1361966133117685,0.8751908540725708
47.191059112548835,9.533852577209474,-46.11053085327149,-4.183164596557617,4.459083080291749,1.7198337316513064
23.65288352966309,0.5671539306640625,-42.15410995483399,-3.9950504302978516,0.6487993597984315,1.8109245300292969
2.765047073364258,-20.206365585327152,-32.11576843261719,1.177612543106079,-5.2255144119262695,0.2709117233753205
-1.9377787113189697,1.9318630695343018,-12.136451721191406,4.381324768066406,-7.645491123199464,-2.8245162963867188
24.999736785888672,21.081741333007812,19.208301544189453,3.486164093017578,-8.45480251312256,-3.2062871456146245
26.323297500610355,12.167004585266115,33.147968292236335,0.9899469017982484,-6.278918266296387,-1.8196455240249636
29.398172378540043,4.055755615234375,18.01683616638184,0.22469724714756015,-5.4548306465148935,-1.9898734092712402
26.57299613952637,1.6647906303405762,12.697550773620607,0.5341016054153442,-5.012634754180909,-1.914923906326294
35.999462127685554,-5.221109867095948,20.08177947998047,0.5776841640472412,-4.114551067352296,-1.2479878664016726
26.85558891296387,-4.995736122131348,19.40524482727051,0.5596957206726074,-2.7541744709014897,-0.8799874782562256
9.903848648071289,-0.014888525009155273,13.16524410247803,0.5344235897064209,-2.036269187927246,-0.6887986063957215
10.304898262023928,3.673656940460205,13.160091400146484,0.5652391314506532,-1.7642393112182617,-0.7202606797218324
10.265316009521484,6.106614112854004,12.171179771423342,0.36046159267425537,-0.9386108517646791,-0.7564136385917665
5.49174690246582,-4.034687519073487,7.822476863861085,0.48923754692077637,-0.6057741045951844,-0.8085849285125732
8.19332790374756,-4.8050031661987305,9.730319023132326,0.6042767763137817,-0.5133801698684692,-0.5731822848320008
7.598936080932617,2.496719598770142,11.423254013061523,0.6271637678146362,-0.24441884458065036,-0.45068472623825073
6.290336608886719,0.862639307975769,10.623770713806154,0.40642911195755005,-0.07227481156587602,-0.366796225309372
4.861200332641602,-1.6630500555038454,9.79232406616211,0.23198096454143527,-0.030192483216524124,-0.27338591217994695
4.763448715209961,-0.9181625247001649,9.786171913146974,0.16253089904785156,-0.026313312351703644,-0.2567287385463715
4.836133003234863,-0.8170950412750244,9.782776832580568,0.1847813576459885,-0.05302639305591583,-0.25068065524101263
5.096802234649659,-0.677695631980896,9.957505226135256,0.16787998378276828,-0.06290771067142487,-0.2539494037628174
5.1930341720581055,-1.0793834924697878,9.60861110687256,0.14804190397262573,-0.09169990569353105,-0.2295600175857544
5.104308605194093,-0.7450038790702821,9.516153335571289,0.1551622450351715,-0.10504519939422607,-0.20322166383266452
5.770709991455078,0.1901734173297882,9.825935363769531,0.08561483025550842,-0.1284124702215195,-0.09078328311443329
5.43580436706543,-0.10186529159545898,9.709882736206055,-0.024210905656218532,-0.10820788145065308,0.009894115850329399
4.920202255249023,-0.43698060512542725,9.598387718200685,-0.10104115307331085,-0.11187363415956499,0.05052082985639572
