AccX,AccY,AccZ,GyrX,GyrY,GyrZ
0.003602121025323868,-0.000484179996419698,0.0068842372857034215,-2.8784154437744296e-06,-1.681742287473753e-05,-9.253458301827779e-06
4.913668155670167,-0.6578639149665834,9.299053192138672,-0.003766327165067196,-0.019458916038274765,-0.010059048421680929
4.918227672576905,-0.6858216524124146,9.292220115661623,-0.006381735671311618,-0.020004134625196457,-0.01058671157807112
4.960587501525879,-0.6201381087303163,9.31580924987793,-0.0021161185577511787,-0.01620808802545071,-0.010378788225352766
4.943474292755128,-0.6767452359199525,9.291272163391115,-0.00480999005958438,-0.013559453189373016,-0.008846323005855085
4.91066837310791,-0.6902879476547241,9.29484748840332,-0.002095232717692852,-0.012060033157467842,-0.006627651397138835
4.876232624053956,-0.668114423751831,9.302586555480959,-0.0022226984146982436,-0.013463923707604408,-0.007282419595867396
4.897364139556886,-0.7069432139396669,9.272862434387209,-0.0011915061622858047,-0.015587975271046163,-0.011507690884172918
4.917802333831788,-0.6615487337112427,9.314061164855959,-0.0016783656319603326,-0.01607317104935646,-0.010941303335130216
4.891661643981934,-0.6902261972427368,9.293771743774414,-0.0024301942903548483,-0.016228659078478817,-0.011664697900414467
4.914226531982422,-0.6775445342063905,9.310984611511232,-0.0007208754541352391,-0.01630603708326817,-0.012457596138119698
4.9461636543273935,-0.6727073192596436,9.309429168701172,-0.0020179224666208033,-0.016032706946134567,-0.012141156941652298
4.909936428070069,-0.6517937183380127,9.328140258789062,-0.0028463478665798907,-0.016048457473516464,-0.012446084059774877
4.904346942901612,-0.6652580499649048,9.300846099853516,-0.001671207370236516,-0.015850450843572617,-0.010172412730753424
4.883375644683839,-0.7088637948036195,9.308633804321289,-0.00016069956473074853,-0.015813576057553295,-0.012589855119585991
4.895476818084718,-0.6785811185836792,9.323326110839844,0.0014083785936236382,-0.01737392880022526,-0.014509295113384725
4.929584026336671,-0.6467477679252626,9.328237533569336,0.00029286133940331643,-0.019326426088809967,-0.014860928989946844
4.935823440551758,-0.629465162754059,9.299208641052248,-0.0037634847685694695,-0.018313605338335037,-0.012043678201735021
4.950455665588379,-0.6255761384963989,9.298676490783693,-0.0034132262226194148,-0.016065698117017746,-0.009804165922105314
4.890018939971925,-0.6491889357566835,9.336344718933107,-0.004569836892187595,-0.013232883997261526,-0.00864993501454592
4.900450229644776,-0.7001252174377441,9.310108184814453,-0.004185225814580917,-0.015420979820191862,-0.00855240598320961
4.920535087585449,-0.6822880506515503,9.341078758239748,-0.005023927427828312,-0.017846692353487015,-0.009763724170625212
4.906653881072999,-0.6797106266021729,9.313252449035646,-0.0029744706116616726,-0.015775306150317196,-0.01016724668443203
4.921132564544679,-0.6641765236854554,9.32217311859131,-0.0021577486768364906,-0.016283879056572918,-0.009944607503712179
4.918167591094972,-0.6834616065025331,9.288227081298828,-0.001805067528039217,-0.015107848681509497,-0.011333968490362167
4.909747600555421,-0.6878558397293091,9.313029289245607,-0.0033233086578547955,-0.015988949686288834,-0.01030192617326975
4.925532341003418,-0.6899691820144653,9.308293342590334,-0.0037340326234698296,-0.01714004017412663,-0.00982259213924408
4.934831619262695,-0.6816957592964173,9.32270908355713,-0.003878828370943666,-0.017735492438077927,-0.011289175599813461
4.934522151947022,-0.66058349609375,9.308195114135742,-0.0013310135109350087,-0.01687486469745636,-0.009929518215358259
4.930717945098878,-0.6790792942047119,9.320858955383303,-0.0006695807678624988,-0.01565740630030632,-0.009833128191530706
4.9125733375549325,-0.7011760473251343,9.319072723388672,-0.00022288154286798092,-0.01596692204475403,-0.010040971450507643
4.922137737274171,-0.7052575349807739,9.300357818603516,0.001045466051436961,-0.013980166986584663,-0.013389689847826958
4.925020217895508,-0.6671132445335389,9.286549568176271,0.0003196495526935906,-0.013201761990785599,-0.014415104873478414
4.932246685028077,-0.6913926601409912,9.324462890625,0.0019324829336255789,-0.014348959550261497,-0.012296478264033796
4.911721229553223,-0.6963217258453369,9.313887596130373,0.0006066479836590589,-0.011965300887823105,-0.01344022247940302
4.9481472969055185,-0.6645941734313965,9.306661605834961,0.0003414340317249298,-0.011667010374367239,-0.01222349423915148
4.930440425872804,-0.6727633476257324,9.32033920288086,-2.6111762053915303e-05,-0.012390317395329475,-0.012418027035892011
4.940255165100098,-0.6692405939102173,9.302431106567383,0.001379214460030198,-0.010948320850729942,-0.01111868303269148
4.924079895019531,-0.6400832533836366,9.293663978576662,-0.0005033314228057861,-0.010988191701471807,-0.01221785694360733
4.902179718017578,-0.7030196189880371,9.297818183898928,-0.002239941619336605,-0.010838144458830358,-0.01017949264496565
4.884559631347656,-0.7298004627227783,9.336615562438967,0.0015045775799080732,-0.01181376725435257,-0.01166998501867056
4.899035930633546,-0.7117987275123597,9.34362316131592,0.002529098652303219,-0.01432720385491848,-0.01455014292150736
4.933732032775879,-0.6522657871246338,9.319904327392578,0.0028303335420787334,-0.01564002223312855,-0.0141124427318573
4.94071912765503,-0.6350502967834473,9.304302215576172,0.0003848949854727835,-0.013599427416920662,-0.014263845980167389
4.935677528381348,-0.6633532047271729,9.305243492126467,-2.540915920690168e-05,-0.011004317551851273,-0.010069320909678938
4.915143013000488,-0.6664438843727113,9.299016952514648,0.0006685018306598067,-0.009984670206904411,-0.011537059210240843
4.92336368560791,-0.672175407409668,9.310301780700685,0.0017874545883387327,-0.00783266592770815,-0.010472331196069717
4.907259941101074,-0.6773421168327333,9.315556526184084,-0.0007758159772492946,-0.0075253574177622795,-0.010413654148578644
4.893881797790527,-0.6722604036331177,9.329709053039553,0.0004931588773615659,-0.010314414277672768,-0.011473425664007665
4.897106170654297,-0.6949158906936646,9.317456245422365,0.000699383788742125,-0.011929115280508995,-0.010904927738010885
4.89551877975464,-0.6836817860603334,9.304964065551758,0.0008722287602722645,-0.012087195180356504,-0.011373510584235191
4.895597457885742,-0.7100902199745179,9.293349266052248,0.0018933425890281799,-0.013604285195469856,-0.012950342148542404
4.927187919616699,-0.6678594350814819,9.328495979309084,0.0030584994237869982,-0.013806108385324478,-0.013154263608157636
4.933793544769288,-0.651914119720459,9.31862545013428,0.0010031923884525897,-0.013828440569341184,-0.012334693223237991
4.903512477874757,-0.6717461347579956,9.33859157562256,0.003910796251147986,-0.012138091027736664,-0.012251070700585844
4.903203487396241,-0.6874523758888246,9.302294731140138,0.006853891070932151,-0.013008637353777885,-0.01255452074110508
4.921182155609132,-0.672937273979187,9.293479919433594,0.006812453735619784,-0.011252600699663162,-0.01386441942304373
4.934814929962159,-0.6740316152572632,9.30457401275635,0.005796392448246479,-0.009780215099453926,-0.012678344734013082
4.920799732208253,-0.6653362512588501,9.324705123901367,0.0046448525972664365,-0.009594103321433067,-0.01232434716075659
4.923253059387207,-0.6133393645286561,9.310094833374023,0.0037368503399193287,-0.010262819938361646,-0.010214413516223432
4.924608707427979,-0.6830345988273622,9.300312995910646,0.0018292007734999063,-0.010208426043391228,-0.01108729559928179
4.910259723663331,-0.6670258045196533,9.330353736877443,0.001296158181503415,-0.011200500652194023,-0.009904247708618643
4.9003190994262695,-0.6800495386123657,9.340250015258789,0.0015338475350290537,-0.012362432666122915,-0.012107392773032188
4.921690940856934,-0.6738896369934082,9.323867797851562,0.0004140182281844318,-0.014196609146893026,-0.011499538086354734
4.910506248474121,-0.6892620325088501,9.30525875091553,0.0018396798986941576,-0.014703641645610334,-0.013529105111956596
4.932644844055176,-0.6530205011367798,9.320308685302734,0.0024894466623663902,-0.014476070180535316,-0.012822809629142286
4.941981792449952,-0.6670773625373841,9.286776542663576,0.0011270073009654882,-0.012723786756396294,-0.012497083283960821
4.944350242614746,-0.6265984177589418,9.282990455627443,0.002125686733052135,-0.00937463529407978,-0.01109263114631176
4.94769287109375,-0.6421521902084351,9.30718994140625,-0.00020681192108895632,-0.007165726274251938,-0.008993755094707014
4.927235126495362,-0.6745260357856752,9.33566665649414,0.0001931662845890969,-0.007497851736843586,-0.008117428980767729
4.909389495849609,-0.6842266321182251,9.315114021301271,0.0005347064579837025,-0.007627623155713081,-0.009392998181283476
4.874271392822266,-0.6877104043960571,9.341827392578125,0.0014962884597480297,-0.009851976297795774,-0.01139469910413027
4.9245500564575195,-0.6665594577789307,9.33326053619385,0.0005150243523530663,-0.008828511461615562,-0.01237489562481642
4.90824031829834,-0.6668478846549989,9.295630455017092,0.0009863772429525852,-0.011896107345819473,-0.012822189368307592
4.8816728591918945,-0.6763117909431459,9.321033477783203,0.0011977360118180513,-0.013201956637203695,-0.013060081750154495
4.896559238433839,-0.6802341938018799,9.327156066894531,0.0019598430953919888,-0.01620464585721493,-0.013762396760284902
4.914945602416992,-0.6609309315681459,9.32856559753418,0.0008060854161158204,-0.016655078157782558,-0.014312375336885452
4.938506126403809,-0.6344932913780214,9.293564796447756,-3.702981121023186e-05,-0.016884131357073787,-0.01268487237393856
4.94148063659668,-0.6775606274604798,9.293079376220703,-2.4336020942428153e-05,-0.013895262032747269,-0.011508186347782614
4.905117034912109,-0.683855950832367,9.302611351013185,0.0015679828356951475,-0.013200524263083937,-0.011722822673618795
4.942527294158936,-0.657490909099579,9.310272216796875,0.00032098201336339116,-0.01215960178524256,-0.013732688501477242
4.938279151916504,-0.615782916545868,9.301422119140625,0.0014932032208889723,-0.010587574914097786,-0.011829056777060034
4.918071269989015,-0.6615383625030518,9.296854019165039,0.0009013033122755588,-0.009867709130048752,-0.010029609315097334
4.903977394104004,-0.7075577974319458,9.288531303405763,0.0009949232917279005,-0.009847315959632398,-0.010509838350117208
4.876732349395753,-0.699214279651642,9.314702987670898,0.0029854178428649902,-0.009944767691195013,-0.011832179501652718
4.894975185394288,-0.6732609272003174,9.335596084594727,0.002817814704030752,-0.011672817170619965,-0.01242575701326132
4.88282346725464,-0.6872084140777588,9.328073501586914,0.0019005804788321257,-0.0159358736127615,-0.013651402667164803
4.90693473815918,-0.6766595244407655,9.298467636108398,0.0030364259146153927,-0.019218707457184795,-0.013587917201220991
4.9169206619262695,-0.6288193464279175,9.322406768798828,0.0029180294368416075,-0.019044380635023117,-0.014385581947863104
4.940006256103516,-0.6526976227760316,9.29107189178467,0.0022927189711481337,-0.01913201250135899,-0.011926930397748947
4.957863330841065,-0.6691759228706361,9.283852577209474,0.0018273820169270039,-0.017675874754786495,-0.013118769973516464
4.986645698547363,-0.6328158974647523,9.335024833679201,-0.0001554058835608885,-0.011672824621200562,-0.0119516272097826
4.950384140014648,-0.6432005167007446,9.304033279418945,-0.0014321458293125036,-0.010144872590899467,-0.008164889179170133
4.925676345825195,-0.6685028076171875,9.315857887268068,-0.0001678551343502477,-0.0060109621845185765,-0.0060728732496500015
4.902419090270996,-0.6941447257995605,9.323173522949219,-4.3644649849738926e-05,-0.007297667209059001,-0.008351724594831467
4.869372844696046,-0.7080615758895874,9.308939933776857,1.3161953575036025e-05,-0.01092461310327053,-0.011179102584719658
4.914342403411866,-0.6734883189201356,9.322859764099123,0.0014387790579348803,-0.01356745418161154,-0.01203550212085247
4.8866472244262695,-0.622537910938263,9.327641487121584,-3.4099214190064235e-06,-0.015833964571356777,-0.010721554979681969
4.898773670196534,-0.6892040967941284,9.344588279724123,0.00020392812439240515,-0.01912990771234036,-0.01362357847392559
4.93000364303589,-0.6845779418945312,9.34176540374756,0.00043659235234372323,-0.01812092959880829,-0.014604426920413971
4.948786258697511,-0.6338834762573242,9.281664848327638,0.0008991691283881664,-0.01748817600309849,-0.014670237898826599
4.956731319427491,-0.6396443843841553,9.29316806793213,0.0007487597758881749,-0.015435279347002508,-0.012835673987865448
4.950171947479249,-0.6705564260482788,9.32664680480957,-0.0005911911721341313,-0.011540735140442848,-0.009714021347463133
4.956589698791504,-0.6284939050674438,9.297673225402834,-0.0006906619528308511,-0.009275558404624464,-0.008388622663915159
4.959599494934082,-0.6181212663650513,9.295877456665039,-0.000669935194309801,-0.004783333279192448,-0.00807840470224619
4.900801658630371,-0.7475563287734985,9.31947135925293,-0.0020668087527155876,-0.005545917898416519,-0.008357460610568525
4.873407363891602,-0.7237557768821717,9.31802272796631,0.004901900421828032,-0.002057896461337805,-0.011039345525205137
4.979877948760987,-0.540340781211853,9.325132369995117,-0.0003170400159433484,-0.00543781602755189,-0.008225669153034689
4.894478797912598,-0.6407183408737183,9.298551559448242,-0.0065759336575865746,-0.0039011605549603705,-0.001970618963241577
4.885614871978761,-0.7928190827369691,9.314844131469727,-0.0010601852554827929,-0.006653826683759689,-0.0078052771277725705
4.9069533348083505,-0.6966166496276855,9.32420063018799,0.005381843075156212,-0.007409312296658755,-0.010422123596072197
4.978334426879883,-0.6368142962455751,9.307583808898928,0.0033247007522732024,-0.007264360785484314,-0.00906013697385788
4.938476085662843,-0.6162281036376953,9.328746795654297,-0.0003791639464907348,-0.0021517549175769095,-0.006466815248131752
4.871175765991211,-0.7394530773162842,9.291006088256836,0.0014083159621804953,-2.33199680224061e-05,-0.007030754815787078
4.879680156707765,-0.7210146188735962,9.336756706237795,0.004948598798364402,-0.005542549304664135,-0.008812955580651762
4.931614875793457,-0.6709622144699097,9.342932701110842,0.003793198382481933,-0.007688709534704685,-0.011889290064573288
4.871224880218507,-0.656120777130127,9.292520523071289,0.0025882658082991843,-0.00735467579215765,-0.009516465477645399
4.881138801574707,-0.6824620366096498,9.30700206756592,0.0023215033579617743,-0.009704354219138624,-0.012761812657117844
4.923602581024171,-0.658003568649292,9.344605445861818,0.0008683712803758682,-0.01267683319747448,-0.013245836831629278
4.905133724212647,-0.6688326597213745,9.320201873779297,0.0004508984857238829,-0.014734077267348768,-0.012152926065027716
4.893437862396241,-0.6830991506576538,9.296232223510742,0.002205696888267994,-0.015862205997109417,-0.012235738337039948
4.940224170684815,-0.6553025841712953,9.325528144836428,-0.0014564479934051635,-0.014102873392403127,-0.010594518855214119
4.921509742736816,-0.6621795296669007,9.318805694580078,0.0016028663376346233,-0.013892628252506256,-0.011226140893995764
4.931268692016602,-0.6636887788772583,9.313160896301271,0.0047241062857210645,-0.011771321296691895,-0.010762622579932213
4.931398868560792,-0.6579501628875732,9.304859161376953,0.0029864348471164703,-0.009835748933255674,-0.012191692367196083
4.883572578430176,-0.6666916608810425,9.324304580688477,0.001795820542611182,-0.00933306757360697,-0.012143062427639961
4.877971649169922,-0.6462250351905824,9.342713356018068,-0.0009200072381645441,-0.013846273533999922,-0.012447023764252663
4.854584693908691,-0.7366449236869813,9.336974143981935,-0.0029792173299938445,-0.01702205091714859,-0.011897547170519829
4.899450302124023,-0.684642255306244,9.330633163452148,-0.0005337836919352412,-0.021114459261298183,-0.014936793595552444
4.954556465148926,-0.5444098711013794,9.311939239501953,-0.0030146178323775534,-0.022137349471449855,-0.01163649745285511
4.946710109710694,-0.648998498916626,9.303966522216797,-0.005692431237548591,-0.01767919212579727,-0.007993935607373716
4.907497406005859,-0.73146653175354,9.323353767395021,-0.004978145472705364,-0.016770513728260997,-0.008180291391909124
4.931140422821046,-0.703288495540619,9.320149421691896,-0.0027908929623663425,-0.018702337518334392,-0.012076115235686302
4.92875623703003,-0.6452714204788208,9.32052993774414,-0.0048033809289336205,-0.018191471695899963,-0.010343856178224088
4.931035518646241,-0.6335808634757997,9.317051887512209,-0.010031599551439285,-0.01688763312995434,-0.007183145731687546
4.901585578918457,-0.6955455541610718,9.310483932495117,-0.005560144782066345,-0.015938049182295803,-0.007732129190117122
4.875558376312257,-0.702289342880249,9.294302940368654,-0.005242890212684871,-0.017796073108911514,-0.010876760818064215
4.922086238861085,-0.6963576078414917,9.317440032958984,-0.0025824331678450108,-0.02049967274069786,-0.014063707552850248
4.930304527282715,-0.6597945690155029,9.286272048950195,-0.0010154454503208399,-0.019315110519528392,-0.013718334957957268
4.932585239410401,-0.6635414361953735,9.337194442749023,-0.001660898793488741,-0.016525888815522197,-0.013760861940681936
4.93452024459839,-0.6842741370201112,9.308325767517092,-0.0003167724353261292,-0.015061906538903715,-0.012932615354657173
4.951356887817383,-0.6192530989646913,9.308500289916992,-0.001135141937993467,-0.015474238432943823,-0.012230264022946358
4.904797077178956,-0.6693692207336426,9.295397758483888,-0.0018798250239342451,-0.012173506431281568,-0.010767437517642975
4.899213790893555,-0.7058029770851136,9.320940971374513,-0.0016023501520976426,-0.01173505187034607,-0.0088141318410635
4.902411937713624,-0.698593556880951,9.308939933776857,-0.0010968168498948219,-0.014177743345499039,-0.010180619545280935
4.8795742988586435,-0.6920070052146913,9.341653823852539,0.0007446178351528944,-0.015309602953493597,-0.011028071865439415
4.882938861846925,-0.7273143529891968,9.31467056274414,0.0016923483926802874,-0.01744448579847813,-0.015234630554914474
4.949763774871827,-0.6626459360122681,9.30030632019043,0.0025318488478660583,-0.019041804596781734,-0.016110247001051906
4.91718864440918,-0.58540016412735,9.310147285461428,0.00234813173301518,-0.015569081529974937,-0.01372328493744135
4.920295238494874,-0.6756984591484071,9.285606384277344,-0.001217929646372795,-0.016014061868190765,-0.009976225905120375
4.933428287506104,-0.6599797010421753,9.281125068664553,0.001086717355065048,-0.015386465936899185,-0.01207039784640074
4.892163753509522,-0.694066047668457,9.29378890991211,0.0008107282919809222,-0.01796781457960606,-0.012344752438366415
4.92958688735962,-0.6876479983329774,9.272500038146974,0.0016589566366747024,-0.017339155077934265,-0.01412669848650694
4.942383766174316,-0.6436550617218018,9.300124168395998,0.004081883933395148,-0.01677864231169224,-0.01340465433895588
4.92603349685669,-0.6574167609214784,9.304392814636232,0.0017989721382036807,-0.01586172729730606,-0.012544999830424787
4.947012901306152,-0.6198815107345581,9.326969146728516,0.0023672222159802914,-0.014110866002738478,-0.012823336757719518
5.04264783859253,-0.45070022344589233,9.310625076293945,-0.006368246860802174,-0.012588425539433958,-0.004146191291511059
4.959506511688233,-0.47352004051208496,9.287785530090334,-0.024495070800185207,-0.00570702599361539,0.011337360367178917
4.87779188156128,-0.7168201208114624,9.312479972839357,-0.024488927796483043,-0.001620215130969882,0.008473287336528303
4.975991249084473,-0.47151297330856323,9.307322502136232,-0.027675157412886623,-0.002637299243360758,0.012554220855236053
4.939405918121339,-0.6671903729438783,9.291325569152834,-0.040813680738210685,-0.0003089208039455116,0.020624885335564617
4.92239809036255,-0.7268437147140503,9.164350509643555,-0.031934689730405814,0.00665229419246316,0.016512859612703323
4.974745273590089,-0.31828057765960693,9.219284057617188,-0.04346816614270211,0.01345091313123703,0.022917145863175396
5.005510807037354,-0.47312948107719427,9.306705474853516,-0.06219880655407906,0.02185533568263054,0.03730805963277817
4.91374158859253,-0.6333768963813783,9.360631942749023,-0.06950104236602783,0.029796699061989788,0.038690268993377686
4.948014736175538,-0.6970080137252808,9.368936538696289,-0.0778113827109337,0.027990421280264858,0.03470836579799652
4.925733089447022,-0.7421714067459106,9.363160133361818,-0.08055366575717926,0.03540987893939019,0.025215934962034225
4.973130226135254,-0.5585939288139344,9.419618606567383,-0.0974053144454956,0.03612114861607552,0.02706669829785824
5.148362159729004,-0.5853707790374756,9.447508811950685,-0.11519303172826768,0.03330165147781372,0.04346675798296929
5.1398634910583505,-0.6884827613830566,9.41175937652588,-0.12672547996044162,0.03754648938775063,0.07238782942295074
5.045748710632324,-0.8128221035003662,9.336872100830078,-0.12248735129833221,0.05211989209055901,0.08892382681369781
4.720831871032715,-0.9103018045425415,9.299747467041016,-0.11155949532985687,0.05170927569270135,0.08997540920972825
4.734588146209718,-0.9930036664009095,9.299187660217287,-0.10294979065656663,0.04057373106479645,0.08363022655248643
4.56788444519043,-1.0026100873947146,9.26283073425293,-0.08771962672472002,0.031938124448060996,0.07174667716026306
4.502013683319093,-1.0595964193344118,9.370317459106445,-0.08458691835403442,0.0014793915906921031,0.05360209941864014
4.781139850616456,-1.0507071018218994,9.360852241516115,-0.07081375271081926,-0.015496421605348587,0.03964106738567352
4.806824207305909,-0.8532538414001465,9.389266967773438,-0.07052893191576005,-0.02256041020154953,0.035954434424638755
4.776921272277832,-0.9391502141952515,9.388551712036133,-0.06683813035488129,-0.03560366481542587,0.03279049322009087
4.768134117126465,-1.1676888465881348,9.364752769470217,-0.052425965666770935,-0.042464200407266624,0.02297060936689377
4.795199394226074,-1.0335272550582888,9.386627197265625,-0.04098629951477051,-0.04947074875235558,0.01203721482306719
4.79112195968628,-0.9978271126747132,9.39547348022461,-0.032346852123737335,-0.05791789665818215,0.000688380328938365
4.842759132385254,-1.0483549833297732,9.365546226501467,-0.028911899775266647,-0.0648919939994812,-0.004446291830390693
4.853107929229737,-1.0104849338531494,9.353278160095217,-0.01806054636836052,-0.06731786578893663,-0.013475252315402031
4.67535161972046,-1.0612879991531374,9.316664695739748,-0.006588902790099383,-0.07088422775268555,-0.026725515723228455
4.689486026763917,-1.0850374698638916,9.366241455078125,0.002409146865829826,-0.0905565619468689,-0.043654549866914756
4.811448097229004,-0.9856182336807251,9.351106643676758,0.010600148700177671,-0.10429129749536516,-0.05458482354879379
4.701864242553711,-0.8210024833679199,9.311271667480469,0.006634688936173916,-0.11701302975416185,-0.06078975647687912
4.627703666687012,-0.7767267227172852,9.488362312316896,-0.015576425008475782,-0.1578015685081482,-0.059075355529785156
4.742928981781007,-0.7602415084838867,9.52535915374756,-0.0344165824353695,-0.19791147112846375,-0.05503753200173379
4.622790813446046,-0.9049822092056274,9.5473108291626,-0.036894507706165314,-0.24039512872695923,-0.05821478739380837
4.612309932708741,-0.7378945350646973,9.600231170654297,-0.03776847198605538,-0.29283154010772705,-0.06419511884450914
4.42593812942505,-0.6485830545425415,9.665075302124023,-0.06459151208400726,-0.356151431798935,-0.0725749656558037
4.809023380279542,-0.6086904406547547,9.58194351196289,-0.09609174728393555,-0.4156555831432343,-0.07839329540729523
4.851655960083008,-0.80914306640625,9.605953216552734,-0.12177734076976776,-0.4781588315963745,-0.07840061932802202
4.713648796081543,-0.7916600704193115,9.679512023925781,-0.12926338613033297,-0.5575661659240723,-0.0899137929081917
4.408132076263429,-0.6989059448242188,9.85184955596924,-0.10788180679082872,-0.7024258375167847,-0.08751678466796875
4.1698102951049805,-0.33883109688758856,10.110817909240724,-0.10324940085411072,-0.8903796076774598,-0.044812850654125214
3.955660343170166,-0.01961679756641388,10.568464279174805,-0.16975581645965576,-1.1530778408050537,-0.007491548079997302
3.7237083911895756,-1.0333176851272585,10.400475502014162,-0.20775693655014038,-1.400668501853943,-0.04600028693675995
3.805047035217285,-1.1984663009643555,10.507021903991701,-0.18367572128772738,-1.716930627822876,-0.08268134295940399
4.0954742431640625,-1.8868145942687988,10.668846130371094,-0.14397823810577393,-2.0059702396392827,-0.16993814706802368
4.303197383880616,-2.1983914375305176,10.420270919799805,-0.019027747213840485,-2.3074965476989746,-0.23738552629947665
4.852568149566651,-2.432684898376465,10.344042778015138,0.12407127767801286,-2.5881052017211914,-0.34711828827857977
5.977144241333008,-2.257450342178345,10.941813468933107,0.2813242375850678,-2.8958449363708496,-0.4065134525299072
6.4497480392456055,-1.6576000452041628,11.610161781311037,0.23627640306949618,-3.069739818572998,-0.42928186058998113
4.915671348571777,-1.7283174991607666,9.939236640930178,0.2589199841022492,-3.3570110797882085,-0.5488334894180298
7.180554866790772,-2.0748119354248047,10.705594062805178,0.3539507985115051,-3.6395542621612553,-0.6762690544128418
6.757963180541992,-2.130960464477539,10.156848907470703,0.4019145369529724,-3.760133028030396,-0.8009008765220643
7.838326454162598,-2.905881881713867,10.502926826477053,0.4910621345043183,-3.8958191871643066,-1.034002184867859
8.865025520324709,-3.547523736953736,10.169642448425295,0.6182386875152588,-3.9398765563964844,-1.2234188318252566
11.492136955261232,-2.738166332244873,11.3288049697876,0.5878842473030091,-3.779806137084961,-1.2820104360580447
11.756200790405273,-1.9905753135681152,9.91305160522461,0.4351487159729004,-3.4620192050933842,-1.2863630056381228
10.312932014465334,-2.1733868122100835,10.033823013305664,0.33366847038269043,-3.0927102565765385,-1.3410427570343018
8.726572990417482,-1.942863941192627,12.821525573730469,0.46438902616500854,-2.454878807067871,-1.3630367517471316
9.040333747863771,-1.4897849559783936,16.552072525024418,0.3091810941696167,-1.3899835348129275,-1.2160801887512207
2.132042407989502,-2.4014565944671635,14.720656394958498,0.0647270902991295,-0.5962722301483154,-1.1522157192230225
3.1455202102661133,-2.8663918972015385,13.531065940856935,-0.03940589725971222,-0.12713421881198886,-1.0906226634979248
1.471943259239197,-4.07154655456543,14.066667556762695,-0.11322705447673798,0.48982077836990356,-0.9706287980079652
-1.6257406473159792,-4.233868598937988,11.431241989135742,0.006929090712219478,0.8710633516311646,-0.8608059287071229
-2.403942584991455,-3.3100235462188725,10.735710144042969,0.07848504930734636,1.1060380935668945,-0.7311958074569702
-2.9637763500213627,-2.760115623474121,10.2140588760376,-0.06331221759319305,1.2668830156326296,-0.5447103977203369
-3.034502267837525,-2.803743839263916,10.256915092468263,-0.2836403250694275,1.42415189743042,-0.3348535597324372
-2.723041534423828,-3.1741700172424316,10.74903202056885,-0.47434881329536444,1.5870280265808105,-0.11274210363626481
-2.1921956539154057,-3.675440073013306,11.278486251831055,-0.5862728953361512,1.7795095443725586,0.11826522648334503
-1.3748235702514648,-4.113712310791016,11.817741394042969,-0.5969422459602357,2.00048828125,0.34135875105857855
-0.6368582248687744,-3.8577589988708496,12.17343521118164,-0.5484008193016053,2.2597262859344487,0.5481902360916138
-0.1901557445526123,-3.272934198379517,12.314908981323242,-0.5484084486961366,2.5099587440490723,0.7548486590385438
0.3489891290664673,-2.805805921554566,12.371798515319826,-0.6084119081497192,2.730155229568482,0.959680736064911
0.9519867300987245,-2.462998867034912,12.37527084350586,-0.6895782947540283,2.9178965091705327,1.1600487232208252
1.647078275680542,-2.144342184066773,12.414685249328615,-0.7566269636154175,3.0687122344970703,1.3325513601303103
2.467904567718506,-1.9049761295318604,12.489995002746584,-0.789852797985077,3.1770663261413574,1.4670635461807253
3.2290563583374023,-1.446824312210083,12.66156005859375,-0.7915607690811157,3.268595933914185,1.5479747056961062
4.047673225402832,-1.018911957740784,12.752610206604006,-0.8027420043945312,3.313778638839722,1.5963354110717773
4.607318401336671,-0.7583715915679932,12.68760871887207,-0.8110799789428711,3.311516761779785,1.5970753431320193
4.978739261627198,-0.7130159735679628,12.552426338195803,-0.7955007553100586,3.2303583621978764,1.562572956085205
5.505473613739015,-0.7708386778831483,12.36434555053711,-0.7523245811462402,3.092720746994019,1.5080889463424685
6.261067867279054,-0.9226266741752626,12.458971977233888,-0.6437182426452637,2.894385099411011,1.3986237049102783
7.406542301177979,-1.01149582862854,12.830435752868654,-0.49941813945770264,2.7061352729797363,1.2345172166824343
8.572962760925295,-0.881011188030243,13.11014175415039,-0.35566025972366333,2.557808160781861,1.0675275325775146
9.68495845794678,-0.5208654999732972,13.304774284362795,-0.2607775330543518,2.479892492294312,0.8938094973564149
10.49203395843506,-0.06918846070766449,13.237153053283693,-0.25848391652107244,2.473433017730713,0.7719677090644838
11.139471054077148,0.12251991033554077,12.998520851135256,-0.34393519163131714,2.5024919509887695,0.7148911356925965
12.056815147399904,-0.19432613253593445,12.677414894104006,-0.44541478157043457,2.5432722568511967,0.7268233299255371
12.59914302825928,-0.856295108795166,11.865803718566896,-0.4685166776180268,2.5900659561157227,0.7857553958892822
13.04072666168213,-1.4162114858627322,10.855382919311523,-0.42814442515373236,2.604435443878174,0.877265751361847
13.341094970703125,-1.950291633605957,9.370073318481445,-0.3306244313716889,2.559916257858277,1.0039973258972168
14.04884433746338,-2.382293701171875,7.809097766876222,-0.17038580775260925,2.4783065319061284,1.1292519569396973
14.471166610717773,-2.354794263839722,6.270606517791749,0.0267538707703352,2.3993029594421387,1.2177910804748535
14.521718025207521,-1.4782538414001465,4.712069988250733,0.15136091411113742,2.2917680740356445,1.2726687192916872
14.492313385009766,-0.03986850380897522,2.9609360694885254,0.11467356234788896,2.1498034000396733,1.3222250938415527
13.826600074768068,1.639900326728821,0.9348818063735962,-0.09922033548355103,1.9511691331863406,1.3436839580535889
13.340476989746094,3.7454380989074707,-0.41401603817939764,-0.44947749376296997,1.6129187345504763,1.327792048454285
15.156579017639162,4.696650028228761,-1.3101747035980225,-0.831597089767456,1.2319046258926394,1.3340201377868652
17.494972229003906,2.747846364974976,-2.1617660522460938,-0.8561338782310487,0.9199053645133973,1.23016357421875
18.421905517578125,1.800431728363037,-3.504755258560181,-0.36795490980148315,0.6367654204368592,0.9511886835098267
17.520095825195312,3.277992486953736,-4.924090385437012,0.18598005175590515,0.24854399263858798,0.5722534060478212
16.767770767211918,5.101749420166016,-5.212834835052491,0.3367090523242951,-0.26513516902923584,0.2014262527227402
3.950027227401734,4.4289350509643555,1.132018804550171,0.3374007642269135,-0.9678258299827577,-0.11147558689117432
-4.748686790466309,-2.450011730194092,6.172257423400879,1.0659259557724001,-2.0094246864318848,-0.42847964167594915
-2.029237031936646,0.02727070450782776,16.036207199096683,0.9440969228744507,-2.7426688671112065,-1.271644473075867
-0.9150456190109253,-6.515064239501953,15.959530830383303,0.3558417558670044,-2.702163934707642,-1.2606637477874756
5.960524559020996,-9.172016143798828,8.776201248168945,0.2151365578174591,-2.909740447998047,-0.9797765612602235
8.204087257385256,-5.350829124450684,6.955528259277344,0.34798574447631836,-2.9247534275054936,-0.5204797983169556
12.445842742919922,-0.22119620442390442,14.878656387329102,0.3022789061069489,-2.785304546356201,-0.08725360035896301
15.892004966735842,4.324735641479492,16.791362762451172,0.13598428666591647,-2.1398749351501465,-0.24243135750293734
10.991384506225586,4.102689266204835,12.685949325561523,-0.03490588068962097,-1.7307970523834229,-0.3920541107654572
8.695094108581545,-1.0419925451278689,11.234049797058107,-0.1793407648801804,-1.5302104949951172,-0.3050397336483002
8.413701057434084,-3.780050277709961,11.812077522277834,-0.13758403062820435,-1.294213652610779,-0.19305272400379184
5.980623245239258,-3.942746639251709,10.000523567199709,0.00745818903669715,-1.1056156158447266,-0.21979086101055148
5.3071699142456055,-2.5630383491516113,9.535825729370117,0.2106846570968628,-1.068089485168457,-0.3293824493885041
6.968283653259277,-1.7333340644836426,10.218750953674318,0.337690681219101,-0.9009014368057251,-0.48593941330909735
7.310251712799073,-2.268332004547119,10.497041702270508,0.4067328274250031,-0.6397843360900879,-0.5314065217971802
6.29693365097046,-2.6667890548706055,10.096315383911133,0.5155161619186401,-0.44067969918251043,-0.554585337638855
5.991026401519776,-1.593583345413208,10.48466682434082,0.5972445011138916,-0.31071579456329346,-0.5717619061470033
5.898649215698242,-1.015841007232666,10.338300704956055,0.6348457336425781,-0.20371244847774508,-0.5849270820617676
5.042649269104004,-1.0386288166046143,9.929937362670898,0.6416449546813965,-0.14592258632183078,-0.5544987320899964
4.165750026702882,-1.209132432937622,9.527318954467773,0.6286396980285645,-0.19671194255352023,-0.4737800359725952
5.63967227935791,-0.6984522342681885,10.68856716156006,0.476108193397522,-0.2489704191684723,-0.2487192898988724
5.33295774459839,1.7146321535110476,10.62283229827881,0.3179688155651093,-0.1797947883605957,-0.15086846053600314
4.792078495025636,1.14961838722229,10.10949230194092,0.11399971693754198,-0.16482043266296387,-0.08472318947315216
5.0515899658203125,-0.35734909772872925,10.007370948791506,-0.01086469553411007,-0.15093792974948886,-0.014214962720870972
4.603187084197999,-0.5390633940696717,9.718750953674318,-0.06348418444395067,-0.15744103491306308,0.03438417613506317
4.554368019104004,-0.7621338367462158,9.405828475952148,-0.0873727947473526,-0.16579802334308627,0.051797911524772644
4.368917465209961,-1.230180859565735,9.341746330261232,-0.12075632810592651,-0.17933772504329684,0.05880559608340264
4.410921573638917,-1.5461950302124023,9.237541198730469,-0.12396256625652313,-0.16942648589611056,0.06007639318704605
4.357071876525879,-1.4232553243637087,9.01937484741211,-0.10036651045084001,-0.18727691471576693,0.028497476130723953
4.046110630035401,-1.4841781854629519,9.14408588409424,-0.08142695575952531,-0.24814754724502563,-0.014444314874708654
4.645119667053223,-0.9713745713233949,9.513311386108398,-0.08998794108629228,-0.27458763122558594,-0.03252553939819336
4.905655860900879,-0.77294260263443,9.365756034851076,-0.12490910291671753,-0.2649993002414704,-0.02614559605717659
4.333724021911621,-1.037772059440613,9.216710090637209,-0.1241796612739563,-0.2639849781990051,-0.029957352206110958
3.9371616840362553,-1.4095929861068728,9.201395988464357,-0.09405404329299927,-0.3127070367336274,-0.08071237802505493
4.5195817947387695,-1.6191041469573975,9.227415084838867,-0.0561310350894928,-0.33802971243858343,-0.1426643878221512
4.618163585662843,-2.031187772750855,8.998710632324219,-0.007704096846282482,-0.3285256922245026,-0.17730960249900818
4.939028739929199,-1.4763413667678835,9.343576431274414,0.044755797833204276,-0.3119939267635346,-0.20322835445404053
5.404227733612061,-0.929301381111145,9.521257400512695,0.04809831827878952,-0.2539782822132111,-0.20604145526885986
4.951968193054199,-1.091811180114746,9.26930904388428,0.08180720359086992,-0.20344600081443787,-0.19743001461029053
4.661932945251465,-1.3751261234283447,9.165657043457031,0.14481256902217868,-0.17505866289138794,-0.2543944418430329
4.624860286712647,-1.6105350255966189,9.267231941223146,0.2191390246152878,-0.17425821721553805,-0.3294050097465515
4.170313835144043,-2.07973575592041,9.164497375488281,0.29703038930892944,-0.16194672882556918,-0.41321444511413574
4.007881164550781,-2.166743755340576,9.318843841552734,0.2988102436065674,-0.1690434664487839,-0.4936381876468659
5.117193222045898,-0.12024126201868059,9.838930130004883,0.211002916097641,-0.24394564330577853,-0.4379367232322693
4.803561210632324,-0.6117680072784424,9.846372604370117,0.11838518828153612,-0.29755899310112005,-0.4048185348510742
4.867007732391358,-0.6645979881286621,9.795913696289062,0.07528222352266313,-0.38696378469467163,-0.40100297331810003
5.2907376289367685,-0.7733314037322998,9.459897994995117,0.03533940017223358,-0.4531559050083161,-0.3912492692470551
5.065598011016847,-0.4937868118286133,9.449789047241211,-0.028531147167086605,-0.534155011177063,-0.37157014012336737
4.919857025146484,-0.671623945236206,9.40414810180664,-0.058715999126434326,-0.6189786195755005,-0.366784542798996
5.184494495391847,-0.483731746673584,9.612738609313967,-0.05342135950922967,-0.7049847841262817,-0.33894959092140203
4.612229347229004,-0.2969492971897126,9.943465232849123,-0.06369855254888536,-0.8317897319793701,-0.3051973581314087
3.5419368743896484,-0.5722091794013978,10.40871810913086,-0.034405969083309174,-1.1265021562576296,-0.275104820728302
3.758253574371338,-0.39154815673828125,10.689965248107912,-0.03813070058822632,-1.5238077640533447,-0.2293774336576462
3.884770393371582,0.04467427730560303,10.722415924072266,-0.11100282520055772,-1.9203763008117676,-0.15696884691715243
3.8210325241088867,0.3549966812133789,10.831863403320312,-0.20851653814315796,-2.3338267803192143,-0.10564488917589189
4.161462783813477,0.31888628005981445,10.649338722229006,-0.25453805923461914,-2.7789757251739506,-0.045550666749477386
3.849700450897217,0.24260199069976807,10.757935523986818,-0.3216428458690644,-3.2453215122222905,-0.010475300252437592
4.251678943634034,-0.019109129905700684,10.580507278442383,-0.4046038687229157,-3.801090717315674,0.014164769090712072
3.943139791488648,-0.9337959289550781,10.712903022766115,-0.4636190235614777,-4.376004219055176,-0.0371619388461113
2.524083137512207,-2.43966007232666,10.529062271118164,-0.4282664358615876,-5.147443771362305,-0.2205760031938553
1.885493516921997,-3.226011276245117,9.743734359741211,-0.11958083510398865,-6.171369552612305,-0.5504361987113954
2.350712776184082,-4.2996535301208505,9.908070564270021,0.2921372056007385,-7.519465923309327,-0.8425450325012207
4.677261829376222,-3.472012281417847,10.284499168395998,0.6237061023712158,-8.971432685852053,-1.0959016084671023
4.826344966888429,-1.189352869987488,11.151434898376467,0.6507506370544434,-10.450716972351076,-1.3383591175079346
9.538056373596193,-1.7806675434112549,12.365291595458984,0.2957865595817566,-11.686824798583984,-1.449771285057068
17.35940742492676,-1.682119607925415,14.169374465942383,-0.19906081259250644,-12.379756927490234,-1.4251490831375124
30.25246810913086,-1.4158735275268555,16.664083480834964,-0.6328619122505189,-12.088539123535156,-1.2734766006469727
36.91398239135743,0.2037261724472046,13.996875762939453,-0.948943018913269,-10.741993904113771,-0.984337568283081
35.76837921142578,-5.086620330810547,15.122795104980469,-1.7681999206542969,-9.562311172485352,-0.5421444773674012
21.471885681152344,-7.974225521087647,13.706567764282227,-1.6828581094741824,-8.679004669189453,-1.1742590665817263
20.754180908203125,-8.195347785949709,16.929027557373047,-1.4683444499969482,-8.299443244934084,-1.6340910196304324
17.998668670654297,-4.223220348358155,22.194740295410156,-1.4599395990371706,-7.39410400390625,-1.6537595987319949
15.398927688598633,-6.859351634979249,18.432409286499027,-1.1334780454635622,-5.8870587348938,-1.654996395111084
16.88280296325684,-6.072813034057617,18.13903617858887,-0.6091793775558472,-4.601272106170655,-1.6687893867492676
36.189220428466804,-12.121499061584474,33.01108169555665,0.3531536757946015,-1.2663655281066895,-2.1065216064453125
14.441627502441406,-5.510965347290039,25.845684051513672,0.5171165466308594,2.159301042556763,-1.4822883605957031
10.523628234863281,-6.366216659545898,19.967779159545902,0.7322208285331727,4.224722385406495,-1.1420261859893799
6.2670254707336435,-3.128164291381836,13.270177841186523,0.644882321357727,5.472282886505128,-0.8323453664779663
0.49287971854209905,-1.4568847417831423,8.184812545776367,0.27132263779640203,5.860834121704102,-0.6190842390060425
-2.6815619468688965,-1.0013462305068972,5.05699348449707,-0.25153613090515137,5.840130329132081,-0.40801292657852173
-2.463552951812744,-0.9388449192047119,3.4761373996734624,-0.7724015712738037,5.626843452453613,-0.13706488907337191
-1.930415749549866,-1.0901788473129275,3.2342162132263184,-1.117455005645752,5.414736270904542,0.1714998483657837
-1.2406865358352663,-1.5299576520919802,4.1302857398986825,-1.2930005788803103,5.270223617553711,0.5338941812515259
-0.10339973121881486,-2.0954282283782963,5.4342999458313,-1.2214118242263796,5.229948997497559,0.8853288292884828
1.571296572685242,-2.019906282424927,6.964594841003418,-0.9496124386787416,5.337422847747804,1.1478021144866943
4.212399482727051,-1.0914502143859863,8.607484817504883,-0.6741604804992676,5.674301624298097,1.3938276767730713
5.578533649444581,-0.4223223924636841,9.211487770080568,-0.4911075234413147,6.19329595565796,1.5943578481674197
5.57900333404541,0.7679086923599243,8.790103912353516,-0.39962702989578247,6.656181812286378,1.7460873126983643
5.365694046020508,1.8350639343261719,7.9319472312927255,-0.4394389688968659,6.953665256500245,1.8646488189697266
5.301108360290527,2.2200291156768803,7.229227066040039,-0.556766450405121,7.048318862915039,1.9626313447952273
5.709193229675293,1.699817776679993,7.231646537780762,-0.6243765354156494,6.993651866912843,1.996493697166443
6.815348148345948,1.0840246677398682,8.12471103668213,-0.5602067708969116,6.879679203033448,1.9689509868621826
8.926231384277344,0.877760648727417,9.785287857055664,-0.39439475536346436,6.815642356872559,1.8918401002883913
11.059903144836428,0.9880682229995728,11.489509582519531,-0.22307540476322177,6.845334053039551,1.7954539060592654
12.613610267639162,1.133522152900696,12.66842269897461,-0.11242181062698364,6.947464466094972,1.7018100023269656
13.363396644592287,0.9520003199577333,13.136699676513672,-0.030288513749837875,7.032804012298585,1.6278107166290283
13.987621307373047,0.3043591380119324,13.23709487915039,0.05996968969702721,7.003799915313722,1.5846242904663086
14.938539505004883,-0.15768377482891086,13.366775512695312,0.18271844089031222,6.845076560974121,1.5931950807571413
17.12985420227051,-0.46193915605545044,14.017341613769531,0.28383800387382513,6.610847473144531,1.6606545448303223
20.10421371459961,-1.1473240852355957,15.113542556762695,0.38803988695144653,6.399778842926026,1.7396519184112549
23.103929519653324,-2.1393771171569824,16.20901107788086,0.5729828476905824,6.237222194671632,1.7433736324310303
26.708028793334964,-2.293593406677246,16.71684837341309,0.8060296177864076,6.132715225219727,1.668931841850281
29.905004501342777,-1.4310646057128906,15.810706138610842,0.884076714515686,6.114736080169679,1.5319894552230837
30.98608207702637,-0.8172641396522523,13.202280998229982,0.658027172088623,6.101358890533448,1.3453435897827148
29.72371101379395,-1.2979129552841189,9.11093044281006,0.19908814132213595,5.915460109710694,1.0443413257598877
28.848093032836918,2.313024282455445,3.2041490077972417,-0.4632920920848847,5.45693302154541,0.6585958600044252
28.34008026123047,8.582441329956055,-4.44435739517212,-1.993535041809082,4.811194896697999,0.5690792202949525
29.62130165100098,10.414847373962404,-13.375558853149414,-4.01983642578125,4.135253429412843,0.8601534366607666
36.34050750732422,2.2799572944641113,-23.183822631835938,-4.863121509552003,3.297162294387818,1.420135259628296
34.41653060913087,-6.131651401519776,-27.01082038879395,-3.20968508720398,1.8407464027404785,1.6186426877975466
22.4749927520752,-5.4220476150512695,-23.180101394653324,-0.6827777624130249,-0.27878370881080633,1.0222822427749636
17.01534652709961,0.98849755525589,-14.353129386901857,1.14076828956604,-2.2264754772186284,-0.1012948751449585
13.613632202148438,5.800272464752198,-4.9832658767700195,1.6609210968017578,-4.220113754272461,-1.3935898542404177
-0.7597185373306274,0.06112021207809448,6.160815715789796,1.4858615398406982,-4.346335887908936,-2.0715904235839844
13.90743923187256,3.735527515411377,17.670166015625,1.0692572593688965,-4.8649353981018075,-2.752421140670777
7.658823490142823,-5.515475749969483,18.77646255493164,-0.07763685286045074,-4.369501590728761,-2.0228958129882812
15.345718383789062,-12.10738754272461,10.64027500152588,0.15836565196514132,-4.798339366912843,-1.4528486728668213
22.069915771484375,-2.895136117935181,16.003170013427734,0.28704640269279486,-4.674073219299316,-0.541517198085785
28.661540985107422,1.4194910526275635,19.911792755126953,0.10255166888237,-3.6421363353729252,-0.1412797421216965
19.86417961120606,5.447593212127686,16.437929153442386,0.1198849081993103,-2.6749217510223393,-0.6059449911117554
11.989502906799318,0.48458376526832586,12.536882400512695,0.011762069538235664,-2.1311378479003906,-0.6690335869789125
10.886051177978516,-3.5308744907379155,11.708660125732422,0.10732811689376831,-1.7569574117660525,-0.5889959335327148
9.556544303894045,-2.406921863555908,10.51974391937256,0.28307965397834783,-1.4074187278747559,-0.44664639234542847
9.271027565002443,-0.14793851971626282,11.190945625305178,0.3674174845218659,-0.9970808029174805,-0.5048952698707582
8.398858070373537,-0.24144425988197327,10.884784698486328,0.36425277590751654,-0.6122285723686219,-0.43523645401000977
7.147099971771241,-2.0759418010711674,10.62285900115967,0.29554271697998047,-0.37771072983741766,-0.26163774728775024
4.945795059204102,-0.20909199118614197,10.124562263488771,0.10566752403974534,-0.2641099691390991,-0.10515573620796204
3.2474014759063725,-0.8162926435470581,10.08462429046631,-0.05592605471611023,-0.3290608227252961,-0.15574073791503906
5.835991859436035,-1.6454541683197021,10.149222373962404,-0.13810554146766663,-0.33624517917633057,-0.14579130709171298
4.780524253845215,-1.7911972999572754,9.718921661376953,-0.13371682167053223,-0.31729611754417425,-0.09003457427024841
4.899927616119386,-1.8134213685989382,9.427377700805664,-0.08538389950990678,-0.34783971309661865,-0.12175582349300385
5.226209163665772,-1.573267936706543,10.283319473266602,-0.08008544892072679,-0.3819599747657776,-0.10225722938776018
6.555275917053223,-0.10725609958171844,10.623070716857912,-0.23194180428981784,-0.2617474496364594,0.008197169750928879
5.529740810394288,-1.1142685413360596,9.648089408874513,-0.3364727199077607,-0.18076160550117493,0.06547806411981584
5.333416938781738,-1.3656845092773438,9.29461669921875,-0.3449078500270844,-0.16719862818717957,0.08950342237949371
5.051906585693359,-1.3598217964172363,9.182348251342773,-0.3249789774417878,-0.1416245698928833,0.14380659162998202
4.7328996658325195,-1.9844359159469607,8.856819152832031,-0.28749388456344604,-0.11987921595573425,0.14014603197574618
5.011383533477784,-2.6512670516967773,8.664373397827148,-0.20681363344192505,-0.1320692449808121,0.08481097221374512
4.884184837341309,-2.2683072090148926,8.644302368164062,-0.1198045238852501,-0.1269642412662506,0.053032293915748596
5.269827842712402,-2.165144920349121,8.755300521850586,-0.059077903628349304,-0.09679275006055833,-0.0031606489792466164
5.389211177825929,-2.1071236133575444,8.52680778503418,0.006107814144343139,-0.0362456925213337,-0.024053800851106644
4.266942024230957,-2.4572415351867676,8.541168212890625,0.050214432179927826,0.004672879818826915,-0.05847320705652237
4.417649269104004,-2.8482005596160893,8.879054069519045,0.08967868238687517,-0.012047817930579185,-0.11620153486728668
4.276115417480469,-2.315213203430176,8.609415054321289,0.15523676574230197,-0.010473307222127914,-0.1863566488027573
4.489827632904054,-1.814491391181946,9.120947837829592,0.1450711190700531,-0.0421171635389328,-0.20873744785785678
4.58870553970337,-1.3586323261260986,9.282184600830078,0.12852425873279574,-0.05515196919441223,-0.21724148094654086
4.771625518798828,-1.2003607749938965,9.23803234100342,0.10310138761997223,-0.06549987941980363,-0.21415127813816073
4.882678508758546,-1.1063923835754395,9.586341857910156,0.06754235923290253,-0.07044384628534318,-0.2215767502784729
5.038641929626465,-0.9492850303649902,9.567210197448732,0.011288474313914778,-0.08001611381769182,-0.20102086663246155
4.951706409454347,-1.2517501115798952,9.284716606140138,-0.017041821032762527,-0.09626875072717668,-0.19745495915412903
4.8647966384887695,-1.3632092475891113,9.100281715393068,-0.0405288077890873,-0.11632642149925232,-0.19329127669334412
4.513266563415527,-1.4079726934432986,8.928853034973146,-0.053269870579242706,-0.13181464374065402,-0.205767422914505
4.344298362731934,-2.0094985961914062,8.783732414245607,-0.05339453741908074,-0.19667904078960421,-0.22790536284446716
4.36556339263916,-2.154676914215088,8.810069084167482,-0.03423567861318588,-0.23527924716472629,-0.2919582724571228
4.496755599975586,-2.0381712913513184,8.868715286254883,-0.010751477442681791,-0.2969215512275696,-0.32367002964019775
4.750005245208741,-1.8717970848083496,8.932186126708984,0.0010833153501152992,-0.30475601553916937,-0.38512927293777466
4.331779003143311,-1.904144287109375,9.05972194671631,0.017751691862940792,-0.34837660193443304,-0.42127150297164917
5.0639357566833505,-1.4694787263870241,9.363208770751953,0.002646638778969646,-0.3963966369628906,-0.44381353259086614
5.5646209716796875,-1.245626449584961,9.042662620544435,-0.028690744191408157,-0.43690785765647894,-0.36987885832786566
5.028067111968995,-0.6734133958816528,9.730712890625,-0.05002012476325036,-0.4763079285621643,-0.29788210988044744
5.382898330688477,-1.099780559539795,9.33254909515381,-0.06321250647306444,-0.5323626399040223,-0.26244962215423584
4.665715217590332,-1.481351613998413,9.320552825927734,-0.0700695663690567,-0.6269937157630922,-0.2915739417076111
4.860575199127198,-1.5124620199203493,9.75985622406006,-0.1062629222869873,-0.7765253186225892,-0.32838484644889837
4.808993816375733,-1.6338627338409424,9.764669418334961,-0.158651202917099,-0.9415709376335145,-0.32024669647216797
4.184838771820069,-1.4891760349273682,9.885295867919922,-0.1782164424657822,-1.1649149656295779,-0.3092641830444336
4.150862693786621,-1.3966128826141357,9.995554924011232,-0.1883825957775116,-1.478778958320618,-0.3091592788696289
4.560352325439453,-1.08346164226532,10.22204113006592,-0.19553385674953463,-1.8081028461456299,-0.33731609582901
4.61866331100464,-0.6486590504646302,10.197484016418459,-0.238567054271698,-2.161176443099976,-0.2882314920425415
4.6274380683898935,-0.6545510888099672,10.265873908996584,-0.29208955168724066,-2.579126596450806,-0.19827139377593994
4.662410259246827,-0.5212143063545228,10.241132736206055,-0.3206994235515595,-3.0377492904663086,-0.11724936217069627
4.734633445739746,-1.5553643703460693,10.380704879760742,-0.35604339838027954,-3.536913633346558,-0.11749494820833208
4.787091732025147,-2.3479065895080566,10.186331748962404,-0.3734507858753205,-4.099717140197754,-0.22143743932247165
3.0361654758453374,-2.8880839347839355,9.985820770263672,-0.24893027544021606,-4.886996269226074,-0.4556433856487275
1.979359030723572,-3.19730281829834,10.120615005493164,-0.028821755200624466,-5.92004156112671,-0.7436727285385132
3.209265470504761,-2.706021308898926,9.959587097167969,0.1084171310067177,-7.071821212768555,-0.9294636249542236
4.859790802001953,-2.400722026824951,10.045101165771484,0.16538384556770325,-8.302672386169435,-1.1255912780761719
5.027522087097168,-2.5204644203186035,10.244490623474123,0.129756897687912,-9.569389343261719,-1.3678210973739626
8.068109512329102,-3.0149283409118652,11.347674369812013,0.02264124341309071,-10.702444076538086,-1.6241031885147097
16.75268363952637,-3.3826560974121094,13.765666961669922,-0.1756332516670227,-11.278252601623537,-1.7361060380935671
24.40817451477051,-4.319474220275879,14.205513000488281,-0.22041264176368713,-11.176218986511232,-1.9364781379699707
36.323081970214844,-3.539132356643677,14.19083023071289,-0.3660793006420136,-10.177760124206545,-1.8817639350891113
33.25261306762696,-1.8215219974517822,14.245913505554201,-0.9510741233825684,-9.04921054840088,-1.4366428852081299
25.161235809326172,-5.507688522338867,14.074801445007326,-1.7873399257659912,-8.303730964660646,-1.181131720542908
21.606613159179688,-8.462282180786133,15.561393737792969,-1.5225099325180056,-7.748015403747559,-1.756350874900818
17.552017211914062,-7.645441532135011,16.99736595153809,-1.0116300582885742,-7.101535797119141,-2.1818778514862065
12.063441276550295,-8.432129859924318,17.063777923583984,-0.7606306076049805,-6.0013394355773935,-2.2685937881469727
7.9280805587768555,-5.286180973052979,14.67335605621338,-0.4903032183647156,-5.228424549102784,-2.087837457656861
40.959632873535156,-9.104231834411623,27.341976165771484,-0.056259192526340485,-3.4500119686126713,-2.1856532096862793
20.715877532958984,-9.483019828796388,28.49209022521973,0.6083192825317383,0.00435459241271019,-1.9265075922012331
12.247012138366701,-6.919029712677003,22.10163116455078,1.1884933710098269,2.532022476196289,-1.5703464746475222
10.349225997924805,-5.780150890350343,17.621862411499027,1.4268497228622439,4.347635269165039,-1.1564795970916748
6.424257278442383,-3.922037839889527,12.203213691711428,1.3540149927139284,5.412910461425781,-0.9426218867301942
1.7143388986587527,-3.118815660476685,8.041840553283693,1.112380623817444,5.855111598968507,-0.793703556060791
-1.4202406406402588,-3.338366270065308,4.693437576293945,0.8270202875137329,5.926030635833741,-0.6595792770385742
-2.901333093643189,-3.606987953186035,2.697266101837158,0.6031852364540101,5.662894248962402,-0.5814257860183716
-2.469914436340332,-2.8908514976501465,2.5090103149414062,0.3722889721393586,5.27862548828125,-0.4055845439434052
-0.6372129917144775,-2.84025239944458,3.5466849803924565,0.10645270347595215,5.108559608459473,-0.1332727521657944
0.9325773119926454,-3.7052519321441655,4.963813781738281,-0.0865694358944893,5.162116050720215,0.19190488755702975
2.3929278850555424,-4.5189175605773935,6.325770378112793,-0.1019137278199196,5.364266395568848,0.5215474367141724
4.088129043579102,-4.984633922576905,7.238901138305664,0.041329812258481986,5.705472946166992,0.8289220929145814
5.065402984619141,-4.944321155548097,7.378715038299561,0.2447778880596161,6.089868545532227,1.1069124937057497
5.341114044189453,-4.284090042114258,6.872951030731202,0.41965222358703613,6.3908429145813,1.3640029430389404
5.420613765716554,-3.3913726806640625,6.098863124847413,0.4658769965171814,6.574533939361573,1.614030957221985
6.28272581100464,-3.0453021526336674,6.082170963287354,0.407445102930069,6.644609451293945,1.871531128883362
7.401481628417969,-3.6176407337188725,6.428611755371094,0.3814314603805542,6.7060956954956055,2.098331689834595
8.563284873962404,-4.335302352905273,6.744159221649171,0.5095610022544862,6.7569169998168945,2.269935846328736
9.642046928405763,-4.774569988250733,6.6569671630859375,0.8178629279136659,6.7183380126953125,2.4208779335021973
10.413811683654787,-2.0432927608489995,7.28115177154541,0.9205137491226196,6.613276004791261,2.544668674468994
11.627779006958008,-1.9600050449371338,8.130556106567383,0.7282180190086366,6.517923831939698,2.6606321334838867
12.3974609375,-2.839340448379517,9.002671241760256,0.6503283977508545,6.394940853118897,2.6767845153808594
13.358505249023438,-4.391017436981202,10.279009819030763,0.7837653160095215,6.251911640167237,2.5865695476531987
14.898159980773928,-5.149773597717285,11.672979354858398,1.060112714767456,6.077179431915284,2.468820095062256
16.70318603515625,-5.007315635681152,13.082888603210451,1.300858736038208,5.921208381652832,2.3656518459320073
18.768096923828125,-4.790381908416749,14.57829475402832,1.3552414178848269,5.832466125488281,2.2958815097808842
21.955467224121094,-5.3982911109924325,15.717052459716797,1.2724111080169678,5.832184314727784,2.2601225376129155
24.66189765930176,-5.7989654541015625,15.895594596862795,1.1946086883544922,5.915935039520265,2.2299623489379883
25.241397857666016,-5.152941703796387,14.532294273376467,1.0691211223602295,5.981814384460449,2.1595652103424077
24.592296600341797,-3.7039511203765874,12.285259246826172,0.7613835930824281,5.895263671875,2.004022836685181
23.9508056640625,-2.3847765922546387,9.89331912994385,0.25207808613777166,5.637077331542969,1.7315256595611572
23.37021255493164,-0.9399881362915039,7.736646175384522,-0.4555505812168122,5.307318687438965,1.3842626810073855
22.545473098754886,0.3371838331222534,5.884168148040772,-1.29658842086792,4.911379814147949,0.93826562166214
22.799968719482422,4.530241489410401,3.546458959579468,-2.3635728359222417,4.490970611572266,0.49165615439414984
24.076263427734375,9.219295501708984,0.12712636590003967,-3.8474919795989995,4.196117401123047,0.31814324855804443
25.218698501586918,7.076749801635742,-4.646144866943359,-4.879556179046632,3.8813161849975586,0.383320301771164
27.317029953002933,-0.814272403717041,-11.595770835876467,-4.280896186828613,3.2894725799560547,0.3382733762264252
28.99252510070801,-5.124284267425538,-17.625005722045902,-2.0027856826782227,2.241803407669068,-0.07803638279438019
23.59179496765137,0.37767332792282104,-18.881908416748047,0.19533130526542664,0.6185497641563417,-0.7484938502311708
17.164291381835938,6.277264595031738,-14.388839721679688,0.8166794180870057,-1.0156383514404297,-1.4967740774154665
17.342897415161136,7.02089548110962,-6.434090614318848,0.18895331025123596,-2.12190580368042,-2.1857817173004155
4.20721435546875,-6.608171939849854,3.4459955692291264,0.698503851890564,-2.980171442031861,-2.3533506393432617
5.539734840393066,-5.8424577713012695,5.204267978668214,2.792208671569824,-4.220065593719483,-3.007501840591431
2.8045172691345215,4.010340213775636,11.870851516723633,1.900386691093445,-4.718254089355469,-2.5118887424469
3.3422555923461914,-5.584597110748292,15.915130615234375,0.2439369559288025,-4.652458190917969,-1.115274786949158
16.609647750854496,-9.445033073425295,11.216212272644045,-0.11907858401536943,-5.024646759033203,-0.5255391001701356
24.266136169433594,1.4497491121292116,15.86199951171875,0.08348719775676727,-4.705342769622804,0.019238332286477092
26.867027282714844,5.277713298797608,20.61056709289551,-0.025524504482746124,-3.638396501541138,-0.0101441890001297
20.28703880310059,4.75879716873169,16.67803001403809,0.05827729776501656,-2.839438676834107,-0.838043212890625
14.540369987487795,-4.744498252868652,13.01280403137207,0.15393999218940735,-2.184686899185181,-0.8999288082122803
6.762566566467285,-5.958379745483398,9.886149406433107,0.24007318913936618,-1.9908342361450195,-0.5098620653152466
6.338174343109132,-2.243913173675537,9.858361244201662,0.36372411251068115,-1.9444144964218142,-0.4293820261955261
8.467665672302248,1.2328534126281738,11.091633796691896,0.6054869294166566,-1.6117240190505984,-0.7167482376098633
10.531774520874023,-2.4043724536895756,11.406652450561523,0.7199026942253114,-1.100956916809082,-0.7963761687278749
5.773420810699464,-6.249402046203613,8.143948554992678,0.8650320768356323,-0.7209672331809999,-0.7048791050910951
7.194836616516113,1.1962001323699951,11.532356262207031,0.7976621985435487,-0.6929560899734497,-0.5213657021522523
6.460496425628663,-0.4016576409339905,10.752663612365724,0.6897474527359009,-0.37463200092315674,-0.6627572178840638
5.978842735290527,-0.9176065921783447,10.37504291534424,0.5281301140785218,-0.16265124082565308,-0.5881182551383973
5.728852272033691,0.48729586601257324,10.221231460571289,0.41330614686012274,-0.09071378409862518,-0.5478698015213013
6.502185344696046,0.07877509295940399,9.816099166870117,0.3374127745628357,-0.024928940460085872,-0.41457974910736084
5.010833263397218,0.6807749867439271,10.141666412353516,0.19418330490589145,-0.0971030816435814,-0.23612573742866516
5.019041061401367,0.2954634428024292,9.994497299194336,0.06349366903305054,-0.17091260850429538,-0.16468918323516846
5.407418251037598,0.48857593536376953,9.876752853393555,-0.018493263050913814,-0.22548195719718933,-0.059807971119880676
5.051693916320801,-0.13596388697624207,9.57711410522461,-0.10471470654010773,-0.2421081513166428,0.029734008014202118
4.95745611190796,-1.0008642673492432,9.470643997192383,-0.15408071875572205,-0.272919237613678,0.03026697598397732
4.825550079345703,-1.4484851360321045,9.399539947509766,-0.15838930010795593,-0.30496171116828924,0.050969935953617096
4.40953254699707,-1.9205033779144287,9.347892761230469,-0.11918405443429948,-0.34745752811431885,-0.02862679585814476
4.667347431182862,-2.319863557815552,9.193310737609865,-0.05331439524888992,-0.39926537871360784,-0.10911139845848083
5.165287971496582,-1.7524054050445557,9.071600914001467,0.0172170028090477,-0.4162338376045227,-0.16088788211345675
5.440492630004883,-0.9420959353446962,8.955354690551758,0.043817006051540375,-0.3868955075740815,-0.17692247033119202
5.570775985717773,-0.700874149799347,9.008667945861818,0.018127281218767166,-0.3567973673343659,-0.1542639881372452
5.383779048919679,-0.8030674457550049,9.069366455078125,0.007141514681279659,-0.34113594889640814,-0.1291843056678772
5.649761199951172,-0.6779923439025879,9.029480934143068,-0.00037597262416966265,-0.3340504467487336,-0.09757041931152344
5.281733036041261,-0.7515622973442079,9.010931968688967,-0.02110610716044903,-0.32420992851257324,-0.06890172511339189
5.118921279907227,-0.9331806898117065,9.121822357177734,-0.02428184077143669,-0.34139624238014227,-0.06291424483060838
5.076940536499023,-1.0764336585998535,9.143667221069336,-0.015635626390576366,-0.36467236280441284,-0.07429776340723039
4.998912811279297,-1.017778515815735,9.137234687805178,0.0021385415457189083,-0.4004979133605957,-0.09994944185018541
5.282431602478027,-1.0598038434982302,9.037677764892578,0.00520205730572343,-0.4351832866668701,-0.12398194521665575
5.37522840499878,-1.131484031677246,8.970459938049318,-0.01249861903488636,-0.4576238691806794,-0.1315359026193619
5.174497604370117,-1.518374800682068,8.927515983581545,0.042488951236009605,-0.4664061665534973,-0.15784202516078952
5.263072967529297,-1.4564831256866455,8.916301727294922,0.13454604148864746,-0.4829431176185608,-0.19341497123241427
5.648188591003418,-0.9937629699707031,8.876106262207031,0.17543382942676547,-0.5021507740020752,-0.1835041791200638
5.4551405906677255,-1.097278714179993,8.618187904357912,0.28827491402626043,-0.5329955816268921,-0.12670272588729858
6.127235889434815,0.017096251249313354,8.720726013183594,0.23934565484523776,-0.5257214307785034,-0.08711112290620805
5.612058639526367,-1.0612205266952517,8.747764587402344,0.2040580362081528,-0.5231915116310121,-0.07514044642448425
5.359576225280762,-0.9407206177711488,8.885313987731935,0.1258794665336609,-0.5378164649009706,-0.10150009393692017
5.319940090179444,-1.2676723003387451,8.9998779296875,0.10693807899951935,-0.6025628447532655,-0.13660071790218356
5.209439277648926,-1.4057705402374268,9.001267433166506,0.09808167815208435,-0.6873082518577577,-0.18363791704177856
5.094949722290039,-1.3862842321395876,9.103914260864258,0.1028411164879799,-0.7938545346260072,-0.2441217601299286
5.300699710845948,-0.9542962908744813,9.203237533569336,0.11268875747919084,-0.9278093576431274,-0.2891634404659272
5.358011722564698,-0.491979718208313,9.271486282348633,0.10296785831451416,-1.0674003362655642,-0.31079486012458807
5.211170673370362,-0.5741390585899354,9.260457038879396,0.08147539943456651,-1.2215816974639893,-0.33355692028999334
5.598744869232179,-0.7756626605987549,9.12124252319336,0.09198831766843797,-1.383904814720154,-0.35122472047805786
5.87950086593628,-0.4417800307273865,8.954607009887695,0.08342740684747697,-1.5267503261566162,-0.36507114768028265
5.999014854431152,-0.4518925845623017,9.016802787780763,0.024974079802632335,-1.679776668548584,-0.3755519986152649
5.707065582275391,-0.9629230499267578,9.241281509399414,-0.020526789128780365,-1.8676284551620486,-0.40042299032211304
5.489168643951417,-1.463518261909485,9.473107337951662,-0.02454463019967079,-2.1275887489318848,-0.4690804779529572
5.288089752197266,-1.7288421392440798,9.712841987609865,-0.039114963263273246,-2.4622273445129395,-0.5727033019065858
5.254804611206055,-1.6209423542022705,9.731850624084474,0.011109182611107826,-2.88555121421814,-0.6776403784751893
5.0587921142578125,-1.7906180620193484,9.773108482360842,0.040143370628356934,-3.3321397304534917,-0.8550851345062256
5.0218825340271005,-2.5268838405609135,9.700994491577148,0.0735122561454773,-3.836236000061035,-1.12848436832428
5.814984321594238,-3.1163265705108647,9.391101837158203,0.19804449379444125,-4.4086713790893555,-1.4826954603195193
6.245370388031007,-2.662235736846924,9.374368667602539,0.38200217485427856,-5.155745029449464,-1.8525618314743044
7.599106788635254,-1.0832208395004275,10.346382141113281,0.3788591921329499,-5.936086654663086,-2.200354337692261
8.680061340332031,-1.4256662130355837,11.51095199584961,0.1801249831914902,-6.770869731903077,-2.500812530517578
11.354088783264162,-1.4437015056610107,12.947359085083008,0.029421987012028698,-7.588619232177734,-2.745184659957886
12.952812194824219,0.5125150680541992,13.273556709289553,-0.4007692635059357,-8.10982894897461,-2.827190399169922
21.777223587036136,-2.1401538848876953,15.583391189575195,-1.6338839530944824,-8.109538078308107,-2.713193416595459
26.881866455078125,-6.489479064941406,16.020023345947266,-1.9570963382720947,-7.378007888793945,-2.8695819377899174
29.247022628784183,-3.4791340827941895,19.349115371704105,-1.7461018562316895,-6.426985263824464,-3.4042210578918457
17.814178466796875,-5.7275590896606445,12.712383270263672,-1.3587675094604492,-5.8625855445861825,-4.032588481903077
13.27233409881592,-1.973191499710083,13.043890953063967,-1.196306109428406,-5.390865325927734,-4.372195720672608
10.783545494079592,2.8258118629455566,13.551090240478516,-1.88780415058136,-4.683144092559815,-4.230547904968262
9.49532699584961,5.266420364379883,18.632522583007812,-3.758280515670777,-3.5644068717956543,-3.57789158821106
14.596149444580078,-5.588764667510987,17.37375068664551,-5.551376819610597,-2.484347343444824,-3.1631650924682617
9.951236724853516,-15.743252754211428,17.247520446777344,-4.872543811798097,-0.7311670780181885,-2.296582937240601
3.0357141494750977,-16.054462432861328,11.864215850830078,-3.6494011878967285,0.2294752597808838,-1.278367877006531
0.12327449023723602,-10.996599197387695,9.332151412963867,-2.718498706817627,0.7862313389778138,0.08759209513664246
-2.6954562664031987,-5.279641628265382,7.424588203430176,-2.8775894641876225,1.079789400100708,1.5023388862609863
-3.2321557998657227,-1.9878928661346436,7.254408359527589,-3.3838951587677006,1.2240760326385498,2.576100587844849
-2.689782857894898,0.523331105709076,8.272528648376467,-3.762480974197388,1.335858225822449,3.1460161209106445
-1.0982341766357422,3.4001736640930176,9.9453821182251,-3.9159104824066167,1.5335750579833984,3.2605683803558354
0.5946098566055298,6.3213210105896005,11.458526611328125,-4.011777877807617,1.8961549997329714,3.090845346450806
1.596238374710083,10.328493118286133,12.426002502441406,-4.23574161529541,2.366383790969849,2.803969383239746
1.9570703506469727,13.715816497802734,12.539285659790039,-4.705019474029542,2.8919088840484624,2.4812493324279785
1.734422206878662,14.811861038208008,12.367686271667482,-5.261914253234863,3.323093175888062,2.1451096534729004
1.8315279483795166,14.608157157897951,12.198484420776367,-5.5725812911987305,3.6333029270172124,1.8044942617416384
2.116352081298828,14.651470184326172,12.245654106140138,-5.591891288757324,3.835000276565552,1.4336555004119873
2.6110386848449707,15.572997093200685,12.514048576354982,-5.499421119689941,3.983102798461914,1.0437008142471316
3.1174042224884038,16.599622726440433,12.79160785675049,-5.41563367843628,4.109153747558594,0.6908014416694642
3.537731170654297,16.70224189758301,12.973597526550295,-5.31492805480957,4.198078632354737,0.36605104804039007
4.214602470397949,16.754680633544922,13.309004783630373,-5.136414051055909,4.2431640625,0.008518532849848272
5.165646553039551,16.451923370361328,13.664155006408693,-4.917119026184082,4.253379821777344,-0.38801792263984686
5.741082191467285,15.899567604064943,13.961853981018068,-4.6288723945617685,4.25004768371582,-0.8155487179756166
5.923870086669922,15.592682838439943,13.895302772521974,-4.342487812042237,4.237791061401367,-1.2498624324798584
5.919950962066651,15.230815887451172,13.816045761108398,-4.160968303680421,4.195034980773926,-1.6169091463088991
6.1151227951049805,14.153664588928224,13.87794303894043,-3.9781460762023926,4.091866493225098,-1.8906289339065554
6.27135992050171,13.309115409851076,13.439672470092773,-3.7846875190734863,3.9915211200714116,-2.075198173522949
6.241833209991456,12.333791732788086,13.26913833618164,-3.567261219024658,3.838009595870972,-2.0861365795135502
6.365683555603027,11.41615962982178,13.3715295791626,-3.225085735321045,3.6476414203643803,-1.982959508895874
6.466497421264648,10.784141540527344,13.336856842041016,-2.817678928375244,3.474411964416504,-1.8428896665573122
6.511356830596925,10.035632133483888,13.283903121948242,-2.368107318878174,3.2831137180328374,-1.7059626579284668
6.527721881866456,9.305838584899904,13.503009796142578,-1.8601990938186648,3.0715222358703613,-1.5878503322601318
7.099267959594727,8.87536144256592,13.834662437438967,-1.3221337795257568,2.8744552135467534,-1.509089469909668
8.00361442565918,8.556408882141115,14.066001892089844,-0.842249870300293,2.750844955444336,-1.4817234277725222
8.934615135192873,8.428279876708984,14.246191978454592,-0.4905556738376618,2.703062057495117,-1.4878610372543337
10.207805633544922,8.164969444274904,14.291295051574709,-0.3139428496360779,2.7477743625640874,-1.4787431955337527
11.495158195495607,7.3754544258117685,13.867848396301271,-0.31010726094245916,2.9151968955993652,-1.4124697446823122
11.93241596221924,5.743978023529054,12.336297035217287,-0.407990038394928,3.1430673599243164,-1.262782692909241
11.80973529815674,1.987595558166504,9.994527816772461,-0.45023712515831,3.283200740814209,-1.0701102018356325
11.038767814636232,0.32734328508377075,7.83528995513916,-0.40130618214607244,3.1901626586914062,-0.7786997556686401
9.908056259155273,0.156627357006073,5.996778011322022,-0.472084641456604,2.959018468856812,-0.3191449046134949
9.082355499267578,-0.13189138472080233,4.976151466369629,-0.5988808274269105,2.6573488712310795,0.19354307651519775
9.175382614135742,-0.6407914161682129,5.032832622528077,-0.5367301106452943,2.319960594177246,0.5691922307014466
9.707919120788576,-0.06662464141845703,5.440225601196289,-0.2330368906259537,2.0322399139404297,0.7380012273788452
9.823356628417969,1.5228478908538818,5.652867317199707,0.05393286049365997,1.8227630853652956,0.7956840991973877
9.575361251831055,2.5429720878601074,5.6130828857421875,0.21202062070369723,1.630003333091736,0.8120418787002563
9.240854263305664,2.9709830284118652,5.164559364318848,0.3254548609256745,1.4225924015045166,0.7853679060935975
9.772552490234375,3.835483312606812,5.0270843505859375,0.3948243260383606,1.2270878553390505,0.7113103270530702
11.013230323791506,4.376146793365479,5.385932922363281,0.3785626590251923,1.113405704498291,0.5773776173591615
11.230964660644531,4.592761993408203,5.067741870880128,0.3736696243286133,1.0817089080810547,0.33573135733604437
10.970543861389162,5.36899471282959,4.069384574890137,0.32334533333778387,0.99528968334198,0.062018360942602165
10.722185134887695,5.758983612060547,2.623682975769043,0.16929891705513,0.818597972393036,-0.19364799559116366
10.870332717895508,5.073492050170898,1.408274292945862,0.0017710231477394702,0.5099719762802124,-0.48692980408668524
11.79823398590088,6.237192630767823,-1.277388572692871,-0.20314122736454013,-0.19281415641307834,-0.8482547998428345
12.270248413085938,2.912176847457886,-9.44706916809082,-0.6414100527763368,-1.4702837467193604,-1.2188826799392702
18.23016357421875,0.95271897315979,-10.91036128997803,-0.733351469039917,-2.817982912063599,-1.870608687400818
10.661274909973146,4.028154373168945,3.0132789611816406,-1.0287261009216309,-3.3797094821929936,-1.9326858520507812
16.01984405517578,3.629664421081543,20.558326721191406,-1.3889572620391846,-2.777914047241211,-1.4440563917160036
10.718102455139162,-2.0596961975097656,18.641143798828125,-1.1871985197067263,-1.9527571201324463,-1.3772140741348269
1.517240047454834,-12.496698379516602,10.923683166503906,-1.1298043727874756,-1.9539443254470827,-1.0944119691848757
4.446043014526367,-15.32337284088135,10.339047431945803,-0.9380508661270142,-2.331992864608765,-0.2566307783126831
11.05724620819092,-16.455308914184574,12.599575996398928,-0.4725865125656128,-2.1132264137268066,0.42729964852333074
10.075179100036623,-9.576089859008789,11.989474296569826,-0.07026279717683794,-1.6314928531646729,0.6090732216835023
6.9031386375427255,-2.586419105529785,9.967350006103516,-0.028502995148301128,-1.3100025653839111,0.4135754108428955
5.275012493133546,4.540002822875977,7.387897491455078,-0.17089749872684482,-1.2743732929229736,0.20693291723728183
8.346315383911133,1.9489340782165527,9.135329246520998,-0.1449568420648575,-1.2246533632278445,-0.20487135648727417
14.621334075927734,-3.6708724498748784,13.868364334106445,0.1356921344995499,-0.7244890928268433,-0.5003120303153993
9.660637855529787,-4.677811145782472,10.509959220886232,0.3934836983680725,-0.09572898596525194,-0.3554202020168305
3.775421142578125,-0.6768693923950195,9.109795570373537,0.48325923085212713,-0.06405644118785858,-0.24759851396083835
6.506970882415772,2.6570980548858647,11.65255641937256,0.4234775602817536,-0.09973757714033128,-0.34166038036346436
5.518998622894288,-0.6815533041954042,10.214758872985842,0.3479040265083313,0.037324819713830955,-0.3242419958114624
4.758857250213624,-2.1577789783477788,10.008929252624513,0.2750077247619629,-0.03373102471232415,-0.23536111414432528
5.08377504348755,0.5367255210876465,10.12801742553711,0.1998884826898575,-0.05502477288246155,-0.20506773889064792
5.113607406616211,-0.13425830006599426,9.801062583923342,0.13694259524345398,-0.09399895370006561,-0.18238438665866855
4.823564052581788,-0.9638831615447998,9.56103038787842,0.048346392810344696,-0.10817352682352067,-0.11633925139904022
4.803776741027832,-0.4359579086303711,9.438444137573242,0.015432761050760748,-0.14744126796722412,-0.08029745519161224
5.037981510162354,-0.4444982409477234,9.461457252502443,-0.018902050331234935,-0.1583874523639679,-0.057962987571954734
4.865300178527832,-0.6746070981025697,9.420828819274904,-0.05228818953037262,-0.1674324870109558,-0.02774501405656338
4.623661518096925,-1.06871235370636,9.155575752258303,-0.03613436222076416,-0.186870351433754,-0.030469436198472977
4.349466323852539,-1.820091962814331,8.98607063293457,0.09590891003608704,-0.21880514919757846,-0.10816530138254167
4.696998119354249,-2.6826038360595703,9.226243019104006,0.199190691113472,-0.22675111889839172,-0.15545193850994113
4.916007995605469,-1.782865881919861,9.329442977905273,0.25525829195976263,-0.20298452675342563,-0.17500221729278564
5.072354793548585,-1.532086253166199,9.36445713043213,0.26609599590301514,-0.1744019538164139,-0.18337216973304749
4.8824462890625,-1.9199097156524658,9.090103149414062,0.245857909321785,-0.14666259288787842,-0.1749821901321411
4.984021186828613,-0.9931975007057191,9.525480270385742,0.18316137790679932,-0.1611921936273575,-0.11443684995174408
5.0460219383239755,-0.3175557851791382,9.610862731933594,0.10140739381313324,-0.16041043400764465,-0.08627919107675554
4.974616050720215,-0.43860816955566406,9.280866622924805,0.042672380805015564,-0.165628656744957,-0.0681290477514267
4.702202796936035,-0.07036300003528595,9.1884765625,-0.014970724470913412,-0.1792495846748352,-0.04247790575027466
4.108967304229737,-0.9097159504890443,9.246691703796388,-0.0855633243918419,-0.2326626479625702,-0.04620424285531045
4.195911407470703,-1.021947264671326,8.979676246643068,-0.15775771439075473,-0.24690280854702,-0.020374633371829987
4.323843002319336,-1.1454933881759646,9.62179470062256,-0.22317519783973694,-0.32317385077476507,-0.05859573185443878
5.319742679595948,-0.5209851264953613,9.708629608154297,-0.2723199129104614,-0.3407698571681977,-0.056213144212961204
5.245781421661378,-0.967077374458313,9.433960914611818,-0.2807700335979462,-0.342687726020813,-0.06450929492712022
5.002326011657715,-1.305305600166321,9.127504348754883,-0.2584043443202973,-0.3366942703723908,-0.08959506452083588
5.239269733428956,-1.4500030279159548,9.067073822021484,-0.22391238808631897,-0.3436820805072785,-0.12181372940540314
5.279288291931152,-1.194324016571045,8.946090698242188,-0.1888428181409836,-0.3247423768043518,-0.12369327247142792
4.952277183532715,-1.3195507526397705,9.286882400512695,-0.18217873573303223,-0.3351446092128754,-0.12400861084461212
5.239945888519288,-0.9765935540199281,9.42341709136963,-0.19093121588230136,-0.3576770126819611,-0.13010653853416443
4.781558036804199,-1.1708854436874392,9.356677055358888,-0.19897058606147766,-0.40858462452888494,-0.12826359272003174
4.79610538482666,-0.9400863647460938,9.661471366882326,-0.24696147441864014,-0.48535081744194036,-0.16986240446567538
5.391380310058594,-0.42129006981849676,9.496589660644531,-0.3358895182609558,-0.5804962515830995,-0.15876206755638123
5.356020927429199,0.1777496635913849,9.45612907409668,-0.4556220471858979,-0.6867164969444276,-0.12208694219589233
5.124649524688722,0.11144700646400452,9.55245590209961,-0.5785523056983949,-0.8094581365585327,-0.0659620985388756
4.747975826263429,-0.6348532438278198,9.480017662048342,-0.6127166152000428,-0.9750711917877197,-0.01536443829536438
4.620384693145753,-0.5642861127853394,9.441160202026367,-0.6425746083259584,-1.176131010055542,0.04465701058506966
4.207425117492676,-0.46780818700790405,9.391901016235352,-0.6568784713745117,-1.441603422164917,0.10392213612794877
4.365278244018555,-0.4733067750930786,9.528467178344727,-0.6737084984779359,-1.7495801448822021,0.152988538146019
4.2917022705078125,-0.6370640993118286,10.148901939392092,-0.7321109175682069,-2.052281379699707,0.17351067066192627
4.174581527709961,-1.2586872577667236,10.066443443298342,-0.7907049655914307,-2.4161384105682377,0.144179105758667
4.108386993408203,-1.95316481590271,9.990060806274414,-0.7700319886207582,-2.841992616653443,0.07819055020809174
4.094761848449707,-1.495635986328125,9.64541530609131,-0.755455493927002,-3.3261644840240483,-0.0023719817399978638
4.272867202758789,-1.0389158725738525,9.14805793762207,-0.7205878496170044,-3.9150679111480717,-0.09488772600889207
4.050106048583984,-2.085446357727051,9.427867889404297,-0.6939657330513002,-4.603070259094238,-0.20304022729396823
3.4291090965270996,-3.050422191619873,9.109663009643555,-0.6792175769805908,-5.525704383850098,-0.2211207300424576
3.932132482528687,-4.103785514831543,9.229192733764648,-0.5822491645812988,-6.593431949615479,-0.34530383348464966
3.7704918384552006,-3.9995546340942383,9.298809051513672,-0.5216411352157593,-7.811729907989503,-0.4452598989009858
4.545496463775636,-3.7211060523986816,9.612521171569826,-0.5543783307075502,-9.066658020019531,-0.6320924162864686
6.563666820526124,-5.096744537353516,10.40450954437256,-0.7948468923568726,-10.352043151855469,-0.7785890698432923
13.436400413513185,-3.7725312709808354,13.00264644622803,-1.0216693878173828,-11.273741722106935,-0.9607229232788086
17.556297302246094,-3.3769888877868652,13.700931549072266,-0.863204836845398,-11.439261436462404,-1.0160983800888064
28.376188278198246,-5.084516048431397,13.239280700683594,-0.8742963075637817,-10.95899295806885,-1.1765313148498535
32.682769775390625,-6.098647594451905,12.003053665161133,-1.1851105690002441,-10.267755508422852,-1.056763529777527
34.40130615234375,-3.7728323936462402,16.299922943115234,-1.8335330486297607,-9.280566215515138,-0.9594308137893677
21.8426685333252,-11.733748435974123,12.380266189575195,-1.8437958955764773,-8.90460205078125,-1.279282808303833
22.652137756347656,-10.246770858764648,15.958182334899904,-1.2717777490615847,-8.590450286865234,-1.6900869607925417
21.359519958496094,-8.886570930480959,20.644683837890625,-0.9917440414428711,-7.993128776550293,-2.0688459873199467
23.639808654785156,-10.16392230987549,23.450757980346683,-0.931382715702057,-6.058306694030762,-1.4964176416397097
10.070801734924318,-7.112940788269043,19.377557754516605,-0.3056349456310273,-4.173558235168457,-1.7420296669006348
43.01313781738281,-5.31907606124878,33.678062438964844,0.5268164277076722,-1.6595046520233154,-2.7332909107208256
23.120162963867188,-4.279006481170655,32.679210662841804,0.29314589500427246,2.3840370178222656,-2.23485016822815
12.549556732177734,-3.3985347747802734,22.461072921752933,-0.11360805481672288,4.984343528747559,-1.8089462518692019
8.610105514526367,-4.448387145996094,16.33477592468262,-0.2127978503704071,6.49507761001587,-1.5269013643264773
1.1954600811004639,-2.9668097496032715,8.98073482513428,-0.442230761051178,6.989655017852784,-1.2494096755981445
-3.9360311031341557,-4.062465667724609,4.799702167510987,-0.4744787514209748,6.725222110748292,-1.094733476638794
-5.011462688446046,-3.848966598510742,2.662514448165894,-0.3407436907291413,6.148642539978027,-1.0321563482284548
-4.286039352416992,-2.708335638046265,2.5863685607910156,-0.25858616828918457,5.472388744354249,-0.9947296977043153
-1.9561835527420046,-1.7877857685089111,4.597893238067628,-0.381963461637497,5.0597734451293945,-0.849557936191559
2.4483616352081303,-0.991554856300354,7.805237293243409,-0.7022646069526673,5.114387035369874,-0.5041993856430054
6.633100509643555,-1.9197778701782227,10.207632064819336,-0.967491865158081,5.731410503387452,-0.03854134678840637
7.34621524810791,-3.939571619033814,10.629587173461914,-0.8712588548660278,6.551294803619386,0.2738597691059113
6.582501888275147,-4.265386104583741,9.345957756042482,-0.5303016304969789,7.134206771850586,0.48730519413948065
5.687379837036133,-2.89952301979065,7.421164512634277,-0.2125285267829895,7.382166862487793,0.7098774313926698
5.154580593109132,-0.6840888261795044,6.126125335693359,-0.19552519917488098,7.40516233444214,0.9771919250488281
5.498355865478516,0.3257266879081726,5.729172706604004,-0.4441049993038178,7.292706489562988,1.3066298961639404
6.082705974578858,-0.57691490650177,6.307612419128418,-0.6562932133674623,7.136402130126953,1.5826848745346072
7.409557342529297,-3.761187314987183,7.229365825653077,-0.44116610288619995,6.945202827453613,1.7319713830947878
9.297998428344727,-0.6327553391456605,9.397266387939453,0.08887008577585222,6.761091232299805,1.8148368597030642
11.83250141143799,1.3051774501800537,11.349262237548828,-0.17092177271842957,6.808535099029542,1.9878355264663699
11.876852035522461,1.044835090637207,12.07752323150635,-0.4606458246707917,6.887788772583008,2.0663988590240483
13.036726951599123,-0.4768229126930237,13.148800849914553,-0.4707000255584717,6.860648155212402,2.0290429592132573
15.207782745361328,-1.0246554613113406,14.52757453918457,-0.22773924469947815,6.830803394317628,1.934549331665039
16.938514709472656,-0.6442188620567323,15.399245262145998,-0.0189915094524622,6.874759674072266,1.8520781993865967
18.411886215209964,0.13649317622184753,15.77425765991211,0.05104368180036545,6.936645984649659,1.8020563125610352
19.898504257202152,-0.08313965797424316,16.127552032470703,0.013403335586190224,6.966010093688965,1.7708972692489626
21.52471160888672,-1.2816493511199951,16.40574455261231,0.025962492451071743,6.935055732727051,1.707003712654114
23.971231460571293,-1.4131385087966921,16.603416442871094,0.08715150505304338,6.8300065994262695,1.6220924854278564
26.94036865234375,-0.5907337665557861,15.907743453979492,0.0006623314693570137,6.720313549041749,1.5335118770599365
29.37891387939453,0.06349486112594604,13.681621551513672,-0.3465197682380676,6.609455108642578,1.3972867727279665
30.413280487060547,-0.6456067562103271,10.408925056457521,-0.8430336713790894,6.421029567718507,1.1951560974121094
30.274242401123047,-0.8056356310844422,5.031371116638184,-1.2317069768905642,6.022424697875977,0.8445127010345459
31.69643783569336,3.3854796886444096,-3.548540830612183,-1.845943331718445,5.38841438293457,0.6396976113319398
33.1307716369629,6.968793392181397,-13.619071960449219,-2.8855774402618413,4.446813106536866,0.7422131299972534
38.31037139892578,2.1519384384155273,-24.474935531616214,-3.5900599956512456,3.3605337142944336,1.1719950437545779
37.037853240966804,-4.947113037109375,-30.11721992492676,-2.719340562820435,1.657383680343628,1.335566520690918
29.363443374633793,-5.416844844818116,-25.05266380310059,-1.016907572746277,-0.6139552593231201,0.8542174696922303
23.49606704711914,-0.4219178259372712,-14.849703788757326,0.4416836798191071,-2.330774545669556,-0.06437768042087555
9.906047821044922,-0.5034507513046265,0.38811936974525457,1.233467221260071,-3.370739459991455,-0.554747760295868
16.726537704467777,-4.648494243621827,2.526816606521607,3.137897491455078,-5.1659207344055185,-0.9394454360008241
-1.3540680408477783,9.701781272888185,12.645755767822266,2.1107666492462163,-4.95670223236084,-1.375538468360901
5.135684013366699,6.7153120040893555,21.878360748291016,0.18370099365711215,-4.981114864349366,-0.9648147821426392
16.41782951354981,-1.7004530429840088,11.245129585266115,-0.032986611127853394,-5.6250319480896005,-1.2201290130615234
25.105138778686527,4.676599979400636,17.049730300903324,0.09768851101398468,-5.644071102142335,-0.6899134516716005
30.4859619140625,0.2052229344844818,21.308834075927734,-0.15069265663623813,-4.661158561706543,-0.351769894361496
23.074316024780277,-0.5040689706802368,17.771087646484375,-0.15294122695922852,-3.5194573402404785,-0.8355901837348939
14.404473304748537,-5.568288326263429,13.3596887588501,0.020958051085472107,-2.870933294296265,-0.7880669832229614
12.6083459854126,-4.0260281562805185,11.881440162658693,0.2943114340305329,-2.3633837699890137,-0.7637362480163574
11.12681770324707,-1.738241195678711,11.356904029846193,0.5095006823539735,-1.749629259109497,-0.88791161775589
11.234345436096193,-0.5015548467636108,11.321789741516115,0.5567051768302919,-1.1225126981735232,-0.8750385046005249
7.506442546844483,-3.4238882064819336,9.700307846069336,0.6695529818534852,-0.6414872407913208,-0.7962186932563783
7.765003204345703,-1.9016069173812868,10.654286384582521,0.6816059350967407,-0.5212088227272035,-0.5484414696693422
6.643403053283691,0.8912350535392762,10.572347640991211,0.5572118759155273,-0.2506537735462189,-0.4592890739440918
5.328667640686035,-1.4609544277191162,9.657064437866211,0.46595603227615356,-0.17940795421600342,-0.3945260345935822
4.709430217742921,-1.136198163032532,10.208987236022951,0.48655271530151367,-0.16606788337230685,-0.39566993713378906
5.179175853729249,-1.0123083591461182,10.427393913269045,0.48437076807022095,-0.09314633160829545,-0.48235920071601873
4.373435020446777,-1.8648879528045654,9.411563873291016,0.48979562520980835,-0.062301207333803184,-0.5287604331970215
4.462347030639648,-1.5762835741043093,9.716132164001467,0.47368922829627996,-0.1560647934675217,-0.49516886472702026
5.39003849029541,-0.35211408138275146,10.020899772644045,0.4403964877128601,-0.15932224690914157,-0.43915653228759766
5.446034908294679,-0.33182430267333984,9.740829467773438,0.39507830142974854,-0.11212424188852312,-0.3557737767696381
5.285392761230469,-0.19971692562103271,9.709861755371094,0.2795014083385468,-0.11216004192829132,-0.24718891084194186
5.384531021118164,0.5265642404556274,9.94192409515381,0.11668364703655243,-0.125760018825531,-0.11928998678922655
5.156156539916992,-0.027961015701293945,9.661733627319336,-0.02092575654387474,-0.12564153969287875,-0.020671669393777847
4.895379066467285,-0.2160945385694504,9.301725387573242,-0.1168895810842514,-0.13399480283260348,0.06327728182077409
4.686984062194824,-0.7588989734649658,9.193557739257812,-0.18638721108436584,-0.15321443974971774,0.10301794111728668
4.631582736968995,-1.1335358619689941,9.019622802734375,-0.2184250205755234,-0.19375379383563998,0.1038648784160614
4.655710697174073,-1.1305133104324343,9.170040130615234,-0.22482961416244507,-0.21243213117122653,0.08194820582866669
4.686005115509034,-1.3277006149291992,9.187166213989258,-0.22667191922664645,-0.22732460498809814,0.053280316293239594
4.695080280303956,-1.8107268810272217,9.034485816955568,-0.16639392077922824,-0.22528669238090515,-0.0011023123515769841
4.368812561035156,-1.673445463180542,8.896931648254396,-0.09638691693544389,-0.24255074560642245,-0.06580476462841034
4.439535140991211,-1.762667775154114,9.070475578308107,-0.0008051174227148294,-0.2750853002071381,-0.15094459056854248
4.446703433990479,-1.8603167533874512,9.125709533691406,0.1263460069894791,-0.30605053901672363,-0.25071650743484497
5.118771553039551,-1.2993791103363037,9.11012363433838,0.17847184836864474,-0.2945050597190857,-0.3110161721706391
5.035617351531983,-0.8379554748535156,9.077101707458498,0.18461771309375766,-0.2718969881534577,-0.3381355404853821
4.585084915161133,-0.8682873249053955,8.975669860839844,0.16245070099830627,-0.2678522169589997,-0.3558824062347412
4.19605827331543,-1.3230259418487549,9.313810348510742,0.14340144395828247,-0.3159992992877961,-0.3999674022197724
4.132567405700684,-1.2148113250732422,9.515671730041506,0.12311971187591553,-0.39658203721046453,-0.476213276386261
4.779999732971191,-1.0005699396133425,9.609909057617188,0.11154620349407196,-0.5023691654205322,-0.5148969292640687
4.879582881927491,-1.0745439529418945,9.423824310302734,0.1412468105554581,-0.5986387729644775,-0.5461564660072328
5.336069107055664,-0.3873118460178376,9.54639530181885,0.1345736533403397,-0.7155425548553467,-0.5298991203308105
5.131154537200929,0.039155617356300354,9.594087600708008,0.05687884613871575,-0.8645015954971313,-0.4806669652462006
4.754638195037843,0.26241040229797363,9.963221549987795,-0.03634792193770409,-1.053319573402405,-0.4204446077346802
4.614408493041992,-0.02192603051662445,10.115052223205568,-0.036001618951559074,-1.2973010540008545,-0.3001489937305451
4.381169319152832,0.00783325731754303,10.081033706665039,-0.040431652218103416,-1.5670421123504639,-0.20650747418403625
4.124582767486573,-0.048739999532699585,10.5052490234375,-0.07083483040332794,-1.8875781297683718,-0.1631844937801361
4.667601585388184,0.1265969127416611,10.396763801574709,-0.13861259818077087,-2.2532596588134766,-0.12096773833036424
4.326936721801758,0.3358624577522278,10.245046615600586,-0.2153667360544205,-2.645226001739502,-0.0788777843117714
4.745934009552003,0.5098956227302552,10.32606315612793,-0.2897241413593293,-3.1182641983032227,-0.0283941812813282
5.175200462341309,0.21511758863925937,10.228295326232912,-0.3379582166671753,-3.5924799442291264,-0.005076393485069275
4.91819953918457,0.020430788397789,10.587898254394531,-0.36126103997230535,-4.15973997116089,-0.10279600322246552
3.2754051685333256,-1.856875777244568,11.073816299438477,-0.40144890546798706,-4.835487842559815,-0.17731669545173645
1.6216472387313845,-3.682246208190918,10.326030731201172,-0.32921537756919866,-5.719974517822266,-0.4207010865211487
1.1053972244262695,-4.535017490386964,9.572285652160646,0.012300785630941391,-7.0450453758239755,-0.8735555410385132
3.288130760192871,-3.4840843677520756,10.120860099792482,0.3678032159805298,-8.633012771606445,-1.2839428186416628
3.598358631134033,-2.562909841537476,10.490878105163576,0.6384546756744385,-10.355143547058107,-1.6417274475097656
7.425766944885254,-2.867899656295777,11.492268562316896,0.5253379344940186,-11.948111534118654,-1.9059072732925417
16.23464584350586,-2.98054838180542,13.293980598449709,0.11471406370401384,-13.110008239746094,-1.8757477998733523
28.114723205566406,-2.731937646865845,16.036880493164062,-0.2953234016895295,-13.353739738464357,-1.872072696685791
41.35490798950196,0.6782032251358032,14.585061073303224,-0.25183007121086126,-11.972295761108398,-1.959053158760071
43.772666931152344,-3.0523617267608647,14.717107772827148,-0.8212838172912598,-10.447716712951662,-1.3820647001266482
29.209302902221683,-9.592957496643068,15.76873302459717,-1.398893713951111,-9.453975677490234,-1.3193041086196902
26.005008697509766,-7.130978584289551,19.697952270507812,-1.4630869626998904,-8.520207405090334,-1.7327134609222412
21.85775947570801,-5.401121616363526,26.281200408935547,-1.0565768480300906,-7.544756889343262,-2.236590147018433
14.927581787109375,-7.269721031188965,19.28585243225098,0.13766686618328097,-6.136834144592285,-2.7957139015197754
22.89347648620606,-6.026201248168945,21.188917160034183,0.4488166272640229,-4.879504203796387,-2.480079889297486
38.15836715698243,-11.806632041931154,36.276988983154304,0.7395827770233154,-1.1914618015289307,-2.357028722763062
13.81235122680664,-6.908193588256836,26.6318531036377,0.9807082414627075,2.106423616409302,-1.8408277034759521
12.21104145050049,-6.044101715087891,22.590885162353516,0.9649406075477601,4.216893196105957,-1.356736183166504
8.615194320678711,-3.858115911483765,15.957254409790039,0.5971814990043641,5.720394134521484,-0.8372114300727845
2.8214964866638184,-4.112372398376465,10.556768417358398,0.20304551720619202,6.482674598693848,-0.3974795043468476
-1.6151902675628662,-3.9483621120452885,6.238812446594238,-0.020951962098479274,6.61128044128418,-0.0946759656071663
-4.416213035583496,-4.034914970397949,3.1630749702453613,-0.2284696400165558,6.218190670013429,0.18013410270214084
-4.151225566864015,-3.0704803466796875,2.829200267791748,-0.41918593645095825,5.680468082427979,0.4811895489692688
-0.38466352224349976,-1.726363182067871,4.637079715728761,-0.7142617702484131,5.371318817138672,0.8720533251762391
2.2991240024566655,-1.179771900177002,6.535540103912354,-1.009902000427246,5.428489208221436,1.222198247909546
4.0070767402648935,-0.8998274207115174,8.12407970428467,-1.2656613588333132,5.711198806762695,1.5520446300506592
5.644018173217773,-1.1299843788146973,8.967290878295898,-1.3357967138290407,6.147785186767578,1.8605223894119265
6.145495891571046,-1.4440716505050661,8.888607978820803,-1.1548871994018555,6.586017608642578,2.040481805801392
5.823976993560792,-0.7532638311386108,8.214004516601562,-0.8669744133949281,6.87578010559082,2.0842421054840092
6.175293922424316,0.7699095010757446,7.736427307128906,-0.662139117717743,6.994558334350586,2.0976758003234863
7.185579299926758,2.0939772129058842,7.78529977798462,-0.6657442450523378,7.062900543212891,2.133158922195435
7.990057945251465,2.3161222934722905,8.138541221618654,-0.7601302266120912,7.130009174346925,2.15157413482666
8.566559791564943,1.7214418649673464,8.739608764648438,-0.7724202275276185,7.172804832458496,2.075536489486695
9.25091552734375,0.9657864570617676,9.347850799560547,-0.6451459527015687,7.192523956298828,1.9485719203948975
10.201417922973633,1.1347690820693972,10.105687141418459,-0.4559575319290161,7.179199695587159,1.8113901615142822
11.498791694641115,1.8277262449264529,11.177884101867678,-0.3951359987258911,7.151252746582031,1.7050806283950808
12.6066370010376,1.898372292518616,12.257791519165039,-0.4761816561222077,7.1300153732299805,1.6501280069351199
13.737760543823242,0.8266537189483643,13.236919403076172,-0.5335354804992676,7.0711989402771005,1.617272734642029
15.797372817993164,0.15383300185203552,14.752434730529787,-0.4724054634571076,6.962315559387207,1.6567510366439822
18.906438827514652,-0.47806712985038763,16.568923950195312,-0.3886786103248596,6.885734558105469,1.7623733282089236
22.26715087890625,-1.436019539833069,17.814672470092777,-0.2426130175590515,6.900065898895265,1.9077210426330566
25.059347152709964,-2.304116725921631,18.45030021667481,0.008096348494291306,6.950298786163331,2.0546705722808842
28.04781723022461,-2.4385750293731694,17.89018058776856,0.3087328970432282,6.970757484436035,2.1645605564117436
30.539901733398438,-1.3525593280792236,15.556930541992188,0.45185786485671997,6.886623382568359,2.2082030773162846
32.64106750488281,-1.0147664546966553,11.559732437133789,0.2802091538906098,6.67916202545166,2.144449949264527
33.858253479003906,-1.8695993423461914,6.820529460906983,-0.050290100276470184,6.362693309783936,1.8500314950942995
35.14032363891602,0.3108671307563782,0.7049562335014344,-0.5123170018196107,5.941753387451172,1.3328012228012087
37.9810791015625,6.277098178863526,-7.6344804763793945,-1.6100444793701172,5.43331241607666,0.9229915738105775
39.949920654296875,8.12761116027832,-18.382247924804688,-2.9629113674163823,4.838512420654297,0.8696907162666322
38.35937881469727,2.7110748291015625,-28.567953109741214,-3.260377168655396,3.6997814178466797,0.9651166200637817
30.264879226684574,-2.8516602516174316,-31.667308807373047,-1.963135004043579,1.5182658433914187,0.7127946615219116
21.377853393554688,-1.839606523513794,-25.608348846435547,0.017838463187217712,-1.1906812191009521,0.050792153924703605
22.765176773071293,2.4429814815521245,-13.253351211547852,1.1536511182785036,-3.108247756958008,-0.6170911192893983
21.46453857421875,2.48513674736023,3.933396339416504,1.1473920345306396,-3.6480948925018315,-0.8002523779869081
8.867096900939943,-3.014804601669312,15.358543395996094,1.6872389316558838,-4.659697055816651,-0.557578444480896
-11.236072540283203,0.30808156728744507,12.667271614074709,1.0525569915771484,-4.263416290283203,-1.2137380838394167
2.163378477096558,-0.15147584676742554,17.911478042602543,-0.28296536207199097,-5.221621036529542,-1.591172456741333
19.71804428100586,-5.602029323577882,11.329961776733398,0.046528495848178864,-6.112452983856202,-1.563913941383362
36.5555419921875,-0.8431071043014526,22.485361099243168,-0.054443567991256714,-5.387117862701417,-0.46008068323135376
31.939073562622074,-0.4145710766315461,21.397230148315433,0.10105091333389282,-3.9019274711608887,-0.38992527127265936
18.74550819396973,2.3236815929412846,16.645381927490234,0.09132032096385956,-2.9703838825225835,-0.7241612672805786
11.420071601867678,-0.031531184911727905,12.68166732788086,0.14473472535610202,-2.4725966453552246,-0.8589582443237305
8.923506736755373,-0.742294430732727,10.314730644226076,0.2869769334793091,-2.080159425735474,-0.8700903654098511
10.41554355621338,-2.4234166145324707,10.505584716796875,0.45683521032333374,-1.7020492553710938,-0.9240564703941346
10.761214256286623,-3.593724250793457,10.98874282836914,0.5924608111381532,-1.108123779296875,-0.9548296332359315
9.417623519897461,-2.4368760585784917,11.125226974487305,0.6954023241996766,-0.7833683490753174,-0.6418946981430054
7.658884525299073,0.3919906914234162,11.37609386444092,0.5557753443717958,-0.5353140830993652,-0.38540020585060125
6.5014495849609375,-0.04420897364616394,10.494290351867678,0.36478543281555176,-0.30985844135284424,-0.3033416569232941
5.412419319152832,-1.3153564929962158,9.918459892272951,0.2205713391304016,-0.23406077921390536,-0.18771561980247498
4.132839202880859,-1.3156142234802246,10.098923683166506,0.11310075223445892,-0.24486057460308078,-0.10298170894384386
4.097292423248292,-0.8904867172241211,10.201873779296875,0.03569093719124795,-0.30891549587249756,-0.09658070653676988
4.436004638671875,-1.3042018413543701,9.883975982666016,-0.022177102044224743,-0.3985817134380341,-0.10027164220809937
5.195751190185547,-1.27382493019104,9.778926849365234,-0.010449787601828575,-0.43612352013587957,-0.11641055345535278
5.149652957916261,-1.1043486595153809,9.797165870666506,0.001587789272889495,-0.3943381011486054,-0.053513210266828544
5.823158740997315,-0.4180638790130615,9.88413715362549,-0.07773680239915849,-0.35577255487442017,0.04379937425255776
5.444513797760011,-0.9738196134567261,9.793971061706545,-0.15685221552848816,-0.31553375720977783,0.047451447695493705
5.715793609619141,-1.1382044553756716,9.658005714416506,-0.21705462038517,-0.2958345413208008,0.04875073209404946
5.297289848327637,-0.832722544670105,9.571392059326172,-0.280960887670517,-0.27360260486602783,0.0343131422996521
4.838163375854492,-1.1840176582336426,9.203205108642578,-0.31679913401603704,-0.23776039481163025,0.0481720082461834
4.443580627441406,-2.006640911102295,8.91390609741211,-0.2861891686916352,-0.25300768017768865,0.017696890980005264
4.2256317138671875,-2.349475860595703,8.788531303405763,-0.22534169256687167,-0.27954643964767456,-0.00850739795714617
4.682950496673585,-2.2758438587188725,8.977043151855469,-0.17324939370155334,-0.3146216571331025,-0.04789069667458535
4.828468322753906,-2.0900626182556152,8.861976623535156,-0.15200161933898926,-0.31673368811607366,-0.06742234528064728
4.9047651290893555,-2.132174491882324,8.752079010009766,-0.1279432773590088,-0.30628013610839844,-0.12107864767313005
4.7155961990356445,-1.9801045656204226,8.633616447448732,-0.09746108949184418,-0.29230442643165594,-0.1638469398021698
4.946100234985352,-1.9263126850128174,8.706826210021974,-0.08798653632402421,-0.2932012677192688,-0.20487457513809204
5.036511898040772,-1.6619091033935547,8.634330749511719,-0.062364161014556885,-0.26280990242958074,-0.23450756072998047
4.679754257202148,-1.7641706466674805,8.715434074401857,-0.04350319132208825,-0.2604388892650605,-0.2709925174713135
4.634919166564941,-1.8194944858551025,8.739620208740234,-0.019793262705206875,-0.27954500913619995,-0.32065668702125555
4.329276561737061,-2.021460294723511,8.757517814636232,-0.005832804832607509,-0.32182472944259644,-0.3715391755104065
4.565727233886719,-1.8471492528915407,8.916888236999513,0.004445611499249935,-0.3668827116489411,-0.4405650496482849
5.1380934715271005,-1.820160746574402,8.667642593383789,0.040572427213191986,-0.39780235290527344,-0.46900478005409246
5.800683498382569,-1.1420536041259766,8.675220489501953,0.06204716116189957,-0.38370987772941595,-0.4306398630142212
5.745905399322511,-0.7358131408691406,8.939558982849123,0.060916993767023093,-0.3580591678619385,-0.35448187589645386
5.063754558563233,-1.3193233013153076,8.933716773986818,0.101665236055851,-0.3550131320953369,-0.3207343518733979
4.787469863891602,-1.7905261516571045,9.290454864501953,0.12564188241958618,-0.4674720764160156,-0.3844535648822785
5.000126361846925,-1.4263873100280762,9.48857307434082,0.11930452287197113,-0.5900112986564637,-0.4016861915588379
4.683209896087647,-1.6208102703094482,9.378109931945803,0.13015347719192505,-0.7503562569618226,-0.42950055003166204
5.139386177062988,-0.4582703709602356,10.07408332824707,0.06743770837783813,-0.9836964011192323,-0.4062637686729431
4.9736833572387695,-0.19774316251277926,10.255956649780273,-0.04619181901216507,-1.2525360584259033,-0.3147671520709992
4.34804630279541,-0.02399800717830658,10.642235755920412,-0.1361224800348282,-1.601057529449463,-0.22042737901210788
4.559911727905273,0.07128266990184784,10.803408622741701,-0.21805842220783236,-1.988630771636963,-0.12479715049266815
4.586007118225098,0.007608965039253235,10.699868202209474,-0.31245055794715887,-2.4235215187072754,-0.0065140542574226865
4.734722137451172,0.06094995141029358,10.678632736206055,-0.38919585943222046,-2.92313289642334,0.10090916603803636
4.952744007110597,-0.1568436324596405,10.820668220520021,-0.4480922818183899,-3.455299615859986,0.16633251309394836
4.904507637023926,-1.725732207298279,10.729464530944826,-0.45824441313743597,-4.14813232421875,0.0893147736787796
1.8834912776947021,-3.3873023986816406,10.897234916687013,-0.4387457668781281,-4.986197471618652,-0.10654411464929582
0.2532144784927368,-4.34744691848755,10.6477746963501,-0.23646321892738342,-6.231358528137207,-0.47953388094902044
1.6218276023864746,-3.5289332866668706,10.420125961303711,-0.06785700470209123,-7.639371871948242,-0.8159188628196717
2.377393484115601,-3.1963098049163823,10.585009574890138,0.04257066175341607,-9.182291030883789,-1.1181669235229492
2.9302136898040776,-3.1683537960052495,10.41186046600342,0.10435578227043152,-10.87813472747803,-1.4229850769042969
9.130573272705078,-3.342241525650025,12.582377433776857,-0.07043609768152238,-12.387949943542482,-1.6050214767456055
20.455987930297855,-4.98696231842041,15.660531997680664,-0.4010311663150788,-13.111228942871094,-1.6540774106979372
31.78356742858887,-3.9283125400543217,15.568665504455568,-0.45227393507957464,-12.575441360473633,-2.068798542022705
42.611835479736335,-2.1865220069885254,14.724776268005373,-0.6203666329383851,-11.105243682861328,-1.9067925214767458
37.87077713012696,-4.84821891784668,15.492106437683107,-1.421070694923401,-9.65857791900635,-1.3923869132995605
25.358819961547855,-10.445066452026367,16.44207572937012,-1.5304670333862305,-8.9220666885376,-1.596710443496704
20.22667503356934,-10.214057922363281,20.784452438354496,-1.446198344230652,-8.314342498779297,-2.107936382293701
19.700206756591797,-9.095577239990234,22.637638092041016,-1.163528084754944,-7.494967460632324,-2.3227069377899174
11.993779182434084,-6.197371006011964,18.339193344116214,-0.6239619851112367,-6.023599147796632,-2.250664234161377
34.68958282470703,-6.168177604675293,25.77794647216797,-0.4500625431537629,-4.470955848693848,-2.5401775836944585
30.82189750671387,-11.950523376464844,35.53565216064453,-0.16505785286426547,-0.5501523017883301,-2.2934675216674805
12.661752700805664,-9.391320228576662,25.425228118896484,0.47811371088027954,2.3275854587554936,-1.886930227279663
9.10153579711914,-8.819233894348146,20.843727111816406,0.95379638671875,4.22495174407959,-1.4767526388168337
5.260705947875977,-6.106193065643311,14.823689460754396,1.2244931459426882,5.273777008056641,-1.2669771909713747
0.2904998362064362,-4.634073734283448,10.35933589935303,1.1937150955200195,5.688213825225831,-1.0697089433670046
-2.4582426548004155,-3.3312118053436284,7.1136488914489755,1.0098166465759277,5.710039615631104,-0.887468695640564
-3.4197833538055424,-2.497242689132691,5.069666385650636,0.6279821395874023,5.485621452331543,-0.6778634190559388
-2.481198787689209,-1.820582985877991,4.567401885986328,0.13115192949771884,5.168015480041504,-0.4114318788051606
0.5459771156311035,-1.3566579818725586,5.9106645584106445,-0.39309948682785034,5.050287723541261,-0.08407590538263322
3.521871566772461,-1.390282392501831,7.450096130371094,-0.8985191583633423,5.296196460723878,0.2710086703300476
5.2405805587768555,-2.3482680320739746,8.651790618896484,-1.2028399705886843,5.77500867843628,0.6170376539230347
6.212214946746827,-3.5299303531646733,9.047409057617188,-1.1450679302215576,6.319432735443116,0.8547630310058594
6.481698989868164,-3.6252994537353516,8.770129203796388,-0.824534833431244,6.769608497619629,1.0056118965148926
6.794528484344483,-2.0176608562469487,8.116291999816896,-0.5598412752151489,7.068745136260987,1.1285030841827393
7.212304592132569,-0.09254547208547594,7.4340558052063,-0.5749401450157167,7.266656398773194,1.315352201461792
7.536912441253663,1.030703663825989,7.17270565032959,-0.7953883409500122,7.36879587173462,1.5429108142852783
8.306139945983888,0.9408817887306214,7.489485263824464,-1.0772095918655398,7.427678108215332,1.7537307739257812
9.056876182556154,-0.061893634498119354,8.151852607727053,-1.1928230524063113,7.486080169677734,1.887360215187073
9.848990440368654,-1.184157133102417,8.881412506103516,-1.0445719957351687,7.492424488067628,1.9151244163513184
11.210543632507326,-1.0805352926254275,9.627725601196289,-0.7362085580825806,7.4675965309143075,1.9276270866394043
12.855147361755373,0.4632925093173981,10.621493339538576,-0.5499830842018129,7.459532737731934,2.001434803009033
13.880102157592773,1.3022804260253906,11.71327018737793,-0.6101844310760498,7.482791423797608,2.0803980827331543
15.321889877319336,1.0026607513427734,13.013712882995607,-0.7026091814041138,7.460995674133301,2.1572358608245854
16.812007904052734,0.3417708575725556,14.311726570129396,-0.6842241287231445,7.3999295234680185,2.216510772705078
18.761451721191406,-0.3995249271392822,15.775089263916016,-0.5471988916397095,7.316453456878663,2.2556979656219487
20.966199874877933,-1.38057279586792,17.355022430419922,-0.30199828743934637,7.22358512878418,2.277664422988892
23.967784881591797,-2.277347326278687,18.813577651977543,0.031045526266098022,7.114439964294434,2.2585947513580327
27.827405929565433,-1.6724627017974854,19.33688735961914,0.34686654806137085,7.034411907196046,2.2232723236083984
31.58700180053711,-0.20127785205841064,18.23934555053711,0.34848296642303467,6.972578525543214,2.114754438400269
33.610485076904304,-0.8170260787010194,14.329880714416506,0.0659124106168747,6.902791500091554,1.848421573638916
33.63986587524415,-0.9633212089538574,7.459454059600831,-0.22570744156837463,6.632554054260254,1.3441182374954226
34.38218688964844,4.274033069610597,-2.7309710979461674,-0.9507206082344056,6.022281646728516,0.781006157398224
36.72011947631837,13.177541732788086,-14.201806068420412,-2.7878470420837402,5.098824977874757,0.48353388905525213
46.15727996826172,10.651208877563477,-27.240961074829105,-5.015342235565186,4.386526107788086,0.8660871386528016
42.291889190673835,0.10266202688217163,-35.294395446777344,-4.947200298309327,3.0176932811737065,1.3165569305419922
29.026144027709964,-5.421760559082031,-32.17742538452149,-2.9594264030456543,0.1603152006864548,0.8848191499710083
18.73008537292481,-4.695773601531983,-19.800537109375,-0.17613226175308228,-2.571860551834107,-0.47933909296989446
17.657733917236328,-12.441356658935547,-7.87092161178589,3.487281322479248,-5.61078691482544,-1.8251311779022217
-1.8773293495178223,4.995934009552003,5.004433631896973,4.631494998931886,-5.548015117645265,-2.8512091636657715
19.641874313354496,17.43926048278809,26.23453140258789,2.264177560806275,-5.773795127868652,-1.987666964530945
11.100617408752443,2.3122627735137944,21.667125701904297,0.3750372231006623,-5.3955183029174805,-1.6069424152374268
26.93682670593262,2.9738514423370366,13.582770347595217,0.5605794787406922,-5.364055633544922,-1.75529420375824
31.266454696655277,5.602128505706788,19.987152099609375,0.5547720193862915,-4.792899131774902,-0.9717285037040712
29.28708267211914,0.030174732208251953,20.31680679321289,0.25187957286834717,-3.6442329883575444,-0.8806133270263672
15.126363754272461,-1.5426169633865359,14.154558181762695,0.40264564752578735,-2.8095605373382573,-0.902895748615265
6.966806888580323,-2.4132721424102788,9.816102981567383,0.4777844548225403,-2.5635349750518803,-0.8698421716690063
10.134963035583498,0.7523075938224794,10.901404380798342,0.5831527709960938,-2.346376419067383,-0.9381895661354066
16.59273910522461,2.1000301837921147,15.18300533294678,0.678872048854828,-1.4674968719482422,-1.0837990045547488
8.074059486389162,-2.2621481418609624,9.930457115173342,0.8758598566055298,-0.695445477962494,-0.9926682114601136
8.408687591552734,-2.9898068904876713,10.807785987854006,0.7832497954368592,-0.6670315265655518,-0.6101604104042054
7.004523754119874,2.236632823944092,11.32389545440674,0.530514121055603,-0.38211965560913086,-0.423134058713913
6.176475524902344,0.16338971257209778,10.583595275878906,0.3029963672161103,-0.2242688536643982,-0.33637616038322454
4.439270973205566,-1.3638195991516113,10.082701683044435,0.2081468850374222,-0.17934295535087585,-0.2518790364265442
5.085097789764405,-0.8462783098220825,10.401530265808107,0.17277432978153232,-0.19191870093345642,-0.27763661742210394
5.7257657051086435,-0.8304580450057983,9.998119354248047,0.1591348648071289,-0.19445276260375977,-0.2732475101947785
5.090734004974366,-0.9367203712463379,9.637332916259766,0.1499069631099701,-0.18998955190181735,-0.26843518018722534
5.388227939605714,-0.7700371742248535,9.61921501159668,0.1508278250694275,-0.16918112337589267,-0.24094443023204806
5.329057693481445,-0.3678608536720276,9.73213005065918,0.09837277233600616,-0.16894702613353732,-0.1564394235610962
5.295679569244386,-0.3981584906578064,9.637451171875,0.006220059003680945,-0.16474108397960666,-0.07705526053905487
4.947671413421632,-0.19931495189666748,9.631171226501467,-0.09514904767274858,-0.1668255627155304,-0.001452671247534454
5.061575412750245,-0.08734877407550812,9.702685356140138,-0.19618254899978638,-0.1863314062356949,0.06818570941686632
4.885524749755859,-0.7448230981826782,9.544934272766115,-0.25046294927597046,-0.20695154368877414,0.09132549166679382
4.603748798370362,-1.129746913909912,9.307214736938477,-0.265944391489029,-0.24686358869075778,0.07740248739719391
4.713284969329835,-1.4572273492813113,9.246912956237795,-0.26365023851394653,-0.2937003672122956,0.04682701826095581
4.825037479400636,-1.3909718990325928,9.064587593078615,-0.25895756483078003,-0.31724843382835394,0.02436482720077038
4.635784626007081,-1.160299897193909,9.09371566772461,-0.2498409599065781,-0.3283708691596985,-0.011245165951550009
4.762087345123292,-1.2901012897491455,9.066873550415039,-0.22813200950622559,-0.35139715671539307,-0.05203045532107354
4.960748672485352,-1.364948034286499,9.03542709350586,-0.19249831140041354,-0.3625093698501587,-0.09426162391901018
5.006702899932862,-1.3023377656936648,9.059580802917482,-0.13889126479625705,-0.3777163028717041,-0.13623365759849548
5.24938726425171,-1.0804901123046875,8.924967765808107,-0.09737622737884521,-0.3864596784114838,-0.16297391057014465
5.184831142425538,-1.3173145055770876,8.709409713745117,-0.031073953956365585,-0.38845914602279663,-0.1900792568922043
4.9553189277648935,-1.1613243818283083,8.736385345458984,0.0163140706717968,-0.3929680287837983,-0.23013141751289368
4.425761699676515,-1.5030163526535036,9.054244995117188,0.029071830213069916,-0.43058177828788763,-0.27935966849327093
4.41552495956421,-1.270453691482544,9.27303981781006,0.046236924827098846,-0.5086860060691835,-0.3490283489227295
4.509632587432862,-1.1641573905944824,9.31204128265381,0.035980086773633964,-0.5876737236976625,-0.41139161586761475
5.158578395843507,-1.2385803461074831,9.280750274658203,0.07767990976572038,-0.6754995584487915,-0.46981987357139593
5.627185344696046,-0.7038842439651489,9.021210670471193,0.0739973932504654,-0.7289411425590516,-0.4758886396884919
5.183560371398926,-0.6334460973739624,9.182839393615724,0.06335406005382538,-0.8090789914131166,-0.4471703767776489
4.915877342224121,-0.4525150656700134,9.418536186218263,0.059150334447622306,-0.941835105419159,-0.39836543798446655
4.666564464569093,-0.5712270140647889,9.58751106262207,0.07707115262746812,-1.1239056587219238,-0.3479593694210053
4.949624538421632,-0.010349869728088379,9.757082939147951,0.06975578516721727,-1.3386650085449219,-0.2857443690299988
5.02248477935791,0.20277477800846103,9.79952144622803,0.0014912059996277094,-1.5798562765121462,-0.21377071738243103
4.734570503234863,0.013567328453063965,10.035777091979982,-0.07022391259670258,-1.8581931591033936,-0.15561826527118686
4.516082286834718,-0.19739514589309692,10.211522102355959,-0.12861315906047824,-2.213869571685791,-0.12499984353780748
4.796604156494141,-0.08452469110488892,10.257975578308107,-0.1629772186279297,-2.644767045974732,-0.07181135565042497
4.8183135986328125,0.3776581287384033,10.384140968322756,-0.24778182804584506,-3.112779140472412,-0.021788896992802623
4.624229431152344,-0.005084052681922913,10.18932628631592,-0.3197861313819885,-3.648597240447998,-0.0054954742081463346
5.056626319885254,-0.15669167041778564,10.20254135131836,-0.3049846887588501,-4.332372188568116,-0.09517368674278259
3.85114073753357,-1.4118570089340212,11.033723831176758,-0.4052502810955048,-5.007019996643066,-0.2127629816532135
1.029942870140076,-3.278732061386109,10.584252357482912,-0.32377937436103826,-5.968934059143066,-0.4621523320674897
1.717287540435791,-4.349031925201417,9.367001533508303,-0.008439791388809683,-7.342725276947022,-0.9198688268661499
3.8842382431030273,-3.0912084579467773,10.448464393615724,0.15247085690498352,-8.901339530944826,-1.1732268333435059
3.2633767127990723,-2.311667680740357,9.830909729003906,0.2962863147258759,-10.653804779052734,-1.5079751014709473
8.586928367614748,-3.1578869819641113,11.498458862304688,0.15328079462051392,-12.226407051086428,-1.7951524257659912
19.344198226928714,-4.76492738723755,14.507443428039553,-0.16947677731513977,-13.320915222167969,-1.8172539472579958
30.1800708770752,-4.312549591064453,15.64382553100586,-0.07980471849441528,-13.262619972229006,-2.0826096534729004
43.69769287109375,-0.607471227645874,14.316426277160646,0.007959123700857162,-11.605725288391115,-2.133334875106812
39.259227752685554,-3.648338794708252,12.59097194671631,-0.7724156379699707,-10.34965229034424,-1.4636471271514893
30.03482437133789,-11.83335590362549,18.373067855834964,-0.9794516563415527,-9.296852111816406,-1.7779725790023806
23.620126724243168,-7.188384056091309,19.666629791259766,-1.0026705265045166,-8.352269172668459,-1.950347661972046
21.51689910888672,-6.727999687194824,22.807273864746094,-0.6198840737342836,-7.298882484436035,-2.3731026649475098
7.893497943878175,-7.9775238037109375,15.455349922180178,0.5639350414276123,-6.483882427215577,-3.104001998901367
33.69255065917969,-4.613558769226074,21.922742843627933,0.5332878828048706,-5.708348274230957,-2.985724210739136
35.54071807861328,-8.272486686706545,36.096824645996094,0.550609827041626,-1.4635149240493777,-2.6760354042053223
16.658466339111328,-7.211813926696777,26.781812667846683,0.728868842124939,2.1473367214202885,-2.1621077060699467
14.197206497192383,-5.376934051513672,21.858200073242188,0.7069292068481445,4.721557140350343,-1.5445327758789062
8.541065216064453,-4.047994136810304,14.71522331237793,0.328444242477417,6.184825897216797,-1.049370884895325
5.83100700378418,-3.3778526782989506,10.652016639709474,-0.1232810765504837,7.069106578826905,-0.5851302146911621
3.230589628219605,-4.12410593032837,6.878719329833984,-0.3924593925476074,7.404022693634034,-0.1862476617097855
-0.869682013988495,-4.6765456199646005,3.4785115718841557,-0.4753190875053406,7.255493640899659,0.11029057204723358
-2.9206869602203374,-5.13371229171753,2.047370433807373,-0.41131570935249334,6.808470249176026,0.27000463008880615
-1.7026197910308838,-3.413222312927246,2.4647829532623295,-0.31323489546775823,6.294513702392578,0.48563185334205633
0.6785287261009217,-1.5278527736663818,4.139278411865234,-0.4488519728183747,5.954313278198242,0.8122091293334961
2.478379726409912,-0.42906105518341064,5.73456621170044,-0.7825124859809877,5.891482353210449,1.177929997444153
4.440703392028809,-0.27509111166000366,7.449509620666504,-1.0903780460357666,6.055758476257324,1.5102936029434206
6.156104564666749,-0.347209632396698,8.469894409179688,-1.255834460258484,6.374634742736816,1.7787016630172732
7.385086536407472,-0.36928433179855347,9.315070152282717,-1.2685626745224001,6.7280683517456055,1.934020757675171
9.318075180053711,0.5684393644332886,9.601016044616701,-1.2473186254501345,7.128839492797852,2.0541007518768315
9.596498489379883,1.088368058204651,9.121729850769045,-1.226826071739197,7.501027584075929,2.173961639404297
8.628299713134766,0.7895748615264893,8.354777336120607,-1.1549624204635622,7.681405067443848,2.2568290233612065
8.526741027832031,0.33035045862197876,7.722705841064453,-0.9425137042999268,7.660588741302491,2.316505670547486
8.966423034667969,0.8763898611068726,7.547062873840332,-0.6489570736885072,7.50927734375,2.39084267616272
10.326979637145998,2.08315920829773,8.481986045837404,-0.5304497480392456,7.305102348327637,2.464805364608765
12.146772384643555,2.202460289001465,10.016315460205078,-0.5466713905334473,7.14624834060669,2.505530834197998
13.676128387451172,1.6008567810058594,11.581858634948732,-0.5020502209663392,7.078670501708984,2.475222110748291
15.008920669555664,0.8015920519828797,12.954240798950195,-0.32589337229728704,7.036908149719238,2.3681943416595463
