AccX,AccY,AccZ,GyrX,GyrY,GyrZ
0.0001032794752973132,-1.2730264643323608e-05,0.00018955524137709292,1.1405162325672792e-07,-1.1615843931167548e-07,-1.9047283217332733e-07
5.034657955169679,-0.6235758066177368,9.233302116394045,0.0032621724531054497,-0.005418762098997832,-0.007676024921238422
5.050401210784913,-0.6422728300094604,9.248189926147461,0.0014738400932401419,-0.007350295316427947,-0.008638025261461737
5.040492534637452,-0.6336050033569336,9.241710662841797,0.003221644088625908,-0.0060059656389057645,-0.0078023383393883705
5.069334030151367,-0.6098467707633973,9.210076332092287,0.0002200318704126403,-0.004679074976593257,-0.007761026732623577
5.037035942077637,-0.5960500240325928,9.250120162963867,0.0008019671658985318,-0.0034836195409297943,-0.0056562875397503385
5.052814006805421,-0.6477260589599609,9.240459442138672,-0.00017992121865972877,-0.0024901188444346194,-0.005688213277608157
5.046129703521729,-0.6575177907943726,9.253646850585938,0.0001784745400073007,-0.0024428307078778744,-0.004002151545137168
5.018720149993897,-0.6569666266441346,9.261494636535646,-0.0005195789271965623,-0.004307335242629051,-0.005680379923433066
5.046124935150147,-0.6491454839706421,9.252365112304688,-0.0013995347544550896,-0.005816273856908084,-0.006289413198828697
5.030642032623292,-0.6107458472251893,9.248097419738771,-0.00262315315194428,-0.009213211014866829,-0.007688166573643684
5.053017616271973,-0.6307457685470581,9.227108001708984,-0.002169290091842413,-0.007474644575268031,-0.006753702647984028
5.061104774475098,-0.634154200553894,9.223198890686037,-0.002260064007714391,-0.00601821905001998,-0.007138421759009361
5.062905788421632,-0.6585975289344789,9.235568046569826,-0.002224384574219585,-0.005675812251865864,-0.006676527205854655
5.054713249206543,-0.6393874883651733,9.226886749267578,-0.002663382096216083,-0.002586948685348034,-0.006288227625191212
5.044952869415284,-0.6561561226844789,9.2288818359375,0.0009466547635383905,-0.0016592948231846094,-0.006863140966743232
5.033843517303468,-0.6550748348236084,9.248169898986818,0.001695133512839675,7.431874109897763e-05,-0.007781407330185176
5.032336235046387,-0.6423362493515015,9.209919929504396,0.0008940580883063377,0.0011924931313842535,-0.009515482001006605
5.017081260681152,-0.6311366558074951,9.253098487854006,-0.00047930286382325,0.0009592791320756078,-0.008663814514875412
5.024514675140382,-0.6197084188461304,9.240998268127443,0.0015998412854969501,-0.0012044083559885623,-0.008392399176955223
5.029972553253175,-0.6326805353164673,9.25889301300049,-0.0005108577897772193,-0.0026862923987209797,-0.007538545411080123
5.016317367553711,-0.6129915118217469,9.25208854675293,-0.0046658129431307325,-0.004176948219537735,-0.0074107334949076184
5.022067546844483,-0.6029649972915649,9.249124526977539,-0.005630656145513058,-0.004456860478967429,-0.005628300365060569
5.026483058929444,-0.6373763084411621,9.247001647949219,-0.007036559283733368,-0.0053327889181673535,-0.004605727270245552
5.021183013916016,-0.6533451080322266,9.224762916564943,-0.007579747587442398,-0.0076622748747467995,-0.0038000505883246665
5.015982151031495,-0.6506972312927246,9.236488342285156,-0.005202349275350571,-0.007172508630901576,-0.004331629723310471
5.010943889617921,-0.6732717752456665,9.250441551208498,-0.004857562016695739,-0.004606869071722031,-0.006321478635072708
4.991083621978761,-0.6663247346878052,9.222496986389162,-0.0032963368576020007,-0.008657321333885193,-0.007514697033911944
4.982203960418702,-0.6881921291351318,9.231887817382812,-0.0034239485394209628,-0.010050064884126188,-0.007281268015503883
4.978966236114503,-0.6591019630432129,9.251888275146484,-0.00138858228456229,-0.014625580981373787,-0.010274755768477918
5.032398223876953,-0.6433771252632142,9.25502681732178,-0.0022454028949141502,-0.016621077433228496,-0.01293440815061331
5.007467269897461,-0.6635314226150513,9.259378433227539,-0.0018160762265324593,-0.017421728000044826,-0.012370295822620392
5.031835556030273,-0.65113365650177,9.260363578796388,0.00041284930193796754,-0.01838003098964691,-0.012864098884165289
5.053049087524414,-0.6434760689735414,9.217695236206055,-0.00017323120846413076,-0.017703855410218242,-0.013982312753796577
5.063518047332765,-0.6394262313842773,9.229804039001467,0.002125821076333523,-0.015706600621342662,-0.011738914065063001
5.04136610031128,-0.6803012490272523,9.239212036132812,0.0024834622163325553,-0.012863663956522942,-0.013700879178941252
5.003735542297363,-0.6481570601463319,9.243584632873537,0.00452625285834074,-0.013447728008031845,-0.01441954728215933
5.034314632415772,-0.6373500823974609,9.244709968566896,0.0027385239955037837,-0.0145949088037014,-0.013336279429495336
5.01112174987793,-0.6487216353416444,9.25410556793213,0.002921012695878744,-0.0159203726798296,-0.014945183880627157
5.019023418426515,-0.634429156780243,9.258090019226076,0.0020648569334298377,-0.017573632299900055,-0.013448254205286505
5.006788730621339,-0.6383700966835023,9.262962341308594,0.0003389907360542566,-0.01905147545039654,-0.015237754210829735
5.065901756286621,-0.6263132095336914,9.259395599365234,0.000529691344127059,-0.01918628998100758,-0.015054792165756226
5.026097297668457,-0.6330916881561279,9.2481164932251,-0.002647229237481952,-0.018049053847789764,-0.0139685720205307
5.063671112060547,-0.6487846374511719,9.24825668334961,0.0003703342226799578,-0.017407365143299103,-0.01308990176767111
5.057170391082765,-0.6288689374923706,9.22353744506836,-0.00011327266111038625,-0.01629975438117981,-0.0129576837643981
5.052824497222901,-0.6612427234649658,9.225727081298828,0.0035087838768959045,-0.011953671462833883,-0.012156419456005096
5.014438152313233,-0.654375970363617,9.21969509124756,0.003537704469636083,-0.009650124236941338,-0.01264864206314087
5.035856246948242,-0.6386674642562866,9.24138927459717,0.005930028390139342,-0.008567404001951218,-0.011630593799054624
5.007022380828858,-0.6581429839134217,9.236104011535646,0.007069014478474856,-0.006943445187062026,-0.013891266658902168
5.00934648513794,-0.6465713381767274,9.244721412658693,0.0067273913882672795,-0.008561018854379654,-0.01633272506296635
5.042818069458008,-0.636227011680603,9.276858329772951,0.005435490049421787,-0.011744934134185316,-0.015982443466782573
5.029810428619386,-0.6260145902633667,9.25263786315918,0.00429162010550499,-0.01198131311684847,-0.016167912632226944
5.029047489166261,-0.6179274320602417,9.231491088867188,0.004911418072879314,-0.010020924732089043,-0.01448082458227873
5.022789478302003,-0.6324626207351685,9.233403205871584,0.00603766879066825,-0.011324018239974976,-0.013703712262213232
5.049318790435792,-0.6400209665298462,9.256434440612795,0.002602549735456705,-0.011893424205482008,-0.012831219471991064
5.050933837890625,-0.6089746952056885,9.245407104492188,0.0022902216296643023,-0.009501596912741661,-0.012070632539689543
5.053572177886964,-0.6327307224273682,9.244394302368164,0.0012469941284507513,-0.00928562879562378,-0.009977876208722593
5.026701927185059,-0.6520120501518251,9.224009513854982,0.002296213526278734,-0.00883202347904444,-0.010184679180383682
5.030221462249757,-0.6686725020408631,9.233588218688967,0.0036564823240041733,-0.007925168611109258,-0.011943823657929899
5.003845691680909,-0.6365556120872499,9.235968589782717,0.005200285930186511,-0.007335091941058636,-0.01363621558994055
5.010038852691651,-0.6506788134574891,9.270722389221193,0.00518802460283041,-0.008416678756475449,-0.011600791476666929
5.00855827331543,-0.6319200992584229,9.257682800292969,0.003998079337179661,-0.010578800924122335,-0.01338440552353859
5.011813163757324,-0.6200176477432251,9.27175521850586,0.00173637131229043,-0.012915992178022863,-0.01331011112779379
5.025053501129151,-0.6193060874938965,9.287297248840334,8.791776781436056e-05,-0.014239224605262281,-0.013107707723975182
5.0343523025512695,-0.6338248252868652,9.252967834472656,-0.0006993431015871466,-0.015454257838428022,-0.012368237599730492
5.028594970703125,-0.621515452861786,9.240332603454592,-0.002214541425928474,-0.016267072409391403,-0.010698745958507063
5.042527198791504,-0.6264263391494751,9.257473945617678,-0.0016739871352910995,-0.015501211397349836,-0.010740733705461027
5.05744743347168,-0.6301604509353638,9.263512611389162,-0.0013174398336559534,-0.01202839706093073,-0.009660288691520691
5.0434064865112305,-0.6412662267684937,9.257004737854006,2.2402551621780734e-05,-0.008699324913322927,-0.00961560569703579
5.031502723693848,-0.64618057012558,9.252641677856445,0.002191588515415788,-0.008001267910003662,-0.011374930851161482
5.027103900909425,-0.6630874872207642,9.2437219619751,0.0026520416140556335,-0.009318408556282522,-0.012312053702771665
5.012626647949219,-0.6369918584823608,9.257805824279787,0.002478562295436859,-0.011441738344728948,-0.012714803218841553
5.020622730255128,-0.639524281024933,9.251225471496584,0.0038812775164842606,-0.013065949082374573,-0.012572330422699453
5.021649837493897,-0.6176400184631348,9.235788345336914,0.0022055073641240597,-0.0136089650914073,-0.01375645399093628
5.00068235397339,-0.6131870150566102,9.278535842895508,0.001990645658224821,-0.015706377103924755,-0.013731270097196104
5.024255752563477,-0.6170238256454468,9.263215065002443,-0.0007068195845931768,-0.01941529102623463,-0.013246370479464531
5.0411086082458505,-0.6117317080497743,9.252464294433594,-0.002707500010728836,-0.018539849668741226,-0.013236404396593572
5.042844772338867,-0.6266505718231201,9.23258686065674,-0.004633528646081687,-0.02240990474820137,-0.010775732807815077
5.054441928863526,-0.6273271441459657,9.265769958496094,-0.0058076148852705956,-0.022398663684725765,-0.010869641788303854
5.0633606910705575,-0.6653677821159364,9.215989112854006,-0.0020595057867467403,-0.022141015157103542,-0.010827722027897835
5.066387176513672,-0.6481820940971376,9.223093986511232,0.00016846593644004318,-0.018236620351672176,-0.010044597089290619
5.057861804962159,-0.6709036827087402,9.244690895080568,0.0006743820267729462,-0.01572127267718315,-0.010944112204015257
5.039156913757324,-0.6754018068313599,9.226244926452638,0.0033819240052253012,-0.012368205934762955,-0.012762214988470078
5.055093765258789,-0.6369759440422059,9.235051155090334,0.003915539011359215,-0.009875076822936537,-0.01128590852022171
5.021371364593507,-0.6502001285552979,9.255802154541016,0.004116232972592116,-0.010936045087873937,-0.012076519429683685
5.003849506378175,-0.6129913330078125,9.275485038757326,0.002304760972037912,-0.013799550011754036,-0.01225681882351637
5.028939247131348,-0.6179002523422241,9.25913715362549,0.0011728707468137147,-0.018161706626415253,-0.012327510863542557
5.041547298431397,-0.6106334924697876,9.258658409118654,0.0011940316762775183,-0.018369542434811596,-0.014663560315966606
5.0646071434021005,-0.618466854095459,9.243800163269045,-0.0028967570979148154,-0.01733031310141087,-0.011985048651695251
5.059122085571289,-0.6302348375320435,9.250756263732912,-0.0031607719138264656,-0.01644021831452847,-0.010353820398449898
5.0311479568481445,-0.6444816589355469,9.260189056396484,-0.0011551131028681993,-0.01335729192942381,-0.010263760574162008
5.040154457092285,-0.6427004337310791,9.236146926879883,-0.0022574181202799086,-0.013837769627571106,-0.011539700441062452
5.048728942871094,-0.6272513270378114,9.217841148376467,-0.0008066531736403704,-0.0142242182046175,-0.009774866513907911
5.029518127441406,-0.6290613412857056,9.223039627075195,-0.0004384568310342729,-0.013300265185534956,-0.011338874697685242
5.038234233856202,-0.6409050226211548,9.242572784423828,-0.0008872709004208446,-0.013180735521018507,-0.011964567936956884
5.045783519744874,-0.6387298107147217,9.223191261291506,-0.0017685722559690475,-0.012091965414583685,-0.01264096237719059
5.051812171936035,-0.6360890269279481,9.230817794799805,0.00026155455270782113,-0.008622216060757637,-0.011708212085068228
5.040771484375,-0.6385232806205751,9.237398147583008,0.0023332666605710983,-0.008396319113671781,-0.01394522562623024
5.013649940490723,-0.6408016085624696,9.226620674133303,0.0019220471149310472,-0.007997801527380943,-0.013080252334475517
5.0337891578674325,-0.6281274557113647,9.235518455505373,0.0021614935249090195,-0.008662038482725622,-0.015139453113079071
5.016468048095703,-0.598867654800415,9.231992721557617,0.0025264648720622063,-0.01011340320110321,-0.014682033099234106
5.044448375701905,-0.6372729539871216,9.283940315246584,0.00100725784432143,-0.011100193485617638,-0.014575238339602949
5.037694454193116,-0.6176515817642212,9.240653991699219,0.0001792603434296325,-0.012194227427244186,-0.011948199942708015
5.053661823272706,-0.6294910907745361,9.231980323791506,-0.0017735157161951065,-0.010695298202335836,-0.011731738224625587
5.0305142402648935,-0.6229414939880371,9.229755401611328,0.00017275114078074694,-0.009484479203820229,-0.010576308704912664
5.034494876861573,-0.6585287451744081,9.224070549011232,-0.0013121995143592358,-0.00916640553623438,-0.010703913867473602
5.013472557067871,-0.5941640138626099,9.256104469299318,-0.001530938898213208,-0.009026320651173592,-0.011152755469083786
5.000641345977784,-0.7256182432174683,9.24338150024414,0.000448370905360207,-0.01148158311843872,-0.010842856951057913
5.0061993598938,-0.6263190507888794,9.25368881225586,0.002030306961387396,-0.013349557295441628,-0.013741661794483663
5.031464576721191,-0.6107054948806763,9.232023239135742,-0.0014975203666836023,-0.014476015232503416,-0.012445919215679169
5.050151348114015,-0.586909592151642,9.23205089569092,-0.00016120115469675514,-0.01882300153374672,-0.012297797948122025
5.054900169372559,-0.6505510807037354,9.240027427673342,-0.002014039317145944,-0.016418930143117905,-0.011256371624767782
5.0465288162231445,-0.6174475550651551,9.23043441772461,-0.003142988309264183,-0.014680076390504837,-0.01121713872998953
5.059776782989503,-0.6329396963119507,9.240150451660156,-0.003051521722227335,-0.01214051339775324,-0.009230492636561394
5.0466017723083505,-0.6328777074813843,9.22890377044678,-0.0010906384559348228,-0.010175371542572975,-0.00906897708773613
5.050365924835206,-0.6529123783111572,9.224486351013185,0.0008507482707500458,-0.010223031975328924,-0.009333308786153793
5.0618743896484375,-0.648631513118744,9.257309913635256,0.003389584599062801,-0.0071294507943093785,-0.01071811094880104
5.047695159912109,-0.6422258019447328,9.219059944152834,0.005904163233935833,-0.006844672840088607,-0.012440640479326248
5.00874948501587,-0.6360776424407959,9.230000495910646,0.004734829533845187,-0.007251068018376827,-0.012800345197319984
5.040598392486573,-0.6421902179718018,9.260403633117678,0.005210143048316241,-0.009595194831490517,-0.011855284683406355
5.016765594482422,-0.6168215274810791,9.250826835632326,0.004950252827256919,-0.009443988092243673,-0.014308692887425423
5.0264601707458505,-0.62964928150177,9.247378349304201,0.0018977628787979486,-0.011012572795152664,-0.011143117211759092
5.007615089416504,-0.6663799285888672,9.255657196044922,0.005967812146991492,-0.012668902054429054,-0.013283539563417435
5.061688899993897,-0.6008923053741455,9.221065521240234,0.006034851539880038,-0.012058261781930923,-0.014143235050141813
5.040966510772706,-0.5495684146881104,9.254763603210451,0.0035449501592665915,-0.010587056167423727,-0.010737268254160881
5.039719581604004,-0.6570044159889222,9.254567146301271,0.001039307680912316,-0.011440228670835495,-0.010862122289836408
5.056866168975831,-0.5971546173095703,9.257582664489748,0.00290630292147398,-0.013391745276749136,-0.010233783163130285
5.019491195678711,-0.6173328757286073,9.225344657897951,0.0019828577060252432,-0.01204088144004345,-0.011546528898179533
5.036804676055909,-0.633712649345398,9.247152328491211,0.0032112090848386288,-0.011680038645863533,-0.010722332634031774
5.022049427032472,-0.5752157568931581,9.249885559082031,-0.000896371784619987,-0.011491107754409315,-0.012345647439360619
5.041057109832765,-0.6439430117607118,9.22970485687256,-0.0012115243589505555,-0.012607082724571228,-0.009953998029232025
5.05918836593628,-0.6574801802635194,9.248051643371584,0.001153659890405834,-0.0123678520321846,-0.010901289992034437
5.053349494934082,-0.5966578125953675,9.232221603393555,0.002934205811470747,-0.01107192225754261,-0.010291849263012411
5.042167663574219,-0.6524684429168701,9.242760658264162,0.00036677555181086063,-0.009255460463464262,-0.01065603643655777
5.055738925933839,-0.6144558191299438,9.248540878295898,0.0022422154434025288,-0.006851818878203631,-0.011172058992087843
5.050427913665772,-0.6109674572944642,9.258825302124023,-0.00032167255994863814,-0.004069163464009762,-0.008252399973571302
5.060148715972901,-0.6159123182296753,9.235801696777344,0.0005295488517731428,-0.002927089110016823,-0.009949767030775549
5.062346935272218,-0.629737138748169,9.233212471008303,0.003290629712864757,-0.0006971840048208833,-0.0083033898845315
5.06260633468628,-0.6456698179244995,9.242605209350586,0.002629608381539583,0.0013773763785138728,-0.008528434671461584
5.024300575256348,-0.6473296284675599,9.245115280151367,0.005859664641320705,0.0036820175591856246,-0.007989469915628433
5.009334564208984,-0.6249749064445497,9.240891456604006,0.003650448750704527,0.0035673906095325947,-0.01194735895842314
5.002330780029297,-0.6226849555969238,9.266889572143555,0.0036355860065668826,0.0008434251649305224,-0.009669107384979727
5.060626029968262,-0.6057265996932983,9.265377044677734,0.0012287936406210067,-0.0007336146663874388,-0.008463768288493156
5.021118640899659,-0.5813096761703491,9.25573253631592,0.0011088860919699075,-0.002596050500869751,-0.009038611315190794
5.043924331665039,-0.6353977918624878,9.253178596496584,-0.0011937960516661406,-0.003800391685217619,-0.007237852085381747
5.050315380096436,-0.6177271604537964,9.259832382202148,-0.0007029885309748353,-0.0020957356318831444,-0.006934870500117541
5.008742809295655,-0.6254962682723999,9.21206283569336,-0.0010993134928867223,-0.001084059476852417,-0.005715878680348396
5.00597906112671,-0.6166893243789673,9.260616302490234,-0.0017880266532301903,-0.002104977844282985,-0.008316392078995705
5.020212173461914,-0.6199923753738403,9.224754333496094,-0.0008151759975589813,-0.004274073522537948,-0.007085827179253101
4.979159832000733,-0.6310830712318422,9.233452796936037,-0.0018264767713844776,-0.005618949886411429,-0.007592359557747841
5.02289915084839,-0.6357854604721069,9.27206802368164,-0.003171764314174652,-0.008255903609097006,-0.008068292401731016
5.028877258300781,-0.6307417750358583,9.244424819946289,-0.0002997368865180761,-0.010106140747666359,-0.008982448838651182
5.012586116790772,-0.6612707376480103,9.230418205261232,-0.003145020455121994,-0.007586561143398285,-0.009303863160312177
5.037182807922363,-0.6200580596923828,9.24187755584717,0.00023159814008977267,-0.008038068190217018,-0.010111087001860143
5.019936084747315,-0.6204973459243774,9.21596908569336,0.0018053960520774126,-0.0062443274073302754,-0.011271768249571325
5.00942325592041,-0.6328638792037964,9.25139904022217,0.0011362315854057672,-0.005282163619995117,-0.009833601303398611
5.026944637298585,-0.6343742609024048,9.251935958862305,0.0037841929588466887,-0.005561782512813807,-0.010567815974354744
5.04440975189209,-0.6321848630905151,9.251585960388185,0.004889334086328746,-0.004222644492983818,-0.010325248353183271
5.059972286224366,-0.5820488333702089,9.2437219619751,0.005756607744842769,0.00022474161232821643,-0.008877342566847801
5.035664081573487,-0.591026782989502,9.25655746459961,0.004481386858969928,0.00560785923153162,-0.01082632225006819
5.037035942077637,-0.6230053901672363,9.24799919128418,0.00745625188574195,0.007866675965487959,-0.0075052473694086075
5.027539730072022,-0.6418979167938232,9.255849838256836,0.01007520128041506,0.011524483561515808,-0.006818977650254966
5.026496410369874,-0.6613476276397705,9.254107475280763,0.010836440138518812,0.01295647956430912,-0.010326124727725983
4.980033874511719,-0.6098113059997559,9.280564308166506,0.009532595984637739,0.012158093973994255,-0.009976821951568128
4.971510410308839,-0.6168888807296753,9.283980369567873,0.011714489199221136,0.009575880132615568,-0.01216333732008934
4.939191341400147,-0.5883981585502626,9.275231361389162,0.006645151413977146,0.005578002426773311,-0.012726454064249992
4.986607551574707,-0.5631033182144165,9.301143646240234,0.002232869155704975,-0.0010926789836958053,-0.010931056924164297
5.0200042724609375,-0.5598191022872925,9.311004638671875,-0.003875266294926405,-0.006830619182437659,-0.007939022034406662
5.031945705413819,-0.5517182350158691,9.284521102905273,-0.008535435423254967,-0.009786603972315788,-0.004189837258309127
5.005390167236328,-0.6000510454177856,9.267615318298342,-0.010835297405719757,-0.010725122876465322,-0.002760970965027809
5.0324158668518075,-0.629898488521576,9.251049995422365,-0.0077627343125641355,-0.00902862660586834,-0.0012085875496268272
5.057054042816163,-0.6289431452751161,9.242444038391115,-0.005347981117665768,-0.0029143842402845625,-0.0019220300018787384
5.03620195388794,-0.6339903473854066,9.252386093139648,-0.0018232844304293394,0.003282116260379553,-0.0001374420971842483
4.956448554992676,-0.632066011428833,9.255655288696289,-0.0007798440637998284,0.004362353123724461,-0.004178523551672698
4.952245712280273,-0.6446279883384706,9.277588844299318,-0.0005792118026874961,0.0010468405671417713,-0.005550583824515343
4.987883567810059,-0.6420857906341553,9.26272964477539,-0.0012294393964111805,-0.0013252039207145574,-0.006877010688185692
4.951886177062988,-0.5890554785728456,9.272436141967773,9.353893256047742e-05,-0.005680832546204329,-0.008460385724902153
5.009749412536621,-0.6223179697990419,9.273612976074219,-0.0029280164744704966,-0.006855912506580353,-0.006367200519889594
5.0231690406799325,-0.6395605802536011,9.267149925231935,-0.0016707001486793163,-0.005717788822948933,-0.007702860049903393
5.004963397979737,-0.6654621958732606,9.268905639648438,0.0013311284128576517,-0.004222223069518805,-0.007369541563093662
5.006083011627198,-0.6138105392456055,9.265582084655763,0.0010428358800709248,-0.0020640986040234566,-0.009845851920545103
4.989599227905273,-0.6256916522979736,9.287891387939453,0.0011621019802987576,-0.0011663195909932258,-0.006187328137457371
4.977047920227051,-0.6224793791770936,9.300569534301758,-0.0016142467502504587,-0.004845853429287673,-0.007133637089282275
4.980390071868897,-0.6135615110397339,9.277314186096193,-0.0007580044330097736,-0.007036881521344185,-0.005603718105703593
4.935711860656738,-0.584307074546814,9.302712440490724,-0.0037892994005233054,-0.008665620349347593,-0.005388189107179642
4.979618072509766,-0.6830726861953735,9.243046760559084,-0.003936460707336665,-0.012269476428627968,-0.0063947909511625775
4.927884578704835,-0.6657853126525879,9.26820182800293,-0.0013125556288287046,-0.014943772926926613,-0.00990082323551178
4.960798740386964,-0.6709984540939331,9.293002128601076,-0.003292225999757648,-0.020195987075567245,-0.012850164435803892
5.013801574707031,-0.6861313581466675,9.268324851989748,-0.0009662796510383487,-0.020549803972244263,-0.015510340221226217
5.005914211273194,-0.6404545903205873,9.260124206542969,-0.00027395220240578055,-0.02300864271819592,-0.01775703951716423
4.982943058013917,-0.6391969919204712,9.288278579711914,0.0023137151729315524,-0.021794967353343964,-0.01839452236890793
5.011996746063233,-0.6235240697860718,9.285950660705568,0.0026153747458010916,-0.02401481196284294,-0.017431827262043956
5.023965358734132,-0.5587026476860047,9.260558128356935,0.0021819777321070437,-0.02217921800911427,-0.014524219557642937
4.959235191345215,-0.6081521511077881,9.264429092407227,-0.0042513939552009114,-0.022535566240549088,-0.013843351043760778
4.955118656158448,-0.6286928653717041,9.260817527770998,-0.004086936824023724,-0.028122251853346828,-0.012399788014590742
5.004314899444581,-0.6560541391372681,9.249556541442873,-0.003247357439249754,-0.027896603569388393,-0.014614814892411232
4.999685287475586,-0.6109691262245179,9.267847061157227,-0.00010847856174223125,-0.02679535374045372,-0.013351996429264547
5.008064270019531,-0.6250674724578857,9.25230121612549,-0.0021647242829203606,-0.025888668373227123,-0.012476813048124313
5.00422477722168,-0.6425585746765137,9.222437858581545,-0.0021873035002499823,-0.026165585964918137,-0.011070003733038902
5.013842105865479,-0.6156940460205078,9.245581626892092,-0.00087764480849728,-0.02402423322200775,-0.012881881557404997
5.035014629364015,-0.654866099357605,9.243123054504396,-0.0015660552307963371,-0.025133095681667328,-0.012407409958541395
5.0309295654296875,-0.6082081198692323,9.22766971588135,-0.0006193803274072708,-0.02177959680557251,-0.011106903664767744
5.057224273681641,-0.5505260229110718,9.247476577758789,-0.005413379985839129,-0.021110761910676956,-0.008834946900606155
5.0485596656799325,-0.5682244896888734,9.198735237121584,-0.005282629281282425,-0.015874272212386135,-0.0037245210260152817
5.0509657859802255,-0.4329852759838105,9.260170936584474,-0.012133582495152952,-0.015110137872397901,0.003053455613553524
4.90953254699707,-0.5897597074508667,9.281946182250977,-0.020288921892642975,-0.01723096333444119,0.00819418765604496
4.93045711517334,-0.6643732786178589,9.321586608886719,-0.024884531274437908,-0.030820555984973907,0.0055116917937994
5.058166027069093,-0.7202749252319336,9.265525817871094,-0.022922525182366375,-0.036781348288059235,0.0012328565353527667
5.044023513793945,-0.5947571396827699,9.251770973205568,-0.01991143822669983,-0.03584470599889755,0.002020497573539615
5.063631534576417,-0.6149392127990723,9.245561599731445,-0.021862862631678585,-0.03298328071832657,0.0029856285545974974
5.050249576568604,-0.6432413458824159,9.22174072265625,-0.0225118026137352,-0.030066417530179027,0.005585884209722281
5.062448501586914,-0.6877415180206299,9.222447395324709,-0.01803496479988098,-0.027402037754654888,0.002918204292654991
5.054675579071046,-0.6646060943603516,9.212015151977539,-0.014918134547770025,-0.022618973627686504,0.00075418537016958
5.076070785522461,-0.6052913665771484,9.192712783813477,-0.011874116957187653,-0.014989103190600874,0.0006718685617670417
5.086664676666261,-0.5188891291618348,9.227513313293459,-0.014372874051332474,-0.009247652254998686,0.007309907581657172
5.116474151611328,-0.4564806520938874,9.234068870544435,-0.025852551683783535,-0.005932057276368141,0.012321856804192068
5.07369327545166,-0.5487173199653627,9.28579616546631,-0.034488279372453697,-0.000875648984219879,0.015293119475245476
5.156354904174805,-0.5363825559616089,9.317865371704102,-0.039570845663547516,-0.001435341429896653,0.024291496723890305
5.201415061950684,-0.5477509498596191,9.25321674346924,-0.04727390781044961,0.008280586451292038,0.03635194152593613
5.032811164855957,-0.5178731083869935,9.064070701599123,-0.04790622368454934,0.02700170874595642,0.04510165378451348
4.427284240722656,-0.7794854640960693,9.360114097595217,-0.05597976967692376,0.00969554763287306,0.03377756476402283
4.799468040466309,-0.8651082515716553,9.408872604370117,-0.05987296998500824,-0.03315390273928643,0.025052476674318314
4.800998687744141,-0.8511213064193726,9.325956344604492,-0.06380539387464525,-0.05750908702611923,0.017667070031166077
4.895676612854004,-0.7022152543067933,9.371517181396484,-0.07250273972749711,-0.08067144453525543,0.009566663764417173
5.006897449493409,-0.6357956528663636,9.372089385986328,-0.08252209424972534,-0.09724323451519012,0.0094151021912694
5.063909530639648,-0.652117133140564,9.31954860687256,-0.09447070211172105,-0.10678958892822266,0.01542430277913809
4.892047405242921,-0.6420863270759584,9.312413215637209,-0.10515107959508897,-0.11812809109687805,0.016913339495658875
4.83671760559082,-0.481357216835022,9.43903923034668,-0.12717123329639438,-0.15154165029525757,0.020903790369629863
4.968466758728027,-0.7336935400962831,9.474976539611818,-0.15371803939342502,-0.18461991846561435,0.025480862706899643
4.780612468719483,-0.7576154470443726,9.582476615905763,-0.17508575320243835,-0.22460456192493441,0.014302391558885574
4.328876495361328,-1.0052928924560547,9.661008834838867,-0.1901366859674454,-0.300584614276886,-0.01047171838581562
4.038243770599366,-0.8883230686187744,9.97545909881592,-0.19740577042102816,-0.4207751750946045,-0.046549264341592796
3.7972936630249023,-0.9194834828376771,10.072233200073242,-0.19122004508972168,-0.6114860773086548,-0.08026862889528276
3.4952940940856934,-0.08607044816017151,10.787137031555178,-0.27164861559867864,-0.873674750328064,-0.09273365885019304
3.211974620819092,-1.2209844589233398,11.021220207214357,-0.3863242268562317,-1.2397872209548952,-0.11780939251184465
3.3262355327606206,-0.4631325602531433,11.099203109741211,-0.37082064151763916,-1.6888681650161745,-0.09002837538719177
3.451421976089478,-1.1900615692138672,11.423655509948732,-0.3818591833114624,-2.160890579223633,-0.12720440328121188
3.275524616241455,-1.3096058368682861,11.601412773132326,-0.35367655754089355,-2.655197381973267,-0.19293874502182007
3.910526514053345,-2.2555892467498784,11.632396697998047,-0.2658556997776032,-3.158216953277588,-0.29651278257369995
4.266591548919679,-2.4932703971862793,11.51393222808838,-0.1450144350528717,-3.6588132381439213,-0.44892024993896484
5.820391654968262,-3.881942987442017,12.975360870361328,0.03431303426623345,-4.162331104278565,-0.5992393493652344
5.6104092597961435,-2.7413589954376225,12.483782768249513,0.24729640781879428,-4.52183723449707,-0.7965287566184999
7.0019803047180185,-3.2547245025634766,11.873344421386719,0.3446754217147827,-4.900973796844483,-1.1202381849288943
7.873595714569093,-4.5904202461242685,11.59946060180664,0.5196844339370728,-5.068019390106202,-1.3965985774993896
9.671330451965334,-4.047580242156983,11.408900260925295,0.6203524470329286,-5.107597827911378,-1.6198146343231201
11.945033073425295,-4.2238221168518075,11.474411964416506,0.6874840259552002,-4.938398838043214,-1.7657208442687988
12.126317977905273,-2.760417222976685,9.668577194213867,0.6407182812690736,-4.6092376708984375,-1.8174715042114258
10.818326950073242,-2.945463180541992,7.314382553100586,0.5273808836936952,-4.396784782409668,-1.9653853178024294
9.843572616577148,-2.4635365009307866,8.818656921386719,0.7507436275482178,-4.064174652099609,-2.175686120986939
11.737845420837404,-1.3368229866027832,12.852078437805178,0.8109290599822998,-3.4171898365020756,-2.1314897537231445
11.13524913787842,0.2688733637332917,15.536857604980469,0.30950289964675903,-2.383713006973267,-1.8291579484939577
5.731627941131593,-0.09816107153892517,19.40555000305176,-0.6810585260391235,-0.7904602885246278,-1.3239433765411377
5.614922046661378,-1.7113643884658816,16.190919876098636,-1.3817627429962158,0.2964476943016052,-1.0332032442092898
0.5325642228126527,-6.627214908599854,15.474658966064453,-1.4558143615722656,1.2913585901260378,-0.8628307580947876
-4.166643142700195,-7.088987350463867,11.037389755249023,-0.8288888335227967,1.687040090560913,-0.812814474105835
-5.30465030670166,-5.33995246887207,10.082156181335451,-0.2586832940578461,1.7534842491149902,-0.7126789689064027
-5.145510196685792,-3.0874187946319585,9.882859230041506,-0.1610237956047058,1.802354097366333,-0.49426880478858953
-4.7693986892700195,-2.217854738235474,10.325797080993654,-0.42051628232002264,1.9125173091888428,-0.22164134681224826
-3.9792513847351074,-2.5878043174743652,11.002677917480469,-0.7678114771842958,2.0750908851623535,0.059409722685813904
-3.0409009456634526,-3.709756851196289,11.672466278076172,-0.961722731590271,2.2974436283111577,0.3258284330368042
-2.2435395717620854,-4.0281386375427255,12.377928733825685,-0.9362754821777344,2.54854154586792,0.5779096484184266
-1.4941934347152712,-3.667660474777222,12.909107208251953,-0.8354132175445557,2.8084981441497807,0.8343892097473145
-0.49004244804382324,-3.0308344364166264,13.341258049011232,-0.7370659112930298,3.055343389511109,1.0951079130172732
0.6852447390556337,-2.434423208236695,13.616273880004883,-0.6544598340988159,3.309557676315308,1.3562417030334473
1.6030728816986084,-1.8773065805435183,13.602623939514162,-0.5577445626258851,3.5399663448333745,1.5837574005126953
2.6943104267120366,-1.1629251241683962,13.634920120239258,-0.4735361933708191,3.722028017044068,1.7663278579711914
3.942217111587525,-0.6827449798583984,13.702147483825685,-0.4098376333713532,3.8710007667541504,1.8985073566436768
5.324349880218507,-0.42264935374259954,13.79465103149414,-0.34083884954452515,4.008691310882569,1.9755403995513916
6.405548572540284,-0.22752487659454346,13.723822593688967,-0.2576418817043305,4.132350444793702,1.988516092300415
7.282808303833008,0.040824711322784424,13.549153327941896,-0.18979626893997192,4.217065334320069,1.9352166652679443
7.970824718475343,0.23348209261894226,13.34112548828125,-0.18065609037876132,4.265044212341309,1.82220458984375
8.474702835083008,0.3353951275348664,13.06130599975586,-0.2376703917980194,4.25137758255005,1.6909730434417725
8.925133705139162,-0.027789562940597534,12.846702575683594,-0.32972049713134766,4.1761369705200195,1.5489310026168825
9.749365806579592,-0.5898877382278442,12.78783702850342,-0.4067825675010681,4.052373409271241,1.4168987274169922
10.629255294799805,-1.2344143390655518,12.715423583984375,-0.4315851032733918,3.9101572036743164,1.303384780883789
11.801218986511232,-1.7224595546722412,12.674930572509766,-0.41217637062072754,3.77658486366272,1.2116456031799316
13.335219383239748,-2.090517520904541,12.533613204956055,-0.3875575959682465,3.666604280471802,1.1732094287872314
14.880216598510742,-2.056600570678711,12.113123893737795,-0.3853153288364411,3.628148078918457,1.235840678215027
15.896955490112305,-1.7513759136199951,11.448740005493164,-0.4296460747718811,3.634137868881226,1.3847368955612185
16.527414321899418,-1.5098414421081543,10.117307662963867,-0.49968498945236206,3.6328132152557377,1.583620548248291
16.35251045227051,-1.259784817695618,7.752442359924316,-0.49637556076049805,3.5441179275512695,1.7487317323684695
16.167266845703125,-0.6473352909088135,5.2872514724731445,-0.4222087860107422,3.298497915267945,1.84672212600708
15.990354537963867,-0.32397070527076727,2.718747138977051,-0.29603549838066107,2.908909320831299,1.876781940460205
15.512046813964844,0.5407962203025819,-0.008406952023506165,-0.11485426127910614,2.387945890426636,1.7957422733306885
15.710888862609865,2.6678223609924316,-1.9700502157211306,-0.05714045092463494,1.7952667474746706,1.617504358291626
17.020448684692386,5.413701057434082,-3.6875169277191167,-0.3142040967941284,1.2167211771011355,1.4352407455444336
18.535919189453125,4.122905731201172,-5.419401645660401,-0.6310045719146729,0.6832427382469178,1.237570643424988
18.443048477172855,2.301707983016968,-7.031650066375733,-0.5054545402526855,0.08865176886320116,0.8770022392272949
17.62472724914551,2.5984170436859135,-7.050685882568359,-0.19821955263614657,-0.5935478806495668,0.44537001848220825
12.250099182128906,1.8939448595047,-3.975561380386353,-0.03972504287958145,-1.305035471916199,0.061100125312805176
3.142999887466431,-2.438002586364746,-0.009536907076835632,0.983927845954895,-2.929022073745728,-0.29168924689292913
-5.064916133880616,5.396952152252198,11.361742973327638,0.811701774597168,-3.6247231960296635,-0.49881821870803833
6.203766822814941,1.2097513675689697,20.627950668334964,0.1586672514677048,-3.3491652011871342,-0.916890025138855
5.195116519927979,-7.029808044433594,12.657548904418945,0.385849803686142,-3.287717342376709,-1.553195357322693
8.571561813354492,-3.908186435699463,8.209658622741701,0.6130009293556214,-3.2903242111206055,-1.5965204238891602
10.927586555480959,-2.6484551429748535,10.536584854125977,0.4108867049217224,-3.258278608322144,-0.9358388185501099
14.369490623474123,-3.258766889572144,14.88575077056885,0.4749688804149628,-3.0476758480072026,-0.4842146635055542
14.61988925933838,0.4470259249210358,14.601957321166992,0.5538462400436401,-2.547427892684937,-0.5383837223052979
10.774837493896484,1.7470111846923828,11.980037689208984,0.3560572564601899,-2.1933846473693848,-0.4597841501235962
9.026431083679201,0.17331433296203613,11.613078117370607,0.1321822702884674,-1.959663271903992,-0.3870031237602234
8.235626220703125,-1.4567949771881104,11.959728240966797,0.14163060486316684,-1.6987603902816775,-0.39266127347946167
8.78663730621338,-2.34855318069458,11.608528137207031,0.2685135900974274,-1.44443941116333,-0.4354059994220734
9.597636222839357,-2.558154582977295,11.724111557006836,0.29333254694938665,-1.086531162261963,-0.4313972592353821
9.42185688018799,-0.3140355348587036,11.90043830871582,0.33704763650894165,-0.5839944481849672,-0.4029778838157654
5.397247791290284,0.054161205887794495,10.042581558227539,0.39813831448555,-0.3623641431331635,-0.394365131855011
5.710330963134766,-0.7158371210098267,10.063027381896974,0.3682503998279572,-0.31350862979888916,-0.4054399430751801
6.016961574554444,-1.6200370788574219,9.908214569091797,0.3598667681217194,-0.230739563703537,-0.3231735825538635
5.550955772399902,-0.2904503345489502,10.045495986938477,0.33331635594367987,-0.16521212458610535,-0.2467165440320969
4.832782745361328,-0.16082435846328735,10.14922618865967,0.25809913873672485,-0.135885089635849,-0.22525866329669955
4.879186153411866,-0.8273676633834839,9.837705612182617,0.21531113982200623,-0.1336929649114609,-0.20361775159835815
4.818341732025147,-0.42783781886100775,9.646577835083008,0.16969016194343567,-0.12698601186275485,-0.1593514829874039
3.4863195419311523,-0.4337316155433655,9.423709869384766,0.06810647994279863,-0.191554456949234,-0.11325178295373918
4.445765972137452,-0.39619874954223633,9.843212127685547,-0.027378905564546585,-0.2758899927139282,-0.10709450393915178
5.110615253448487,0.11609575152397156,9.727880477905273,-0.10995596647262573,-0.27916249632835394,-0.043861016631126404
4.614753723144531,0.2926446795463562,9.77098274230957,-0.2416634112596512,-0.25756406784057617,0.04179900139570236
4.9822540283203125,-0.4231404662132263,9.781924247741701,-0.3149095475673676,-0.30590879917144775,0.036761064082384116
5.080375194549561,-1.2098236083984375,9.52077865600586,-0.3484078943729401,-0.3231994807720185,0.04781997203826904
5.152621746063233,-1.9776771068572998,9.12602424621582,-0.3066519498825073,-0.32654801011085516,0.02041536569595337
5.340705871582031,-2.3051304817199707,8.87239170074463,-0.21449024975299838,-0.28753983974456787,0.017449919134378433
5.410503864288331,-1.2736570835113525,9.016185760498047,-0.1548563539981842,-0.2298661917448044,0.01288551464676857
5.417335510253906,-1.4127585887908936,8.964327812194826,-0.10835095494985582,-0.1728891581296921,0.01398778147995472
5.179630756378175,-1.2021709680557253,9.174453735351562,-0.05798832699656487,-0.13161513209342957,0.0114894500002265
5.031093597412109,-1.0832933187484743,9.21607303619385,-0.04184973984956741,-0.10542739182710649,0.006098229903727771
4.8112382888793945,-1.2267389297485352,9.281287193298342,-0.03630157187581063,-0.11135093867778778,-0.0010792292887344959
5.024168968200684,-1.154741406440735,9.221421241760256,-0.025641622021794323,-0.1189347878098488,-0.01646503433585167
4.864454746246339,-1.1072736978530886,9.108901023864748,-0.024550773203372955,-0.11517512053251268,-0.028934847563505173
4.7042388916015625,-1.3645339012145996,9.159212112426758,-0.024616254493594173,-0.1305302381515503,-0.04896818846464157
4.896893501281738,-1.432013750076294,9.122577667236328,0.0007870947010815144,-0.14032365381717685,-0.07739278674125671
4.853391647338867,-1.502756118774414,9.040499687194826,0.026610372588038448,-0.13223676383495334,-0.11004319787025452
4.787114620208741,-0.9613830447196962,9.26547145843506,0.02762952819466591,-0.14653395116329196,-0.12265144288539886
5.098913192749023,-0.8475593924522401,9.32546901702881,-0.0009224546374753118,-0.16450856626033786,-0.11318009346723558
4.823935508728027,-1.1618884801864626,9.176292419433594,-0.027759833261370662,-0.17056480050086975,-0.1209632381796837
4.7673611640930185,-1.0915266275405886,9.341128349304201,-0.03196830302476883,-0.19968661665916443,-0.13633309304714206
4.796607494354249,-0.9475719928741455,9.396533012390138,-0.05156277120113373,-0.232912614941597,-0.14788183569908142
4.72179937362671,-0.9147016406059266,9.38307285308838,-0.0853225588798523,-0.2656014263629914,-0.16480664908885959
4.705213069915772,-0.6041109561920166,9.569576263427734,-0.12987662851810458,-0.319851815700531,-0.18152289092540744
4.836844921112061,-0.406258225440979,9.603596687316896,-0.19429235160350802,-0.4170362055301667,-0.17286232113838196
4.2216534614563,-1.2850719690322878,9.617147445678711,-0.2018347680568695,-0.5465045571327211,-0.22279414534568787
4.563864707946777,-1.4394993782043457,9.560916900634766,-0.18699225783348083,-0.6956185698509217,-0.28401133418083196
4.76763677597046,-0.6913892030715942,9.77171039581299,-0.21354128420352939,-0.8545695543289185,-0.3006525337696076
4.635162353515625,-0.43223267793655396,9.719969749450685,-0.22459006309509277,-1.0555453300476074,-0.2632622420787812
4.391663074493409,-0.5436466932296753,9.835906982421875,-0.21335813403129578,-1.2863014936447146,-0.20821169018745422
4.133373260498047,-0.6771640777587891,9.895559310913086,-0.22384034097194674,-1.5641274452209473,-0.17379090189933777
4.191255569458008,-0.9072496891021729,10.060395240783693,-0.21181835234165194,-1.8684160709381104,-0.15993247926235202
4.680737018585206,-0.497139573097229,10.062309265136719,-0.21747952699661255,-2.1800308227539062,-0.14861311018466952
4.926250457763672,-0.317441076040268,9.966529846191406,-0.27301084995269775,-2.4867465496063237,-0.11995092034339905
5.01763677597046,-0.16834402084350586,9.945858955383303,-0.35810276865959173,-2.811440944671631,-0.09429909288883209
5.224038124084473,-0.6618919372558594,9.811770439147951,-0.43502891063690186,-3.1675117015838627,-0.10899169743061066
4.583942413330078,-1.662600636482239,9.936168670654297,-0.4743340909481049,-3.575668573379517,-0.15753546357154846
3.8818631172180176,-2.2330689430236816,9.956645965576172,-0.45871788263320923,-4.178520679473878,-0.2503184676170349
3.2618105411529545,-2.574061393737793,9.901300430297852,-0.40111264586448675,-4.84715461730957,-0.37549299001693726
2.858919620513916,-3.369741439819336,9.577504158020021,-0.1124153733253479,-5.867322444915772,-0.628515362739563
3.7570762634277344,-3.726508140563965,10.199770927429201,0.17690807580947876,-7.083230018615723,-0.8322119116783143
4.804408073425293,-4.184868812561035,10.644566535949709,0.37532615661621094,-8.364291191101076,-1.0539789199829102
5.429681777954102,-2.362736701965332,10.465909004211428,0.39571720361709595,-9.620104789733888,-1.3391758203506472
10.727757453918459,-4.04505729675293,12.21306037902832,0.17504520714282992,-10.616781234741211,-1.645923733711243
17.79125213623047,-3.4890072345733647,13.69018077850342,-0.06018846109509469,-11.084544181823732,-1.7489912509918213
28.015386581420902,-0.3219054341316223,13.832357406616211,-0.3874551951885224,-10.744682312011719,-1.625575661659241
35.09618759155274,-4.333072185516358,13.86635494232178,-0.6782985925674438,-9.749426841735842,-1.427148222923279
33.14569854736328,-7.452370166778565,13.419668197631836,-0.9602967500686646,-8.56690311431885,-1.1667540073394775
20.159044265747074,-6.062156200408936,12.731062889099123,-1.1036161184310915,-7.962756633758546,-1.412916898727417
17.29757118225098,-5.325402736663819,14.425755500793459,-1.237992525100708,-7.853414058685304,-1.8797504901885986
17.161905288696293,-5.389935493469238,20.21884536743164,-1.446319818496704,-7.082827091217042,-1.709121346473694
13.572078704833984,-5.167531967163086,18.762439727783203,-1.403576374053955,-5.8151259422302255,-1.738750696182251
12.316988945007326,-5.765038967132569,13.953653335571289,-0.6037031412124634,-4.803339004516602,-2.279006719589234
34.64558410644531,-8.456032752990724,27.665603637695312,0.0766967460513115,-2.2269396781921387,-2.5982596874237065
17.804027557373047,-4.591147422790527,26.00320053100586,0.07302621752023698,0.9871035814285278,-1.9437918663024902
11.093177795410156,-5.03619384765625,19.53469276428223,0.10305878520011902,3.06940245628357,-1.5409884452819824
7.4546780586242685,-4.1856446266174325,14.394154548645021,-0.012493382208049299,4.435876369476319,-1.04548978805542
2.3014464378356934,-3.2401905059814453,9.306725502014162,-0.13529653847217563,4.980955123901367,-0.6790290474891664
-1.1470056772232058,-3.334657669067383,6.210499286651612,-0.29468971490859985,5.074732303619386,-0.37087360024452215
-2.562034368515015,-3.379271268844605,4.342598915100098,-0.3886216878890991,4.91084909439087,-0.121424600481987
-2.7440826892852788,-2.6790432929992676,3.6770040988922124,-0.43999040126800537,4.649367332458496,0.19767870008945468
-2.0467796325683594,-2.2834014892578125,4.315262317657472,-0.533825159072876,4.443384647369386,0.5756624937057495
-0.5983915925025941,-2.215705394744873,5.506716728210449,-0.5821155905723573,4.3901567459106445,0.9582498073577881
1.251448154449463,-1.8639445304870605,6.993650913238526,-0.5748030543327333,4.534873008728027,1.3247023820877077
3.492475986480713,-1.997176170349121,8.406490325927734,-0.48707759380340576,4.910892486572266,1.6209672689437868
5.406950950622559,-1.976200819015503,9.40115737915039,-0.2977500557899475,5.44795846939087,1.8179724216461182
6.057956218719483,-1.2210180759429932,9.248875617980959,-0.08998646587133409,5.979255676269531,1.9336180686950684
5.8140869140625,-0.21948899328708651,8.467151641845703,0.03949083387851715,6.378223896026612,2.055408000946045
5.458643913269043,0.5131155252456665,7.568413257598878,0.0645689442753792,6.594749927520753,2.168367385864258
5.806901454925538,1.0377739667892458,7.129133701324464,0.03278263285756112,6.639697074890137,2.2528846263885502
6.7563018798828125,1.1765929460525515,7.535269260406495,-0.013531793840229513,6.615730285644531,2.245283603668213
7.658080101013184,1.4365433454513552,8.371743202209474,-0.044048983603715904,6.58001708984375,2.1387498378753667
8.491165161132812,1.8460137844085693,9.376161575317383,-0.08512572199106218,6.544996738433839,1.9777207374572754
9.397537231445312,2.152510643005371,10.466723442077638,-0.13766594231128695,6.526805877685547,1.8053168058395388
10.219388961791992,2.046112060546875,11.52219009399414,-0.1793634742498398,6.523627281188965,1.6364967823028564
11.038772583007812,1.4182764291763308,12.423513412475586,-0.1352452784776688,6.510659217834473,1.481418013572693
11.889422416687013,0.7817541360855103,13.252443313598633,0.012957761995494367,6.455528736114503,1.3604397773742676
13.352147102355959,0.49076998233795166,14.275922775268555,0.18146066367626193,6.345934867858887,1.290807604789734
15.338727951049805,-0.03678521513938904,15.383511543273928,0.33870491385459905,6.255480766296387,1.2349298000335693
17.353221893310547,-0.3854592442512512,16.558055877685547,0.47727122902870184,6.17546272277832,1.1696187257766726
19.883619308471683,-0.8576481342315674,18.02525901794434,0.5537967681884766,6.110823631286621,1.1000877618789675
23.017192840576172,-1.7809468507766726,19.248741149902344,0.5917100310325624,6.100846290588379,1.0356162786483767
25.95833778381348,-2.412167310714722,18.925916671752933,0.6136890649795532,6.125709056854249,0.9893698096275331
29.12870597839356,-2.2026686668395996,17.15678977966309,0.42106387019157415,6.127240180969238,0.9638729691505433
31.720769882202152,-2.4175539016723633,13.771059989929201,-0.05056260526180267,6.138758659362793,0.9554789662361146
31.01131820678711,-1.891580581665039,8.614185333251953,-0.6627287268638612,6.033797264099121,0.8775212168693544
30.576446533203125,5.098748207092285,0.7350587844848633,-1.694592356681824,5.678515434265137,0.9132107496261597
30.18599128723145,10.83135986328125,-8.408724784851076,-3.5170829296112065,5.092517852783203,1.2804037332534792
33.70321273803712,6.539214611053468,-19.162576675415043,-4.791253089904785,4.396455764770508,1.9840224981307986
36.844146728515625,-4.756716728210449,-27.38839340209961,-3.685333728790283,3.1580603122711186,2.4014434814453125
28.922620773315433,-6.276400089263917,-27.772628784179688,-0.9104395508766175,1.0018436908721924,1.982405185699463
18.152288436889652,0.5109066963195801,-21.027637481689453,1.3614996671676638,-1.3629403114318848,0.8188701272010804
18.031604766845703,6.186715602874757,-10.598154067993164,1.931692957878113,-2.927517652511597,-0.49242424964904785
15.495509147644045,9.249855041503906,0.6369786262512207,1.1256825923919678,-4.553334712982179,-1.704887866973877
-3.8027114868164062,-4.134531021118164,5.750842571258546,1.1537591218948366,-4.234587669372559,-2.29263973236084
12.636064529418945,1.6547971963882449,19.172037124633793,0.8894920349121094,-4.703781604766847,-2.9577555656433105
7.294395446777344,-7.503142833709718,16.711366653442386,-0.12420271337032318,-4.422676086425781,-2.130867242813111
16.31042289733887,-13.267466545104982,10.928146362304688,-0.012605017051100731,-4.615704059600831,-1.2935833930969238
23.393692016601562,-3.860181093215943,15.693527221679688,0.2092213481664658,-4.351927757263184,-0.30765432119369507
27.12987518310547,1.7246642112731934,19.20754623413086,0.045919563621282584,-3.4514646530151367,0.03716598823666573
18.85387229919434,5.411519527435304,16.599550247192386,0.1019825115799904,-2.639614343643189,-0.606655478477478
12.020316123962404,-1.225182890892029,12.677358627319336,0.015126288868486883,-2.0487208366394043,-0.6701925396919252
8.23409652709961,-4.206520080566406,10.659289360046388,0.11232247203588487,-1.7529807090759277,-0.5174645185470581
9.61410140991211,-2.1249721050262456,10.767130851745607,0.285461574792862,-1.509425401687622,-0.4798847138881684
10.925689697265625,0.11700960993766785,11.54933261871338,0.332474946975708,-1.002312421798706,-0.45426890254020696
7.34481143951416,-1.1981253623962402,10.016340255737305,0.36226147413253784,-0.5924019217491151,-0.4072813391685486
6.789058685302734,-3.081103801727295,10.048088073730469,0.33812388777732855,-0.4091442823410034,-0.29098814725875854
5.867683410644531,-0.8164968490600586,10.069499969482422,0.3056042790412903,-0.2618359029293061,-0.20714542269706726
3.8496079444885254,-0.7939000725746156,9.604631423950195,0.24603565037250522,-0.2426448315382004,-0.1443461775779724
4.67548418045044,-1.260157585144043,10.04183101654053,0.06563100963830949,-0.2994340658187866,-0.14395724236965182
5.083159923553468,-0.7583210468292236,10.042416572570803,-0.0031616087071597576,-0.2899236381053925,-0.11702338606119157
4.60389280319214,-1.2613774538040163,9.78719711303711,-0.007030320353806019,-0.32864674925804144,-0.1305485963821411
4.778535842895508,-1.0723642110824587,9.480186462402344,0.0011746670352295043,-0.362915188074112,-0.15121755003929138
5.140594005584718,-0.915974497795105,10.049117088317873,-0.0019837205763906245,-0.372752845287323,-0.14271973073482516
5.456212043762207,-1.7566375732421875,9.526944160461428,-0.010700119659304619,-0.35200962424278265,-0.12377730756998064
5.417228698730469,-1.7987765073776247,9.241429328918459,-0.017980491742491726,-0.32038766145706177,-0.07493556290864946
5.5248003005981445,-1.223252773284912,9.354562759399414,-0.02555388025939465,-0.2652843892574311,-0.060655295848846436
5.375949382781983,-1.5626689195632937,9.20789432525635,-0.04002247750759125,-0.20276777446269992,-0.03976085036993027
5.224515914916992,-1.8520548343658447,9.04301166534424,-0.0390925407409668,-0.16407187283039096,-0.02239506877958775
5.172121524810792,-1.865502119064331,8.99363422393799,-0.023619484156370163,-0.14265926182270053,-0.029860176146030426
5.269000530242921,-1.6712207794189453,8.91494655609131,0.013856789097189903,-0.12000080943107605,-0.04241566732525826
5.198046684265137,-1.9859069585800173,8.74324131011963,0.11119848489761353,-0.09967742115259172,-0.07388126850128174
5.543900966644288,-1.8220934867858887,8.789629936218263,0.19387444853782654,-0.061177190393209464,-0.09863413125276567
5.634961128234863,-1.3220072984695437,8.72471332550049,0.2340351641178131,0.013399966992437841,-0.10204654932022095
4.367314338684082,-1.674640774726868,8.52259922027588,0.25428947806358343,0.09629177302122117,-0.11596894264221191
3.1590058803558354,-2.5242264270782475,9.170970916748047,0.21749432384967807,-0.003756074234843254,-0.14226712286472323
4.707327365875245,-1.4196716547012331,9.713932991027834,0.16847413778305054,-0.10706917196512224,-0.17659865319728854
4.632072448730469,-1.6716511249542236,9.326068878173828,0.1429572552442551,-0.14098307490348816,-0.21010507643222812
5.272365570068359,-0.6709240078926088,9.409708976745607,0.10929049551486969,-0.16658049821853638,-0.2120367139577866
5.428764820098878,-0.6843130588531494,9.316054344177248,0.06734929233789445,-0.14861848950386047,-0.18243648111820224
5.18476152420044,-1.0249459743499756,9.12999153137207,0.03783040121197701,-0.13319364190101624,-0.16460692882537842
5.1562819480896005,-1.0875720977783203,9.102808952331545,0.025246091187000275,-0.12603674829006198,-0.16796481609344482
4.86591386795044,-1.4004048109054568,8.939267158508303,0.04329711571335793,-0.10537526756525041,-0.19330784678459167
4.37685251235962,-2.244320869445801,8.742198944091797,0.14207208156585693,-0.09001409262418748,-0.3108123540878296
4.604370594024659,-2.1010451316833496,8.764755249023438,0.21843895316123962,-0.09688378125429155,-0.3908423483371735
5.255991458892823,-0.7438772916793823,9.119438171386719,0.22049893438816073,-0.09843997657299042,-0.3921175301074982
4.576753616333008,-1.8408745527267458,9.04510021209717,0.20847497880458835,-0.08125757426023485,-0.4038184881210327
4.289823055267335,-1.5895614624023438,9.390006065368654,0.2100563943386078,-0.11024906486272813,-0.4663366675376892
4.906529426574707,-0.6341214776039125,9.71961784362793,0.1641894280910492,-0.17774684727191928,-0.4975062310695649
4.907283306121827,-1.1328644752502441,9.49331569671631,0.10535770654678345,-0.27149626612663275,-0.4923684000968933
4.977713584899902,0.2372998595237732,9.93740463256836,0.014357969164848328,-0.40751659870147705,-0.4587389528751374
5.392776012420655,0.34258967638015747,9.964158058166506,-0.10239924490451813,-0.562027394771576,-0.37385082244873047
5.248690128326417,0.0606926828622818,9.767423629760742,-0.21844983100891113,-0.7053487896919252,-0.29615810513496404
4.890043258666992,0.12215186655521393,9.766252517700195,-0.33547195792198187,-0.866822361946106,-0.25563749670982366
4.8705763816833505,0.27187472581863403,9.735701560974123,-0.42394807934761053,-1.0453370809555056,-0.18181517720222473
4.324648857116699,0.447335422039032,10.018160820007326,-0.5122007727622987,-1.2851531505584717,-0.05904262140393258
3.981926441192627,-0.07930384576320648,10.144542694091797,-0.5660033226013184,-1.5940502882003786,0.03560462966561318
4.3603410720825195,-0.013256311416625977,10.129055976867678,-0.6336585879325868,-1.9316370487213135,0.09032060950994493
4.913298606872559,0.27163147926330566,9.9455041885376,-0.7129268050193788,-2.265846490859986,0.17464658617973328
4.926884174346925,0.00780940055847168,9.854774475097656,-0.7867035865783691,-2.598997831344605,0.2576843500137329
4.727737903594972,-0.2152858525514603,9.915226936340334,-0.8410007357597352,-3.010251522064209,0.32860034704208374
4.6356778144836435,-0.8990927934646606,9.757870674133303,-0.8702495694160463,-3.5074849128723145,0.29803153872489935
3.787533521652222,-2.3653495311737065,9.947941780090334,-0.8880060911178589,-4.07399845123291,0.1944578438997269
2.2660322189331055,-3.7527546882629395,9.633304595947266,-0.7705628871917725,-4.894062519073487,0.01493903249502182
2.37882137298584,-4.105997085571289,9.753301620483398,-0.5788537263870239,-5.960870265960694,-0.1787809878587723
3.2412579059600835,-3.722816705703736,10.282471656799318,-0.4527817368507385,-7.220245838165284,-0.3304847478866577
3.2172775268554688,-4.139836788177491,10.826739311218263,-0.39100396633148193,-8.606481552124023,-0.5558462738990785
5.314497947692871,-5.898149967193604,11.311408042907717,-0.3080903589725495,-9.874673843383789,-0.8758137822151185
9.918040275573732,-5.7133684158325195,13.615909576416016,-0.4170701503753662,-10.89280414581299,-1.271811127662659
16.79700469970703,-5.990029335021973,14.14668083190918,-0.5460820198059082,-11.257546424865724,-1.749342918395996
27.352012634277344,-6.1914567947387695,13.584208488464357,-0.15915815532207492,-11.092211723327638,-2.2880353927612305
34.988475799560554,-2.148773193359375,14.19677257537842,-0.04979898408055306,-9.977506637573242,-2.215941190719605
30.79472923278809,-4.351179599761964,13.05471706390381,-0.827365517616272,-8.86903476715088,-1.6948679685592654
23.362751007080078,-10.130989074707031,12.207140922546388,-0.7766036987304688,-8.410582542419435,-1.9158179759979248
19.2708740234375,-6.233188629150391,15.067655563354492,-0.7863908410072328,-8.063813209533693,-1.9907853603363037
18.097055435180668,-7.130086898803711,20.569026947021484,-0.9314152598381044,-7.156455039978027,-1.9575923681259157
12.095160484313967,-5.892400264739991,17.55833244323731,-0.9722352623939515,-6.108064651489258,-1.8854479789733887
9.117534637451172,-2.600366353988648,12.771011352539062,-0.4215109944343567,-5.409391880035401,-2.3272852897644043
35.28129196166993,-7.58400821685791,25.39254188537598,0.08325090259313585,-3.372092485427857,-2.9470038414001465
21.24734687805176,-6.722770214080811,27.709112167358402,0.2367675751447678,0.10330832004547119,-2.370766878128052
12.626335144042969,-7.019743442535401,20.9336109161377,0.63604736328125,2.6028954982757573,-1.975833058357239
9.307778358459474,-6.50251054763794,16.08503913879395,0.8839616775512695,4.463765621185304,-1.5400478839874268
6.112925052642823,-4.671991348266602,11.243956565856935,1.034123778343201,5.482647418975831,-1.3475940227508545
2.1025717258453374,-3.817539691925049,7.514882564544679,0.9768745303153993,5.91793155670166,-1.1671930551528933
-1.140091896057129,-3.1667323112487793,4.3303284645080575,0.7712402939796449,5.94322395324707,-1.0033519268035889
-3.127257585525513,-3.3941750526428223,2.3873844146728516,0.5250670313835145,5.709911346435547,-0.8579941391944886
-3.457613945007324,-3.411839485168457,1.994621992111206,0.36696749925613403,5.293787956237793,-0.7215552926063539
-1.844306826591492,-3.2684497833251953,2.7031409740448002,0.24868202209472656,4.933178424835206,-0.5043708086013794
0.49881458282470703,-3.4960024356842045,4.4295411109924325,0.1123894825577736,4.8356475830078125,-0.25788170099258423
2.3091599941253667,-3.821797609329224,5.907254219055176,0.03517916798591614,4.9854187965393075,-0.0013309791684150696
4.159499645233155,-3.912353992462158,7.230173587799073,0.035693969577550895,5.322227954864503,0.2953033447265625
5.691824913024902,-3.7035567760467534,7.886579513549805,0.041442316025495536,5.771587371826172,0.5904611945152284
6.6962294578552255,-3.322089195251465,7.84113883972168,0.0025797744747251277,6.217526435852051,0.8832207918167114
6.881520748138429,-3.467401266098023,7.266056537628175,-0.03663785010576248,6.571673870086671,1.1413636207580566
7.3174099922180185,-3.533417224884033,6.835931777954102,-0.015692917630076412,6.758517742156983,1.3853275775909424
7.873369216918945,-3.363405227661133,6.5548157691955575,0.05934106558561325,6.819853305816651,1.6076710224151611
8.946568489074709,-3.0260550975799565,6.736431598663331,0.13332973420619967,6.830389976501465,1.788045883178711
10.345368385314943,-2.5118041038513184,7.177139759063722,0.18244425952434543,6.8047990798950195,1.9498900175094607
11.5893030166626,-1.6455106735229492,7.920807361602784,0.08238206803798676,6.752922058105469,2.1146008968353276
12.675558090209961,-2.3626992702484135,8.850265502929688,-0.005483318585902453,6.678828239440918,2.2285950183868413
13.951614379882812,-3.3026053905487065,10.039983749389648,0.0840752199292183,6.578333854675293,2.2682366371154785
14.811487197875977,-3.743595600128174,11.193358421325685,0.29944318532943726,6.471095561981202,2.2504563331604004
15.768014907836914,-3.8427145481109624,12.202263832092287,0.505821943283081,6.3591413497924805,2.1905257701873784
17.34854507446289,-3.8428287506103516,13.129280090332031,0.6523105502128602,6.24544620513916,2.129388570785523
19.181209564208984,-3.871399402618408,14.118126869201662,0.6752869486808778,6.128129959106445,2.103851318359375
21.266386032104496,-4.267394065856934,14.911087036132812,0.6209064722061157,6.0156569480896005,2.077427864074707
23.44851112365723,-4.058540344238281,15.053194999694826,0.5339021682739258,5.926446914672852,2.033150434494019
25.015377044677734,-2.7068004608154297,14.302432060241701,0.3193720579147339,5.852555751800538,1.97554612159729
25.808151245117188,-0.8963191509246826,12.720745086669922,-0.1479318588972092,5.757181167602539,1.891535758972168
25.59789276123047,0.6543869376182557,10.276031494140625,-0.8155259490013124,5.584436416625977,1.7207189798355105
25.015636444091797,2.169938564300537,7.478051662445069,-1.6870542764663699,5.274251461029054,1.4375455379486084
24.759864807128906,6.161491870880128,3.6970779895782475,-2.7314455509185795,4.8649187088012695,1.1368147134780886
25.3869800567627,10.709028244018555,-1.1325385570526123,-4.195882797241211,4.489073276519776,1.1104091405868532
29.332347869873047,7.879520893096925,-7.878217220306397,-5.293603420257569,4.187156677246094,1.418903946876526
34.33146286010743,-0.0013960003852844238,-17.656930923461918,-4.759059906005859,3.7672924995422363,1.613880276679993
34.447460174560554,-3.1406750679016113,-24.05875968933106,-2.7336626052856445,2.7513024806976323,1.236344814300537
22.36056900024414,-0.23225682973861694,-23.519145965576172,-0.705780029296875,0.794992744922638,0.37998262047767645
12.385345458984375,2.9727919101715092,-17.480609893798828,0.5485317707061768,-1.3094967603683474,-0.8634580373764038
11.984148025512695,3.5014531612396245,-6.943650245666504,0.8141918182373047,-2.8236641883850098,-1.897553086280823
11.133880615234375,-9.601787567138672,3.0199964046478276,2.8359234333038335,-4.786966323852539,-2.4259617328643803
-2.488134145736695,1.7176964282989502,9.904680252075195,3.2331619262695312,-4.463676929473878,-2.7843201160430913
9.69631862640381,6.701303005218507,19.67849922180176,1.303486227989197,-4.628447532653809,-1.524722456932068
5.335797786712647,-3.7434198856353764,12.123819351196289,0.014049729332327843,-4.670985221862793,-0.8425275683403016
23.265361785888672,-0.7556121945381166,15.216827392578125,0.27560260891914373,-5.047575950622559,-0.8225901722908021
35.791637420654304,4.317399501800538,21.529474258422855,0.222732275724411,-3.8795630931854252,-0.7449768185615541
23.865829467773438,1.4045755863189697,16.124202728271484,0.3424773514270783,-2.672034740447998,-1.1541947126388552
15.337831497192383,-5.504333019256593,14.407495498657227,0.5391266345977783,-2.1150336265563965,-0.9952271580696107
8.302309989929201,-3.06960940361023,12.006048202514648,0.5422360897064209,-1.8509238958358767,-0.5784569978713989
5.310912609100343,2.8075246810913086,10.275625228881836,0.4479881525039673,-1.6864734888076784,-0.4103109538555146
7.199099540710449,2.315235853195191,10.172758102416992,0.4275920689105988,-1.5914931297302246,-0.602911412715912
11.271809577941896,-4.257024765014648,11.213707923889162,0.5242229700088501,-0.9986741542816162,-0.6949238181114198
7.275600433349609,-4.088943958282472,8.472853660583498,0.6445190310478212,-0.47231853008270264,-0.5496643185615541
6.3965349197387695,-0.04756192862987518,10.372936248779297,0.6235746741294862,-0.3284059166908264,-0.34428107738494873
6.180335998535156,-0.20313692092895508,10.347709655761719,0.5113818645477295,-0.22725288569927218,-0.37881070375442505
4.716902732849121,-1.3412462472915652,9.780562400817873,0.35828265547752386,-0.12494132667779924,-0.3269619345664978
3.401483297348023,-1.0819001197814941,9.787241935729982,0.2174603492021561,-0.164138525724411,-0.33961513638496404
5.8315935134887695,-0.7066085338592529,10.197512626647951,0.15445804595947266,-0.18660227954387668,-0.3501682579517365
5.919051170349121,-0.19936081767082214,9.804141044616701,0.10754711925983429,-0.1538680046796799,-0.23699775338172913
5.953076362609863,-0.7270728349685669,9.766529083251953,0.06529885530471802,-0.13711246848106384,-0.21700893342494967
5.223959922790527,-0.7013218998908998,9.622317314147951,0.03689275681972504,-0.15921734273433688,-0.16786175966262817
5.651493072509766,-0.15635347366333008,9.707945823669435,0.023273592814803127,-0.16502299904823303,-0.11947138607501984
5.181291103363038,-0.6478138566017152,9.481762886047365,-0.006270638201385737,-0.15941816568374634,-0.05439156666398049
4.922746658325195,-1.0404361486434939,9.481931686401367,-0.02768021821975708,-0.16504618525505066,-0.0347905345261097
4.954496860504151,-1.758397698402405,9.2515344619751,-0.02573601715266705,-0.16729304194450378,-0.022702658548951152
4.668932437896729,-1.9316993951797488,9.139812469482422,-0.012989860959351065,-0.1967340111732483,-0.07437701523303986
4.803840160369874,-1.7952053546905518,8.920879364013672,0.01530794706195593,-0.21621772646903992,-0.10947752743959428
5.209644317626953,-1.1548221111297607,9.020281791687013,0.026956088840961456,-0.23635217547416687,-0.092508502304554
4.9265241622924805,-1.130188226699829,9.147136688232422,0.03661326691508294,-0.24517327547073364,-0.08881267160177232
5.0074477195739755,-1.1674019098281863,9.162317276000977,0.049943722784519196,-0.26931324601173406,-0.0983368828892708
5.128493309020996,-0.8808207511901855,9.20256233215332,0.04604003950953484,-0.2872524857521057,-0.09364954382181169
5.37972116470337,-0.6794791817665101,9.181451797485352,0.019811822101473812,-0.2920068204402924,-0.07670433819293976
5.307419776916504,-0.602480411529541,9.070074081420898,-0.012229529209434988,-0.28822964429855347,-0.049420777708292014
5.228215217590332,-0.7335621118545532,9.122340202331545,-0.04335334897041321,-0.29965457320213323,-0.03234370425343514
5.053438186645508,-1.014055132865906,9.086750030517578,-0.05367266759276391,-0.31787317991256714,-0.02165593393146992
5.120162010192871,-1.1120673418045046,8.957691192626953,-0.0452171266078949,-0.3350767493247986,-0.021877029910683635
4.87019157409668,-1.179169297218323,9.0350341796875,-0.040478967130184174,-0.35747250914573675,-0.02672129124403
5.220945358276367,-1.226396083831787,9.193614959716797,-0.03844666853547097,-0.38155680894851685,-0.05136140435934067
5.386527061462402,-1.167814016342163,9.02000141143799,-0.06396600604057312,-0.3809970915317536,-0.07718808948993683
5.527128219604492,-0.8982542157173158,8.985027313232422,-0.08170221000909807,-0.38790914416313177,-0.08182908594608307
5.64957332611084,-0.716029167175293,8.967247009277344,-0.103350430727005,-0.3936958014965058,-0.06005407124757767
5.715207099914551,-0.8296289443969727,8.839352607727053,-0.10302621871232988,-0.39646464586257935,-0.03333314508199692
5.547109127044679,-0.8713365793228149,8.870857238769531,-0.12332801520824432,-0.39773783087730413,-0.0058198897168040276
5.51696538925171,-1.0007929801940918,9.100004196166992,-0.12095996737480164,-0.4193739891052246,0.007361060474067927
5.471234321594238,-1.1344958543777468,8.943765640258789,-0.06637584418058397,-0.46780163049697876,0.031053228303790096
5.121482849121094,-1.2477663755416872,9.15374279022217,-0.047340083867311485,-0.5296133756637573,0.022722817957401276
5.022856235504151,-1.771371603012085,9.190406799316406,-0.08890973776578905,-0.5859177112579346,-0.020157052204012874
5.087903499603272,-1.8071302175521853,9.07931423187256,-0.07423265278339386,-0.6785342693328857,-0.08294627815485002
5.033449649810792,-1.8417279720306396,9.09635639190674,-0.0725460946559906,-0.777554214000702,-0.14075526595115662
5.2807374000549325,-1.4689257144927979,8.98751735687256,-0.06574854999780656,-0.8744387626647949,-0.18985342979431152
5.155140399932862,-1.5572551488876345,8.882203102111818,-0.058978181332349784,-0.9678046703338623,-0.23885698616504672
5.550714015960694,-1.0835978984832764,8.882081985473633,-0.059538014233112335,-1.0621190071105957,-0.265675574541092
5.947938919067383,-0.4341638684272766,8.800176620483398,-0.08129104226827623,-1.1462459564208984,-0.2508005797863007
6.051140785217285,-0.1910066306591034,8.730473518371584,-0.13787370920181274,-1.2233630418777468,-0.20883010327816012
5.8404388427734375,-0.6292668581008911,9.037500381469727,-0.1879534870386124,-1.3222455978393555,-0.17662070691585544
5.48414182662964,-1.2842348814010622,9.245563507080078,-0.2016676664352417,-1.4848339557647705,-0.17903126776218417
5.311412811279297,-1.9709370136260986,9.21095371246338,-0.17960646748542786,-1.7008775472640993,-0.22332215309143066
5.536953926086426,-2.0054152011871342,9.094066619873047,-0.16917729377746582,-1.942789673805237,-0.28214547038078314
5.507366657257081,-2.1047084331512456,8.965100288391115,-0.162164643406868,-2.1993050575256348,-0.36555823683738714
5.505475521087647,-2.466164350509644,8.869680404663086,-0.12826274335384372,-2.4864056110382085,-0.508446455001831
5.5056304931640625,-2.47378420829773,8.674309730529787,-0.1015535444021225,-2.785349607467652,-0.6783758401870728
5.567690849304199,-2.0713448524475098,8.61172389984131,-0.056143704801797874,-3.172339916229248,-0.853729248046875
5.588472366333008,-1.746636748313904,8.450447082519531,-0.03853984177112579,-3.594891786575318,-1.0248806476593018
6.220026969909668,-1.4319778680801394,8.858753204345703,-0.051617849618196494,-4.069733142852784,-1.1743113994598389
5.981437206268311,-1.2300566434860232,9.213067054748537,-0.07646514475345612,-4.713743686676026,-1.2822225093841553
6.699388027191163,-0.44958135485649114,9.44910526275635,-0.1134767234325409,-5.541606426239015,-1.3522175550460818
7.002637386322022,-0.1448242962360382,9.91131591796875,-0.2792587876319885,-6.467610836029054,-1.355001449584961
9.63939094543457,-0.8364417552947998,12.13407611846924,-0.5408439636230469,-7.315596580505371,-1.4105437994003298
11.641433715820312,-2.7125923633575444,13.317633628845217,-0.8753457069396973,-7.875458240509034,-1.5408906936645508
16.950183868408203,-4.411172389984132,14.606080055236818,-1.417102575302124,-8.09126377105713,-1.5788401365280154
25.401573181152344,-4.850283622741699,15.375525474548342,-1.699333906173706,-7.671918392181397,-1.7217512130737305
28.237163543701172,-4.347331523895265,15.802143096923828,-1.8433152437210085,-7.036451816558839,-1.773421049118042
26.679500579833984,-3.87631630897522,17.65404319763184,-2.127274513244629,-5.9298110008239755,-2.128063201904297
17.026901245117188,-5.024691581726074,15.530392646789553,-1.4272804260253906,-5.562352657318116,-2.9439561367034917
17.29276847839356,-4.850619316101074,10.135175704956055,-0.5543358325958252,-5.129556179046632,-3.3719420433044434
9.94743061065674,-2.2653794288635254,13.139568328857422,-0.1218675822019577,-4.428300857543945,-3.659842729568482
9.868398666381836,5.458926200866699,20.025583267211918,-1.17863667011261,-3.0306358337402344,-3.050350904464722
19.245977401733402,2.953484058380127,19.10184097290039,-2.866863250732422,-1.58152973651886,-3.233162164688111
6.285532474517823,-2.876724481582642,14.886423110961914,-3.638472080230713,0.21225498616695407,-2.849789619445801
-0.3974165916442871,-6.979982852935792,7.122086524963379,-3.688729047775269,0.9640827775001527,-2.469120979309082
-1.3280743360519411,-7.163753509521484,4.359989166259766,-3.23267674446106,1.2993016242980957,-1.7667626142501833
-3.3924107551574707,-4.318205356597901,2.3460655212402344,-3.0480506420135502,1.4255552291870117,-0.9315527677536011
-3.5837244987487793,-1.4292640686035156,1.9439545869827273,-3.291226387023926,1.485683083534241,-0.026653766632080078
-3.5768160820007324,0.33523374795913696,2.064930677413941,-3.758145332336426,1.5093841552734375,0.7754446864128114
-2.8436384201049805,1.6107083559036257,2.996954679489136,-4.126833438873292,1.5245840549468994,1.355641007423401
-1.2371114492416384,2.825681686401367,4.628502368927003,-4.307337284088136,1.6181755065917969,1.652855634689331
0.8781546354293823,4.504303455352784,6.6448974609375,-4.355929374694824,1.869101405143738,1.681077003479004
2.268157482147217,6.669465065002441,8.143012046813967,-4.391348361968995,2.263200998306275,1.5127766132354736
3.3789944648742676,8.773327827453615,8.940893173217773,-4.5462141036987305,2.7133700847625737,1.2751715183258057
3.7810120582580566,10.821975708007812,8.801600456237795,-4.81092405319214,3.145778179168701,1.1242554187774658
3.097876310348511,11.737641334533693,8.066463470458984,-5.124942302703858,3.4949865341186523,1.0330785512924197
2.530546188354492,11.786674499511719,7.70889711380005,-5.327736377716065,3.661049127578736,0.9870697259902954
2.5621771812438965,12.088603019714357,8.04128170013428,-5.313790798187257,3.6716089248657227,0.9477692246437074
3.525979518890381,12.93493175506592,8.996851921081545,-5.205860137939453,3.663395166397095,0.8041281104087831
5.260042667388917,13.781986236572266,10.144224166870117,-5.090448856353761,3.7165756225585938,0.5827067494392396
6.350884437561035,13.954037666320803,11.01307487487793,-4.982536315917969,3.8281493186950684,0.3229230344295502
6.786828994750977,13.649216651916506,11.511407852172852,-4.778989791870117,3.9174940586090092,0.035260677337646484
7.323800563812257,13.50949478149414,11.572952270507812,-4.5353193283081055,3.9670693874359135,-0.3026037514209748
7.586169719696046,12.802494049072266,11.09408473968506,-4.309761047363281,3.9832723140716557,-0.7105709314346313
7.656909942626953,11.616011619567873,10.726739883422852,-4.069254398345948,3.9354035854339604,-1.153883934020996
7.652791500091554,11.27586555480957,11.111428260803224,-3.8864002227783203,3.832223176956177,-1.488346815109253
8.045770645141602,10.129279136657717,11.951695442199709,-3.7499930858612065,3.7434463500976562,-1.6589322090148926
8.155739784240724,8.914149284362795,12.623110771179201,-3.5442042350769043,3.6941511631011967,-1.7527644634246826
7.957338809967042,8.415181159973146,12.815768241882326,-3.306361675262451,3.6570420265197754,-1.7992380857467654
7.821630477905273,7.843557357788086,12.942224502563477,-3.1249878406524663,3.6152634620666504,-1.7689419984817507
7.864974021911621,7.035733699798585,12.99117183685303,-2.940793514251709,3.5560462474823002,-1.6910482645034792
7.927260875701905,6.419721603393555,12.97897720336914,-2.74147367477417,3.47331976890564,-1.603074550628662
8.240266799926758,5.959274768829347,12.879622459411623,-2.5526897907257085,3.373911619186402,-1.5189464092254639
8.398979187011719,5.90714168548584,12.74934482574463,-2.404093980789185,3.270336627960205,-1.4365488290786745
8.53422737121582,6.179834365844727,12.59492588043213,-2.3315765857696538,3.14711856842041,-1.368908166885376
8.579961776733398,6.562985420227051,12.31083869934082,-2.3450469970703125,3.0044529438018803,-1.2836086750030518
8.84273433685303,6.466748237609863,12.359268188476562,-2.363484144210816,2.8481047153472905,-1.1430635452270508
9.743391990661623,5.324406147003175,12.841718673706055,-2.2063088417053223,2.742468118667603,-1.0182383060455322
10.758781433105469,4.481193542480469,13.164313316345217,-1.7866982221603396,2.7469615936279297,-0.9790728092193604
10.899301528930664,4.820840358734132,12.75554084777832,-1.2950208187103271,2.8408668041229252,-0.9603928327560425
10.24770259857178,4.926308631896973,11.30846691131592,-0.9128396511077881,2.92555570602417,-0.8982180953025819
9.133481025695803,4.161157608032227,9.26515865325928,-0.60888010263443,2.907614231109619,-0.8071578145027162
8.174872398376467,2.805684328079224,7.348775863647461,-0.3075751960277558,2.734071731567383,-0.7413425445556641
7.648676395416261,1.7563190460205078,6.008599281311035,0.0006390553899109364,2.4289505481719975,-0.6936880350112915
7.708160877227784,1.6629750728607178,5.2900543212890625,0.2055146545171738,2.0793268680572514,-0.61613929271698
8.175353050231935,2.0472326278686523,5.115574836730957,0.22098812460899353,1.8102408647537234,-0.4594268202781677
8.44914436340332,2.164026021957398,5.2956438064575195,0.10920951515436174,1.65486478805542,-0.23212260007858276
8.620686531066896,1.898355841636658,5.400121212005616,0.010360651649534704,1.564579725265503,0.025905372574925426
8.55030918121338,1.2918230295181277,5.192464828491211,0.06520407646894456,1.4785922765731814,0.26956456899642944
8.102411270141602,1.0545780658721924,4.682729721069336,0.3276317417621613,1.346024751663208,0.44985571503639227
7.743878841400147,1.5300731658935547,4.313858509063722,0.6642983555793763,1.1507067680358887,0.580394983291626
8.070439338684084,2.269221782684326,4.2263078689575195,0.9420439004898071,0.9352946877479554,0.6318916082382202
8.532011032104492,2.68557620048523,4.0983381271362305,1.0981104373931885,0.7557274103164673,0.5842331051826478
8.678441047668459,2.781077146530152,3.5104048252105717,1.143172860145569,0.5660146474838257,0.4509252011775971
8.660490036010742,2.889602422714234,2.9697248935699467,1.075510382652283,0.3070436120033264,0.29168176651000977
9.044436454772951,1.9635143280029297,2.679240465164185,0.9569486975669862,-0.01215408556163311,0.11492679268121721
9.92443370819092,0.849413573741913,2.643410921096802,0.9173054695129395,-0.35371583700180054,-0.07915399223566057
10.567687034606935,4.949155807495117,2.46292781829834,0.6284649968147279,-0.7364970445632935,-0.2211122661828995
14.300232887268068,-0.15279920399188998,-6.984195709228516,-0.4784202873706818,-1.7988543510437012,-0.0691831111907959
6.285935878753663,-3.187496900558472,-4.199811935424805,-0.627489447593689,-2.863125085830689,-0.14910432696342468
11.957845687866211,0.10138833522796631,12.805193901062013,-0.8269118070602417,-2.9440717697143555,-0.02878246642649174
15.612711906433107,4.367853641510011,21.14595985412598,-0.8593106269836426,-2.028248548507691,0.1067558079957962
7.163058757781983,-0.1260252594947815,15.381912231445312,-0.8391121029853822,-1.3987016677856445,-0.23759725689888
1.4530220031738281,-4.104548931121827,8.670913696289062,-0.5439253449440004,-1.7130272388458252,-0.5677682757377626
6.512764930725098,-7.258511543273926,11.514778137207031,-0.36044165492057806,-2.0168273448944096,-0.46595048904418945
10.958300590515138,-9.99800777435303,12.762378692626953,-0.010752065107226372,-1.8258761167526247,-0.27261412143707275
7.734746932983398,-6.503481388092042,10.8461389541626,0.2634972035884858,-1.5495045185089111,-0.10302756726741791
5.105818748474121,-0.6366719007492065,9.207171440124513,0.23976778984069824,-1.4366716146469118,-0.023672934621572495
6.491990089416504,4.747981071472168,8.559200286865234,0.1282813549041748,-1.3870973587036133,-0.020361715927720073
9.785224914550781,3.6598687171936035,11.643304824829102,-0.13938610255718234,-1.1322779655456543,-0.16497237980365756
13.485237121582031,-2.0493831634521484,13.96743679046631,-0.28205510973930364,-0.5319300889968872,-0.17945897579193115
7.675524711608887,-4.396723270416261,9.621436119079592,-0.022447006776928905,-0.1803884506225586,-0.12339483946561815
4.158893108367921,-1.1357755661010742,9.795495033264162,0.11419671028852464,-0.31012889742851263,-0.14762338995933533
5.502032279968262,0.5559284687042236,10.185694694519045,0.17306439578533175,-0.24920865893363953,-0.32201370596885687
6.363629817962647,-1.8338176012039187,9.831873893737795,0.2251592725515366,-0.2010057270526886,-0.33042752742767334
5.81705141067505,-1.7984428405761719,9.93275547027588,0.19717565178871155,-0.15468333661556247,-0.20286166667938232
5.649831295013429,-0.17497536540031433,9.983227729797365,0.18236008286476135,-0.11542405188083649,-0.15174333751201632
5.686708450317383,-0.3702728748321533,9.871161460876467,0.11861200630664825,-0.07968033105134965,-0.12075777351856232
5.425876140594483,-0.9273490309715272,9.602097511291506,0.06342855095863342,-0.053854089230299,-0.052758742123842246
5.198145866394043,-0.7398878931999208,9.52631950378418,0.05808020755648614,-0.04097342491149902,-0.024808725342154506
4.9766507148742685,-0.8644396662712098,9.483963012695312,0.05485611408948898,-0.034538909792900085,-0.013351255096495153
4.671538829803468,-1.1926244497299197,9.28638553619385,0.06461875140666962,-0.04231328889727593,-0.023181311786174774
4.5249295234680185,-1.2466865777969363,9.262501716613771,0.11993756890296936,-0.0589488334953785,-0.062741257250309
4.597130298614503,-1.3586742877960205,9.219859123229982,0.15761196613311768,-0.075959749519825,-0.09156180918216705
4.697070598602296,-1.030592679977417,9.351901054382326,0.16317525506019592,-0.09111037850379944,-0.10190092772245408
5.069480419158936,-0.9942651391029359,9.35830593109131,0.14158149063587191,-0.09836207330226898,-0.09489802271127702
5.1617841720581055,-0.9300664663314819,9.252434730529787,0.1274494379758835,-0.08686134219169617,-0.07644601166248322
4.842789649963379,-1.0263729095458984,9.07687282562256,0.13922445476055148,-0.0711393654346466,-0.0847470983862877
4.666533946990968,-1.4427740573883057,9.057530403137209,0.1585749834775925,-0.07784121483564378,-0.11679446697235107
4.331501007080078,-1.1954015493392947,8.977366447448732,0.1456315815448761,-0.0918516591191292,-0.14421629905700684
4.198736190795898,-1.2900350093841553,9.17706298828125,0.11756781488656999,-0.13330739736557007,-0.18890365958213806
4.71414613723755,-0.8288843035697938,9.523594856262209,0.08296281844377519,-0.15776696801185608,-0.20367158949375155
5.096201419830323,-0.2499079406261444,9.409487724304201,0.05044330283999444,-0.1408549100160599,-0.22022920846939087
5.030822277069093,0.11095793545246124,9.344510078430178,0.00030678513576276606,-0.15333926677703857,-0.1770807653665543
4.9616055488586435,0.40153753757476807,9.304593086242678,-0.05040047690272332,-0.17364519834518433,-0.15703535079956055
4.6480984687805185,0.157255619764328,9.216965675354006,-0.09733721613883972,-0.1864404231309891,-0.13122665882110596
4.811432361602784,-0.36905163526535034,9.531639099121094,-0.1501167118549347,-0.23165836930274963,-0.12013653665781023
4.706826210021973,-1.0610203742980957,9.39149284362793,-0.13741905987262729,-0.25895780324935913,-0.13013152778148654
4.372277736663819,-1.2896623611450195,9.352418899536133,-0.13353468477725985,-0.30515193939208984,-0.18089890480041504
4.999106407165527,-1.1107589006423952,9.5371789932251,-0.12004461139440538,-0.34785836935043335,-0.2252103239297867
5.274884700775147,-0.49038121104240423,9.439340591430664,-0.12834766507148743,-0.4030548334121704,-0.2090878337621689
4.9468960762023935,-0.7606443166732788,9.513650894165039,-0.1437368839979172,-0.4615843892097473,-0.21951295435428622
5.124860763549805,-0.9781083464622499,9.572986602783203,-0.13212993741035461,-0.5376494526863099,-0.22798459231853488
5.0036940574646005,-0.8497095108032227,9.468854904174805,-0.07824660837650299,-0.62275367975235,-0.2268269658088684
4.661596298217773,-0.8216149806976318,9.503023147583008,-0.0325850173830986,-0.7507206201553345,-0.27348402142524725
4.7115678787231445,-0.5986545681953431,9.527516365051271,0.006210347171872855,-0.9067286252975464,-0.3065651953220368
4.669415950775147,-0.024335697293281555,9.733108520507812,-0.029314178973436356,-1.1194642782211306,-0.3125253021717072
4.656556129455566,0.1927747577428818,9.783154487609865,-0.11571984738111497,-1.3442504405975342,-0.2777892649173737
4.841937541961671,-0.025388821959495544,9.283499717712404,-0.1726432740688324,-1.5355613231658936,-0.22866527736186984
4.929974079132081,0.27296358346939087,9.682316780090334,-0.2558664977550507,-1.7220990657806396,-0.17159275710582736
5.005376338958741,0.22430893778800964,9.846208572387695,-0.3206357061862946,-1.9619290828704834,-0.08123892545700073
4.90457820892334,0.368025004863739,9.987895965576172,-0.3768114447593689,-2.276467084884644,0.015587814152240753
5.018763542175293,0.2996029853820801,9.944279670715334,-0.4638014137744904,-2.611627340316773,0.07982024550437927
4.907958030700684,-0.12402179837226868,9.961424827575685,-0.5337605476379395,-2.9567778110504155,0.0773191899061203
5.282544612884522,-0.11471115052700043,9.90743160247803,-0.5898175835609437,-3.312434673309326,0.07342115044593811
5.171437740325929,-0.13248737156391147,9.64615249633789,-0.6633813977241517,-3.6567554473876953,0.09375094622373582
4.500864028930664,-0.5292632579803467,9.981728553771974,-0.7740847468376161,-4.113019466400147,0.0945209264755249
3.5911402702331543,-2.1271626949310307,9.096920013427734,-0.7388045191764833,-4.841710090637207,0.04061983898282052
2.3546462059020996,-3.185402631759644,8.778861999511719,-0.38760530948638916,-5.955606937408448,-0.2563996613025666
4.424456119537354,-3.6903078556060795,9.282658576965334,-0.026481613516807556,-7.430438518524171,-0.5363209247589111
4.541884422302246,-2.452127456665039,9.944803237915039,0.2170190662145615,-8.709582328796388,-0.6998884677886963
6.111032009124757,-2.5067524909973145,11.082290649414062,0.21595753729343417,-10.07503890991211,-0.88385146856308
11.047100067138672,-3.107276439666748,12.681806564331055,-0.17407996952533725,-11.198190689086914,-0.922113299369812
19.620512008666996,-2.7950782775878906,13.276062965393068,-0.47329527139663696,-11.640164375305178,-0.902572751045227
29.815433502197266,-1.621778964996338,14.143816947937013,-0.8222883343696595,-11.267109870910646,-0.7624251842498779
37.44591903686524,-2.891672849655152,14.41146469116211,-1.0290310382843018,-10.169722557067873,-0.6004291772842407
34.170875549316406,-6.974445819854737,14.989818572998047,-1.1482396125793457,-9.146618843078615,-0.5819838643074037
21.3410816192627,-8.727188110351562,13.52772617340088,-1.0386061668395996,-8.681687355041506,-0.9881844520568848
21.706802368164062,-6.435579776763917,16.57752227783203,-0.8402305841445923,-8.39146614074707,-1.5131973028182986
18.797826766967777,-4.4284162521362305,23.365066528320312,-1.022938370704651,-7.710430145263672,-1.3839486837387087
18.36202621459961,-3.560200452804566,21.706468582153324,-1.3671386241912842,-6.258630275726319,-1.0349718332290652
19.028078079223636,-3.4589240550994877,20.210180282592777,-1.5579875707626345,-4.542396545410156,-1.27879273891449
33.50299453735352,-10.76102924346924,31.94049835205078,-0.4620904624462128,-1.4303942918777468,-2.067294120788574
16.604019165039062,-5.664484977722168,28.486261367797855,-0.23142294585704806,2.083465576171875,-1.56783664226532
12.74547863006592,-6.91935920715332,22.264060974121094,0.2263136059045792,4.252654075622559,-1.3144984245300293
7.938971519470215,-4.6644911766052255,16.123130798339844,0.3876033425331116,5.777361392974854,-0.9713708162307739
1.8706395626068115,-3.1174097061157227,9.891027450561523,0.46676632761955267,6.366089344024659,-0.6998977661132812
-2.5900588035583496,-2.3417060375213627,5.946104526519776,0.3538934588432312,6.342729091644288,-0.45069730281829834
-4.304802417755128,-1.8832156658172607,3.4310030937194824,0.13221091032028198,5.980806827545167,-0.19353802502155307
-3.6176035404205327,-0.6229705810546875,3.192606687545777,-0.09506788849830627,5.498664379119874,0.11396515369415283
-1.0741165876388552,0.49727740883827215,4.876790523529054,-0.4293038845062256,5.228605270385742,0.4263420403003693
1.6585578918457031,0.38899320363998413,6.839505672454835,-0.7225469946861268,5.300663948059082,0.6876809000968934
3.624103546142578,-0.42192041873931885,8.584513664245607,-0.7550736665725708,5.623589038848878,0.8250067830085756
5.353147983551026,-0.9142458438873291,9.772100448608398,-0.5632974505424501,6.094560623168945,0.8523604273796083
6.401014804840089,-0.2543571889400483,9.656912803649904,-0.2943049669265747,6.570760726928711,0.8354241251945497
6.226025581359863,1.143830180168152,8.584288597106935,-0.17396199703216553,6.960275173187257,0.853522539138794
6.108371734619141,1.991631269454956,7.633728504180909,-0.2739051282405854,7.1673994064331055,0.90282142162323
5.817883968353272,1.9110407829284668,6.959381580352784,-0.44526875019073486,7.190056324005128,0.9711982011795044
5.8844804763793945,1.2919812202453613,7.0617079734802255,-0.5276044011116029,7.064974308013917,1.0139844417572021
6.8281521797180185,1.1029248237609863,8.014698982238771,-0.52832168340683,6.875374794006348,1.03467071056366
8.151278495788576,1.3790359497070312,9.430251121520998,-0.5118656158447266,6.712387561798097,1.068820118904114
9.825531005859375,1.5635462999343874,11.012166976928711,-0.5149259567260742,6.648633480072022,1.0951998233795166
11.140501976013185,1.392330050468445,12.328965187072756,-0.49910673499107366,6.660565853118897,1.1164121627807617
11.99621105194092,1.1148699522018435,13.312605857849123,-0.3846434652805329,6.684814453125,1.0982755422592165
13.121151924133303,1.1705501079559326,14.396267890930178,-0.26205337047576904,6.669266223907472,1.0668588876724245
15.207764625549318,1.431812405586243,15.944091796875,-0.2309938371181488,6.680967807769776,1.0590121746063232
17.339611053466797,1.2294257879257204,17.392782211303714,-0.27926474809646606,6.770386695861816,1.0803154706954958
19.84597396850586,0.17623603343963623,18.40694808959961,-0.32826632261276245,6.900938510894776,1.1408567428588867
22.353897094726562,-0.9910094141960145,18.894329071044922,-0.23796419799327853,7.0087175369262695,1.2553837299346924
24.67956352233887,-1.6775052547454834,18.35688018798828,-0.022572048008441925,7.044167041778565,1.377929449081421
26.90093803405762,-1.4332447052001953,16.114198684692386,0.180964931845665,6.959644794464112,1.4729392528533936
28.807220458984375,-0.4999943673610688,12.84052848815918,0.20065754652023315,6.708842754364015,1.5115602016448975
29.50607681274414,-0.4938209056854248,9.121469497680664,0.02394058182835579,6.326313495635987,1.431453347206116
31.015300750732422,0.6986797451972963,4.834725856781007,-0.25392416119575506,5.797062873840332,1.1179670095443728
34.30865478515625,4.443462371826172,-2.8234350681304936,-0.8970832824707031,5.2322540283203125,0.9711652398109437
36.50448989868165,6.2563886642456055,-12.250126838684084,-1.7751970291137695,4.616801738739015,1.0465590953826904
37.83816146850587,2.1139392852783203,-22.653831481933594,-2.146303653717041,3.7317483425140385,1.1213670969009402
33.593505859375,-1.5762484073638916,-28.863153457641605,-1.3680769205093386,2.134093761444092,1.0432749986648562
24.24249267578125,-1.0863243341445925,-26.32201957702637,-0.08579694479703905,-0.11784421652555467,0.6784036159515381
20.64578628540039,1.1500036716461182,-17.064805984497074,0.7807058095932007,-2.0994546413421635,0.0669613778591156
24.727523803710938,7.822608947753906,-12.33716678619385,0.48214843869209295,-4.991781234741211,-0.6688220500946045
-12.914345741271974,2.5572021007537846,-7.565648555755616,-0.32133400440216064,-5.104145526885987,-1.061765432357788
17.16659164428711,0.39653241634368896,22.219146728515625,-0.9389841556549072,-6.472926139831543,-1.5589689016342165
22.0683765411377,-12.812299728393555,25.02512931823731,-1.2290862798690798,-5.599933624267578,-1.8051086664199831
27.028366088867188,-11.60664463043213,16.029998779296875,-0.7016029357910156,-5.088356494903565,-0.9551338553428651
25.54540824890137,-7.467315673828125,15.651665687561037,-0.6792346835136415,-4.628482818603516,0.3661190569400788
29.883651733398438,-0.804750144481659,21.664342880249027,-0.24075248837471008,-3.6314268112182617,0.10557407885789873
18.565391540527344,4.633141994476319,16.122089385986328,-0.14394070208072665,-2.386780261993408,-0.5667946934700013
7.470790386199952,-0.29280653595924383,9.978462219238281,-0.07028849422931671,-1.983129382133484,-0.8313580155372621
11.154420852661133,-5.256053924560547,10.83364772796631,0.12552987039089206,-1.6754748821258545,-0.8631098866462709
11.177971839904787,-4.15296220779419,10.745290756225586,0.4670733511447907,-1.1611434221267702,-0.806841254234314
7.708250045776367,-1.3635739088058474,9.976129531860352,0.5437309741973877,-0.8291813731193544,-0.704727053642273
8.335298538208008,-0.3166379630565644,11.387852668762209,0.5089426636695863,-0.633578896522522,-0.5805376768112183
6.887514591217042,-0.7646698951721191,10.711196899414062,0.43303120136260986,-0.39763101935386663,-0.4277690052986145
5.707634449005128,-1.222259759902954,10.049511909484865,0.3668208718299866,-0.3281024694442749,-0.2669307887554169
4.879611492156983,-1.2612458467483523,9.751673698425295,0.22191630303859713,-0.2616804242134094,-0.21341599524021151
4.749471664428711,-1.8891355991363525,9.782779693603516,0.15922081470489502,-0.27168735861778265,-0.19651551544666293
4.206521034240723,-1.7720400094985964,9.400737762451172,0.1516412049531937,-0.3174107074737549,-0.18445231020450595
4.150720119476319,-1.523372292518616,9.432966232299805,0.17535753548145297,-0.4006360471248627,-0.19642546772956848
5.408561706542969,-0.9735170006752015,10.080876350402834,0.2205733060836792,-0.4019885957241059,-0.19833335280418396
6.034646511077882,-0.6553298234939575,10.095287322998047,0.2293146997690201,-0.2806550860404968,-0.15035730600357056
5.846031665802003,-1.0378055572509766,9.57300662994385,0.1804235279560089,-0.17658551037311557,-0.06915375590324402
5.6658124923706055,-1.4738945960998535,9.424035072326662,0.13389793038368225,-0.11763571202754974,-0.029864961281418804
5.071460723876953,-1.615363597869873,9.320889472961428,0.1008724719285965,-0.07657914608716966,-0.014552859589457512
4.920188903808594,-1.2294620275497439,9.330414772033693,0.061453916132450104,-0.07334909588098527,-0.010099026374518873
4.965494155883789,-0.9655817151069642,9.421745300292969,-0.005319810938090087,-0.08766646683216095,0.02559028379619122
4.657928943634034,-1.2359330654144287,9.392418861389162,-0.05238663777709008,-0.09576003998517992,0.030220430344343185
4.7082929611206055,-1.2813018560409548,9.2252197265625,-0.05683661997318268,-0.11994468420743944,0.02344829961657524
4.68708610534668,-1.3785948753356934,9.186306953430178,-0.057232439517974854,-0.13172246515750888,0.00601618504151702
4.756361961364746,-1.5056146383285525,9.096386909484865,-0.0431499257683754,-0.14142541587352755,-0.01861312985420227
4.6771864891052255,-1.683610439300537,9.048392295837404,-0.010790725238621237,-0.1505108326673508,-0.050232693552970886
4.714808464050293,-1.883224129676819,8.94283962249756,0.01051935460418463,-0.1618785560131073,-0.0776236578822136
4.79377317428589,-1.8523336648941042,8.892910957336428,0.04182634875178338,-0.16501262784004211,-0.10984033346176147
4.875849723815918,-1.5888001918792725,8.828143119812013,0.07619900256395341,-0.14893025159835815,-0.14767716825008395
4.606932163238526,-1.7117118835449219,8.668288230895998,0.11644509434700012,-0.13391393423080444,-0.19871975481510165
4.242805004119874,-1.8969768285751345,8.677975654602053,0.1870558708906174,-0.1273346245288849,-0.2890706360340119
4.3208513259887695,-2.141931772232056,8.870137214660646,0.26314467191696167,-0.1100931540131569,-0.3894645273685456
4.694938182830811,-1.6547526121139529,9.181943893432617,0.27478575706481934,-0.13560940325260165,-0.4211723804473877
5.305347919464112,-0.1398356556892395,9.561275482177734,0.21923069655895236,-0.14116971194744113,-0.3912566900253296
4.5858354568481445,-0.7701116800308228,9.503562927246094,0.14602401852607727,-0.1563794165849686,-0.3650076389312744
4.369758605957031,-0.5140605568885804,9.871500015258789,0.07062959671020508,-0.21668182313442233,-0.3600995242595673
4.9439897537231445,-0.4936223924160004,10.014339447021484,0.009642116725444794,-0.30319938063621527,-0.3626793622970581
5.408146858215332,-0.6510090231895448,9.449321746826172,-0.050445035099983215,-0.3706626296043396,-0.31762936711311346
5.323428153991699,0.13664628565311435,9.534604072570803,-0.1306915730237961,-0.43831461668014526,-0.2703497707843781
5.3964858055114755,0.11375746130943298,9.427504539489748,-0.21675413846969604,-0.5126495957374574,-0.20811085402965548
5.063304901123047,-0.5350809097290039,9.468294143676758,-0.26270672678947454,-0.6121625900268555,-0.17965419590473178
4.838544845581055,-0.5689667463302612,9.678179740905763,-0.2977147698402405,-0.7657999992370605,-0.15605907142162326
4.347205638885499,-0.5490962266921997,9.881749153137209,-0.3285587131977082,-0.9747840166091919,-0.11734648793935777
4.056053638458253,-0.6742857694625854,10.013642311096193,-0.3518940806388855,-1.2438966035842898,-0.07137534767389299
3.691295385360718,-0.9183846712112427,10.247509956359865,-0.3794335722923279,-1.569735646247864,-0.03192829340696335
4.1469526290893555,-0.5023506879806519,10.268625259399414,-0.42499256134033203,-1.9154274463653564,-0.01013386342674494
4.272413730621339,-0.20900869369506836,10.207520484924318,-0.49132862687110906,-2.2671327590942383,0.021497966721653942
4.548365116119386,-0.4102061986923218,10.008822441101076,-0.5340616106987001,-2.6451172828674316,0.04648827016353607
4.528346061706543,-0.738068699836731,10.17240619659424,-0.5795448422431947,-3.0755205154418945,0.06146064773201943
4.356930732727051,-0.9564595222473145,10.504088401794435,-0.5904275774955751,-3.635456800460816,-0.01403888314962387
3.789897680282593,-2.68176817893982,10.920141220092773,-0.6132502555847168,-4.287454128265382,-0.12338227033615112
2.099077939987183,-4.495469570159913,10.426738739013672,-0.5510390400886537,-5.140979766845703,-0.3465327024459839
1.347815752029419,-4.657022953033448,10.257229804992678,-0.3135484158992768,-6.350132942199707,-0.6722208857536317
2.499044418334961,-3.9085948467254643,10.856664657592773,-0.10187580436468126,-7.75431776046753,-1.0062694549560547
3.230353832244873,-3.9729318618774414,11.128970146179201,0.05264814570546151,-9.338336944580078,-1.1937762498855593
4.627111434936523,-2.9817578792572026,10.996987342834474,0.08284797519445421,-10.920076370239258,-1.5339906215667725
10.307998657226562,-3.6738295555114746,13.00805187225342,-0.13184638321399691,-12.237844467163086,-1.8220943212509157
19.815319061279297,-4.029958724975586,14.700984954833984,-0.41342419385910034,-12.837797164916992,-2.003168344497681
35.104942321777344,-2.8952400684356694,15.421568870544435,-0.41733327507972723,-12.244468688964844,-2.1726381778717045
42.09154510498047,-2.258768081665039,14.894647598266602,-0.6653757691383363,-10.73248291015625,-1.8242969512939453
35.91558074951172,-8.738813400268555,14.0551233291626,-1.253183960914612,-9.31049919128418,-1.5271562337875368
25.178749084472656,-9.549657821655273,17.279346466064453,-1.1308730840682986,-8.407999992370607,-1.8537554740905762
18.26530265808106,-8.093014717102053,19.67135047912598,-0.9743531346321107,-7.7119550704956055,-2.306491613388062
16.32793426513672,-8.34910297393799,21.748329162597656,-0.8773483633995057,-7.024513244628906,-2.161487579345703
8.004899978637695,-6.462396621704102,13.244546890258789,0.04335280507802963,-6.097909450531007,-2.400517463684082
35.66794204711915,-6.812922477722168,24.782724380493168,0.5196660757064819,-4.5774030685424805,-2.763376951217652
25.76709747314453,-7.400953769683839,31.284112930297855,0.6645178198814393,-0.9538530111312866,-2.3351294994354252
11.148396492004396,-6.214049339294434,22.517353057861328,0.8856481313705444,1.5983713865280154,-1.8984760046005251
8.401283264160156,-6.15504264831543,18.24572563171387,0.9559699296951294,3.4180037975311284,-1.411996841430664
4.737782955169679,-4.443259239196777,12.586284637451172,1.0026793479919434,4.421525001525879,-1.165774703025818
1.3240182399749756,-3.2614023685455327,9.423563003540039,0.836771070957184,4.913844108581543,-0.8999791741371156
-0.42856884002685547,-2.475520133972168,6.827022075653077,0.5661528706550599,5.11232852935791,-0.669253945350647
-1.4476630687713623,-2.2199566364288335,5.2490234375,0.18589043617248535,5.142628192901612,-0.4221000671386719
-1.1028900146484375,-2.3445444107055664,4.686100006103516,-0.1513905376195908,5.077538013458253,-0.16011080145835876
0.1653853952884674,-2.43334174156189,5.149028778076172,-0.38306885957717896,5.067436695098878,0.07348880171775818
2.184360980987549,-2.313678741455078,6.229455471038819,-0.5577831268310547,5.198027133941651,0.33350118994712835
3.7899417877197266,-2.6719992160797124,7.211085319519043,-0.6102496385574341,5.529300212860108,0.6003470420837402
4.300723075866699,-2.789933681488037,7.3826446533203125,-0.49880415201187134,5.9420671463012695,0.8274953961372377
4.184874534606934,-2.3013033866882324,6.953909397125245,-0.314991444349289,6.273472785949707,1.0044416189193728
4.372268199920655,-1.2559043169021609,6.386921405792237,-0.20259495079517367,6.450950622558594,1.1843583583831787
4.951956272125245,-0.3203849196434021,6.100672721862793,-0.21856558322906494,6.524150371551515,1.3523645401000977
6.173722267150879,0.21985316276550293,6.553168773651124,-0.3432607650756836,6.575580596923828,1.506533741950989
7.834818363189698,0.1407775580883026,7.444101810455323,-0.4937354326248169,6.669193744659425,1.639897108078003
9.024686813354492,-0.6688486337661743,8.421855926513672,-0.5219900012016297,6.833337783813477,1.7114665508270264
10.081724166870117,-1.5764451026916504,9.170449256896974,-0.3462910354137421,7.011813163757324,1.7256373167037966
11.064674377441406,-1.3052091598510742,9.52238655090332,-0.06302759796380998,7.162496089935304,1.7600429058074951
12.223060607910156,0.5842776894569398,9.927083015441896,0.053742770105600364,7.271771430969238,1.9023319482803347
13.504558563232422,1.369669556617737,10.432656288146974,-0.09526207298040391,7.331205368041992,2.109480857849121
14.507137298583984,0.8812819719314575,11.296512603759766,-0.2249365746974945,7.323766231536866,2.275263786315918
16.015419006347656,0.07645893096923828,12.942164421081545,-0.1930978745222092,7.270965099334718,2.3703184127807617
18.02163887023926,-1.100997567176819,14.880055427551271,0.03247164934873581,7.266446590423585,2.3623170852661133
19.53848648071289,-2.050581932067871,16.434467315673828,0.42032545804977417,7.313241481781007,2.2153365612030034
21.295629501342777,-1.969165921211243,17.605884552001953,0.801888406276703,7.317803382873535,2.040122747421265
23.239376068115234,-1.9944055080413818,17.93675804138184,0.9926924109458924,7.24989938735962,1.918161392211914
25.709274291992188,-2.3632819652557377,17.106056213378906,1.0609050989151003,7.109165191650391,1.8262306451797488
28.452186584472656,-3.1923215389251713,15.063186645507812,1.039933681488037,6.945412158966065,1.640921473503113
30.099632263183594,-3.9639816284179688,11.65011501312256,0.9066596031188965,6.764493465423585,1.2419071197509766
29.37847709655762,-1.538039803504944,7.3950161933898935,0.4617214798927307,6.435169219970703,0.692526400089264
29.78689956665039,6.789438247680664,0.8507546782493592,-0.8992773294448853,5.949349880218507,0.2085857391357422
29.56938934326172,13.872053146362305,-6.511815547943116,-3.5727589130401616,5.33426570892334,0.029052242636680603
32.077674865722656,11.997476577758789,-15.409767150878906,-6.036354541778565,4.611039161682129,0.4935323894023896
35.19664764404297,0.058596283197402954,-24.224071502685547,-6.134390830993652,3.5994420051574707,1.1072789430618288
35.39807510375977,-9.13572406768799,-27.09569358825684,-3.3782029151916504,1.8415366411209109,1.0910732746124268
23.878213882446293,-6.33514404296875,-22.98509788513184,0.21208183467388156,-0.5408608913421631,0.35213416814804077
20.346878051757812,3.939603328704834,-13.361616134643555,1.9717068672180176,-2.3049876689910893,-0.8028450012207031
24.229419708251953,8.979300498962404,-1.6525609493255615,1.4269332885742188,-2.9508180618286133,-1.59772264957428
9.503835678100586,-0.8091509342193604,10.792508125305178,1.5528932809829714,-4.239682197570801,-1.6573146581649782
-13.240732192993164,0.05778774619102478,9.145743370056154,1.3429988622665407,-3.765702247619629,-2.1514177322387695
1.6817034482955935,2.5698723793029785,20.7505054473877,-0.40742987394332886,-4.9211392402648935,-1.9862403869628906
15.476314544677734,-11.402119636535646,11.846650123596193,-0.6597869992256166,-5.5716919898986825,-1.8113250732421875
28.85164833068848,-3.0109505653381348,17.52612113952637,-0.0955086573958397,-5.752630233764648,-0.8307904601097108
32.71784210205078,-4.1618852615356445,22.450048446655277,-0.21224766969680786,-4.618674755096436,-0.1255023926496506
26.139400482177734,-0.538250207901001,19.353971481323246,0.052462100982666016,-3.4131782054901127,-0.5561498403549194
12.638241767883303,-1.2454730272293093,13.578750610351562,0.07554161548614502,-2.621903419494629,-0.6284921765327455
5.476018905639648,-0.5163692831993104,9.878296852111818,-0.0031466023065149784,-2.382501840591431,-0.572394847869873
8.968511581420898,-2.0960409641265874,10.182979583740234,0.17979989945888522,-2.1493773460388184,-0.8020241260528564
13.294363021850586,-6.468600273132324,10.860677719116211,0.6568402051925659,-1.5261410474777224,-1.0859549045562744
7.742545127868652,-4.142785549163819,9.468661308288576,0.8289928436279297,-1.0338499546051025,-0.8441908955574037
6.8171448707580575,-0.21613074839115146,10.540390968322756,0.8149858713150024,-0.8436110615730287,-0.7602452039718628
7.962939262390137,1.6398346424102783,11.35027599334717,0.6952779293060303,-0.4998666346073151,-0.7228733897209169
5.491951942443848,-2.579324245452881,9.34396266937256,0.6210110187530518,-0.3654837310314179,-0.513796329498291
4.4028897285461435,-1.9964004755020144,9.740890502929688,0.4041931331157685,-0.3915282785892487,-0.377014696598053
5.671189308166504,-0.5378717780113221,10.368560791015625,0.2921848595142365,-0.4023442268371582,-0.32671752572059637
5.739907741546632,-0.8266675472259521,10.55781650543213,0.25577104091644287,-0.3533904850482941,-0.28058931231498724
5.328652381896973,-0.6288868784904481,10.070454597473146,0.19928838312625888,-0.3280896544456482,-0.23918806016445163
5.188209533691406,-0.4561026096343994,9.812140464782717,0.15403521060943604,-0.2927883267402649,-0.191500261425972
5.613540172576905,0.07725125551223755,10.031168937683107,0.09271004796028137,-0.2592537701129914,-0.13378474116325378
5.5111756324768075,-0.5579592585563661,9.741068840026857,0.01925496757030487,-0.23208303749561313,-0.04383897408843041
5.209897994995117,-0.744373083114624,9.529702186584474,-0.04423574730753899,-0.22065341472625732,0.03894308581948281
5.317145347595215,-0.7428653836250306,9.59316921234131,-0.09835980087518693,-0.2225964814424515,0.05252353847026825
5.441516399383546,-1.3867778778076172,9.304243087768555,-0.1303222328424454,-0.22566866874694824,0.059942048043012626
4.817988395690918,-2.033830165863037,9.056689262390138,-0.12372448295354845,-0.24387887120246887,0.04681026190519333
4.929106712341309,-1.3816864490509033,9.191325187683107,-0.12069566547870636,-0.2745485603809357,0.030686914920806885
4.912366390228272,-1.4248006343841553,9.187411308288576,-0.1234128475189209,-0.2899589538574219,0.013271260075271131
4.974766731262207,-1.4908326864242556,9.033653259277344,-0.12938642501831055,-0.31613060832023626,-0.00497675035148859
5.01023817062378,-1.3137950897216797,9.067100524902344,-0.13436640799045566,-0.3310806155204773,-0.018489476293325424
5.084916591644288,-1.1175692081451416,9.07637691497803,-0.15515978634357455,-0.34694409370422363,-0.02533032558858395
5.073739051818848,-1.3194741010665896,9.032503128051758,-0.1738511621952057,-0.3587145209312439,-0.029177950695157055
5.1588711738586435,-1.4098103046417236,8.99521255493164,-0.19251276552677157,-0.3671873211860657,-0.03795072808861733
5.260510921478272,-1.5651907920837402,8.934370994567873,-0.20568612217903137,-0.36646041274070745,-0.04800738021731377
5.448179244995117,-1.772130608558655,8.708113670349123,-0.19890327751636508,-0.35024935007095337,-0.05791368708014489
5.357823371887207,-1.5819447040557861,8.650545120239258,-0.1801031231880188,-0.32581573724746704,-0.06890226155519487
5.198960304260254,-1.5359065532684326,8.747460365295412,-0.17505313456058505,-0.3084043860435486,-0.07962518185377122
5.076062679290772,-1.4721548557281494,8.736217498779297,-0.17576272785663608,-0.3115759491920471,-0.09715135395526886
4.8471951484680185,-1.7418683767318728,8.622735023498537,-0.16502898931503296,-0.31607076525688177,-0.12695875763893127
4.687882900238038,-2.33010745048523,8.582734107971193,-0.12164305895566942,-0.33117529749870306,-0.18459385633468628
4.846765041351319,-2.500087261199951,8.486644744873047,-0.056957725435495384,-0.3392649292945862,-0.27417382597923284
5.015431880950929,-2.1247985363006596,8.597634315490724,0.00952263828366995,-0.3463272452354431,-0.34513533115386963
5.502048492431641,-1.0711244344711306,9.064884185791016,0.002978295320644975,-0.3668537735939026,-0.3540129363536835
5.403566360473633,-0.6117403507232666,9.286084175109865,-0.06911704689264299,-0.4125793278217316,-0.31487196683883667
5.042267799377441,-0.8440676331520082,9.357185363769531,-0.12845711410045627,-0.525516152381897,-0.27152529358863836
5.372721195220948,-0.7071583271026611,9.467350959777834,-0.18841245770454407,-0.6798152327537538,-0.22816149890422824
4.931891441345215,-0.36043882369995117,9.534701347351076,-0.2341446876525879,-0.8646737933158876,-0.16601604223251343
4.221652984619141,-0.7741107940673828,9.611968994140625,-0.2347327172756195,-1.1309261322021484,-0.1475402265787125
4.187837600708008,-0.58772873878479,10.220043182373047,-0.2769465446472168,-1.4587622880935671,-0.13752028346061707
4.622352600097656,-0.6061924099922181,10.228513717651367,-0.34118607640266424,-1.799482822418213,-0.10439300537109375
4.373710155487061,-0.9604981541633607,9.985305786132812,-0.38733246922492987,-2.1802263259887695,-0.06405820697546007
4.422152996063233,-1.218820929527283,10.000037193298342,-0.3851606249809265,-2.614800453186035,-0.05210457369685174
4.854933261871339,-0.9317528605461122,9.966161727905273,-0.3810946643352509,-3.1046361923217773,-0.05654833093285561
5.110560417175293,-1.0901957750320437,10.018166542053224,-0.49679353833198553,-3.607581615447998,-0.09397731721401215
3.5994751453399663,-2.021035671234131,10.124534606933594,-0.5791062116622925,-4.2806363105773935,-0.19983398914337158
2.3844728469848633,-3.411891460418701,10.015603065490724,-0.5225590467453003,-5.257264137268066,-0.34812805056571966
3.003128290176392,-3.2868015766143803,9.92366695404053,-0.4323432445526123,-6.372179508209229,-0.4754640460014343
3.135855197906494,-2.7634453773498535,9.970497131347656,-0.4115864634513855,-7.58443307876587,-0.6323614716529847
3.4152576923370366,-1.9927101135253906,10.169188499450685,-0.43751877546310425,-9.022475242614748,-0.7548062801361084
5.248302459716797,-2.7075226306915288,10.761353492736818,-0.5136673450469971,-10.503116607666016,-0.9418742060661317
10.387348175048828,-3.276429414749146,12.528783798217773,-0.7619757056236268,-11.698394775390625,-1.0252665281295779
18.358898162841797,-4.505300045013429,14.008981704711914,-0.9261807203292847,-12.355765342712404,-1.177430033683777
30.627037048339844,-4.6282501220703125,13.59320068359375,-0.6560949087142944,-11.847065925598146,-1.5399949550628662
38.84360885620118,-4.594563007354737,14.735644340515138,-0.9712206125259399,-10.784923553466797,-1.4106551408767702
32.295795440673835,-4.266757488250733,13.846868515014648,-1.4607582092285156,-9.6101770401001,-1.2367455959320068
25.647315979003906,-10.006656646728516,14.556849479675295,-1.743696928024292,-9.308072090148928,-1.359774947166443
22.662244796752933,-9.647418022155763,17.334424972534183,-1.4981008768081667,-8.74323844909668,-1.6750534772872927
21.84775161743164,-9.771459579467773,22.302740097045902,-1.176605224609375,-7.773761749267578,-1.9285582304000857
14.209171295166016,-8.233528137207031,17.92888641357422,-1.0628310441970827,-6.295748710632324,-2.0039374828338627
15.526713371276857,-3.6866912841796875,17.496164321899418,-1.004124641418457,-5.577189922332765,-1.9963003396987917
46.48129653930665,-13.515630722045898,35.87190246582031,0.21290814876556396,-1.9828132390975954,-2.7642574310302734
18.545543670654297,-7.043875217437745,29.59673118591309,0.5707638859748841,1.9746063947677615,-2.0931458473205566
11.991906166076662,-7.1144304275512695,22.589273452758793,1.1247401237487793,4.56126356124878,-1.7975819110870361
7.211822509765625,-4.089847087860108,15.846567153930664,1.1506437063217165,6.09786319732666,-1.5885381698608398
2.5009720325469975,-1.8221410512924197,10.534613609313967,0.7669240236282349,6.691718578338624,-1.423396348953247
-2.15841007232666,-1.628983497619629,6.586820125579835,0.2762387990951538,6.740777015686035,-1.2012315988540652
-3.925921201705933,-2.5089006423950195,3.9708750247955327,-0.08070904016494751,6.518936634063722,-1.068493127822876
-2.587347984313965,-3.005345344543457,3.4787008762359624,-0.3392996490001679,6.1459503173828125,-1.031043291091919
-0.36633801460266113,-2.626133441925049,4.677162647247315,-0.5495486259460449,5.874237537384034,-0.8997387886047363
2.4784595966339116,-2.7396452426910405,6.670280933380128,-0.7679597735404969,5.936645984649659,-0.6239004135131836
4.619361400604249,-3.90889835357666,8.214500427246094,-0.8230150938034058,6.308247089385987,-0.26857495307922363
5.707570552825929,-5.47514533996582,8.783284187316896,-0.5878194570541382,6.813476085662843,0.09409404546022417
6.010778427124023,-5.419788837432862,8.031526565551758,-0.15101470053195956,7.210131645202637,0.39492407441139227
5.827199935913086,-3.371323585510254,7.231682777404785,0.07178457826375963,7.369904041290284,0.702089786529541
6.940739154815675,-1.2429416179656982,7.260231018066406,-0.0732625797390938,7.415837287902832,1.1159983873367312
8.23208999633789,-0.8499417304992676,7.571174621582031,-0.3916176855564118,7.4983110427856445,1.5608363151550293
8.163313865661623,-1.6740366220474245,7.688019275665284,-0.5734236836433412,7.524258613586426,1.8947685956954958
8.779346466064453,-2.481797218322754,8.255885124206545,-0.4915806949138642,7.43946123123169,2.1129798889160156
10.290696144104006,-2.1874032020568848,9.132209777832031,-0.2794090509414673,7.33482313156128,2.2811312675476074
11.921676635742188,-1.046087145805359,10.62325668334961,-0.1778792142868042,7.247772693634034,2.4145810604095463
14.089315414428711,-0.5469933748245239,12.524978637695312,-0.22823445498943332,7.226758003234863,2.5378372669219975
16.065740585327152,-1.0668721199035645,13.97227191925049,-0.22787256538867953,7.30186414718628,2.6312923431396484
17.451463699340824,-1.5479071140289307,14.782831192016602,-0.07177285104990007,7.37330436706543,2.680672883987427
18.60797119140625,-1.1167498826980593,15.012242317199709,0.13406893610954285,7.342106342315675,2.7002189159393315
20.1483154296875,-0.9963628053665161,15.41152858734131,0.2854242622852326,7.255797386169434,2.667172193527222
22.15137481689453,-1.5461087226867676,16.01668739318848,0.44084390997886663,7.157458782196046,2.5572237968444824
24.241146087646484,-1.9998388290405273,16.630826950073246,0.6384261250495912,7.029389381408691,2.3827397823333745
27.010974884033203,-1.870847463607788,16.477140426635746,0.8466416597366333,6.886970043182374,2.14977240562439
29.453248977661136,-1.037412166595459,15.054204940795898,0.8888697624206543,6.734483242034913,1.8467333316802979
30.007974624633793,-1.273447394371033,12.158303260803224,0.6931806802749634,6.525754928588867,1.402839541435242
30.29152870178223,1.3161282539367676,7.996790885925293,0.29348000884056097,6.17573356628418,0.7202406525611879
33.0349464416504,9.830011367797852,0.4318264126777649,-1.0890036821365359,5.745377540588379,0.15952742099761963
35.641822814941406,13.454645156860352,-9.32606315612793,-3.3854637145996094,5.275956630706788,-0.09174436330795288
41.590538024902344,4.971948146820069,-22.834421157836918,-4.603291034698487,4.802198886871339,-0.037111446261405945
40.51146697998047,-3.2670423984527592,-32.59096908569337,-3.3599987030029297,3.43364691734314,0.021285466849803925
27.09197998046875,-5.591891765594483,-31.43238067626953,-0.8326822519302368,0.3879746496677399,-0.13283593952655795
17.429578781127933,-1.0554739236831667,-20.550670623779297,1.2646964788436892,-2.271421432495117,-0.9491387009620668
15.17430305480957,3.3542439937591557,-4.728882312774659,1.65519380569458,-3.7149810791015625,-1.5929836034774782
15.450340270996094,0.7398007512092591,1.3835247755050661,1.4487495422363281,-5.9162869453430185,-1.5464890003204346
-8.579983711242678,1.6199100017547607,4.320969581604004,0.5049055814743042,-5.773765087127686,-1.2434550523757937
13.14644527435303,-3.2358753681182866,21.975580215454105,-0.8894984126091005,-6.348082542419434,-0.8834704756736756
28.17334747314453,-10.364342689514162,17.78237342834473,-0.5246107578277588,-6.043468475341797,-1.193439841270447
31.24327659606934,-1.5442899465560915,19.035135269165043,-0.06505156308412553,-5.2478227615356445,-0.45424667000770574
31.194629669189453,-0.5307468175888062,18.949380874633793,0.05108984559774399,-4.304825305938722,-0.48497596383094793
24.493822097778324,0.9248979091644287,18.6394214630127,0.2417604923248291,-3.143584489822388,-0.9295259714126587
11.71578598022461,-0.18973124027252197,13.062743186950685,0.28492781519889837,-2.3620297908782963,-0.9236577749252319
4.187229156494141,-1.5466043949127197,8.558591842651367,0.2468276768922806,-2.1755638122558594,-0.9245607256889344
11.891092300415039,-3.7420005798339844,11.034220695495607,0.7324908375740052,-1.990981101989746,-1.2097506523132324
15.552027702331545,-1.2887982130050661,13.238879203796388,0.9882043004035951,-0.9741967916488647,-1.1636317968368532
5.875148773193359,-2.733165740966797,8.7740478515625,1.052563786506653,-0.5358591675758363,-0.9660793542861938
8.89759922027588,0.9831193685531616,11.704966545104982,0.8449835777282715,-0.42965367436409,-0.668093204498291
6.7712907791137695,0.6563104391098022,10.839085578918459,0.6798547506332397,-0.17830280959606173,-0.4593274891376496
6.096243858337402,-0.16392046213150024,10.311190605163576,0.4871240258216858,-0.06842351704835893,-0.33649688959121704
4.756570339202882,-0.9145272374153138,9.838207244873047,0.3617870509624482,-0.009214320220053198,-0.2852236032485962
4.445911407470703,-1.0913703441619873,10.196362495422365,0.34365776181221014,-0.013703016564249992,-0.3521787822246552
4.453098297119141,-1.313431739807129,9.761677742004396,0.3125889301300049,-0.038632120937109,-0.4105596244335175
4.63704538345337,-1.1069223880767822,9.51365375518799,0.2927828133106232,-0.054133012890815735,-0.44459560513496404
5.369744777679444,-0.07305797934532166,9.701540946960451,0.2600421905517578,-0.10220514237880707,-0.3454179465770722
5.916473865509034,0.9745846390724183,9.933712959289553,0.14788554608821872,-0.1421392560005188,-0.15818969905376437
5.59770154953003,0.1613496392965317,9.672463417053224,0.033084567636251457,-0.13382118940353394,-0.036503374576568604
5.49849557876587,-0.11836742609739305,9.501509666442873,-0.03051998652517796,-0.10828274488449097,0.02772285602986813
5.149438381195069,-0.29927477240562445,9.479183197021484,-0.06992539763450623,-0.08076591789722443,0.06069015339016915
4.963473320007324,-0.4086197912693024,9.519200325012209,-0.1286682337522507,-0.08274836838245392,0.08255470544099809
4.782361030578613,-0.5016101002693177,9.465150833129883,-0.17781187593936923,-0.10164740681648254,0.09888854622840881
4.663238048553468,-0.812402904033661,9.332221984863281,-0.22378347814083102,-0.135707825422287,0.11078447848558427
4.824099540710449,-0.9719693660736084,9.252415657043459,-0.22807666659355164,-0.16264718770980835,0.104010246694088
4.706921577453613,-1.444566249847412,9.117600440979006,-0.17325620353221896,-0.17795634269714355,0.06203249469399453
4.685091495513917,-1.68393874168396,8.983346939086914,-0.10498707741498949,-0.18478333950042725,0.003091629594564438
4.8572540283203125,-1.6433318853378298,8.940153121948242,-0.04587322473526001,-0.17943163216114047,-0.052025556564331055
4.958223342895508,-1.2351981401443484,8.83353900909424,0.004043419379740954,-0.15413571894168857,-0.0951288640499115
4.948301792144776,-1.172356963157654,8.897588729858398,0.029188824817538265,-0.13108351826667786,-0.1213105395436287
