AccX,AccY,AccZ,GyrX,GyrY,GyrZ
0.0003980869369115681,-5.139044515090063e-05,0.0007459804764948786,3.165746704780759e-07,4.420816139827366e-07,-4.1586250176806066e-07
4.893423557281495,-0.636494815349579,9.288858413696289,0.0017615969991311433,0.005381420254707336,-0.004658607766032219
4.884215354919434,-0.6819335818290712,9.301728248596193,0.0015462874434888363,0.0031279253307729964,-0.006876080296933651
4.8494629859924325,-0.644287109375,9.32308101654053,0.004230799619108439,-0.0015766605501994493,-0.007281951606273651
4.885054111480714,-0.6499910950660707,9.308966636657717,0.0017657510470598936,-0.007329014595597983,-0.008536595851182938
4.889946937561035,-0.659199893474579,9.343374252319336,0.002772819017991424,-0.01083029992878437,-0.00986524112522602
4.931915283203125,-0.6222735643386841,9.311312675476076,0.002908737398684025,-0.014469522051513197,-0.01171642541885376
4.936849594116211,-0.602532148361206,9.292431831359865,-0.000747371232137084,-0.014317585155367851,-0.011862601153552534
4.933759212493897,-0.630478024482727,9.279430389404297,0.0006277402862906456,-0.012237862683832647,-0.010480998083949089
4.947675228118897,-0.6264170408248901,9.329462051391602,-0.0007362149190157652,-0.015053664334118368,-0.010594983585178854
4.932757854461671,-0.6330193877220155,9.295685768127443,0.0008391829323954881,-0.014847949147224426,-0.00952062848955393
4.899847984313965,-0.6357945203781128,9.274464607238771,0.0018088737269863488,-0.014914573170244695,-0.010911080986261368
4.8857316970825195,-0.6251515746116639,9.28354263305664,-4.303349123802036e-05,-0.013529273681342604,-0.011362295597791672
4.900132656097413,-0.6246353387832642,9.32222080230713,0.001078012981452048,-0.01596229523420334,-0.012002510949969292
4.90870237350464,-0.6423239707946777,9.292910575866701,0.0015115495771169662,-0.01875722594559193,-0.012832142412662506
4.923882007598878,-0.6266942024230957,9.325182914733888,-0.0006414384697563947,-0.022060303017497066,-0.014972718432545662
4.942412853240968,-0.6038643717765809,9.306633949279787,0.0002612297248560936,-0.022612344473600388,-0.014000703580677511
4.950794219970703,-0.5734583735466005,9.338367462158203,-0.002636055694893003,-0.021187610924243927,-0.01355835609138012
4.942914485931397,-0.6289303302764893,9.282861709594727,-0.00042481085984036326,-0.018541147932410244,-0.011345909908413887
4.9203553199768075,-0.6243008971214296,9.316235542297365,-0.00180760829243809,-0.019951207563281063,-0.011423878371715546
4.951589584350586,-0.6197802424430848,9.304812431335451,-0.0015952003886923196,-0.019665520638227463,-0.010732342489063742
4.9474334716796875,-0.6402639746665956,9.29800796508789,0.0002766537363640964,-0.01616422273218632,-0.012239522300660612
4.939528942108155,-0.6186374425888062,9.271420478820803,-0.00016006510122679174,-0.014971959404647352,-0.012315535917878151
4.913857460021973,-0.6478248834609985,9.279718399047852,0.0017198479035869243,-0.013902488164603712,-0.010685861110687256
4.897322177886964,-0.642635703086853,9.278371810913086,0.0034821140579879284,-0.01707847230136395,-0.014462074264883995
4.854805946350098,-0.6379616856575013,9.310783386230469,0.0018337505171075465,-0.02203325927257538,-0.015150731429457664
4.908206939697266,-0.6138428449630737,9.30752182006836,-0.0007663342403247952,-0.02755600027740002,-0.015181656926870346
4.941985130310059,-0.5813032388687134,9.299495697021484,-0.002333131851628423,-0.02790065295994282,-0.016525011509656906
4.964229583740234,-0.6011590957641602,9.294679641723633,-0.005313684232532978,-0.029362240806221965,-0.01360073871910572
4.9579482078552255,-0.6120079755783081,9.273291587829592,-0.005473098251968623,-0.030270904302597046,-0.011228233575820923
4.955695152282715,-0.6237398386001587,9.301178932189943,-0.004145991522818805,-0.028889313340187073,-0.012987365014851095
4.919988155364991,-0.636085033416748,9.292546272277834,-0.005855149123817683,-0.030072906985878948,-0.011925207450985909
4.965911865234375,-0.6381148695945741,9.299166679382326,-0.0032034707255661488,-0.03014154173433781,-0.010775407776236534
4.975215911865234,-0.6093382835388184,9.251832008361818,-0.0022961942013353114,-0.02691520005464554,-0.011373082175850868
4.972421169281007,-0.6378118991851807,9.272146224975586,0.00014782037760596725,-0.024914439767599106,-0.011582151986658575
4.933123588562012,-0.623878300189972,9.267799377441406,-0.001331128180027008,-0.021695997565984726,-0.012454033829271795
4.921670913696289,-0.6678401231765747,9.301488876342773,0.0015009470516815784,-0.020715981721878052,-0.012784657068550588
4.942458629608155,-0.6736432313919067,9.266407966613771,0.002826568437740207,-0.02342042326927185,-0.016539886593818665
4.909841060638429,-0.6036593914031982,9.303226470947266,0.002642603358253837,-0.02424433082342148,-0.018232667818665508
4.977360248565675,-0.6060815453529359,9.294038772583008,0.0021659012418240313,-0.026914609596133236,-0.017810657620429993
4.956183433532715,-0.5840264558792114,9.325320243835451,-0.00011647023347904907,-0.02699848636984825,-0.01472235191613436
4.99804449081421,-0.5685461759567261,9.306708335876467,-0.00032445730175822973,-0.025010781362652782,-0.013186835683882238
4.99247932434082,-0.5894692540168763,9.258432388305664,-0.0032448433339595795,-0.020320905372500423,-0.009526019915938377
5.003658294677734,-0.5987601876258851,9.27475357055664,-0.002862528432160616,-0.016600724309682846,-0.007752407807856799
4.967973709106445,-0.6197021007537842,9.26491451263428,-0.0020221124868839984,-0.013576816767454147,-0.006641773041337729
4.9234209060668945,-0.6593782901763916,9.268922805786133,-0.0015755275962874295,-0.012922396883368492,-0.0088143739849329
4.932647228240968,-0.6386078000068666,9.288080215454102,0.0008367122500203551,-0.014181410893797874,-0.011920559220016004
4.951015472412109,-0.6262368559837342,9.31192398071289,0.0006680292426608504,-0.01808610372245312,-0.011262224987149239
4.950408935546875,-0.6353020668029785,9.299302101135256,0.0018383314600214364,-0.01670151948928833,-0.011824180372059347
4.951338291168214,-0.6355000138282777,9.314484596252443,0.0022134890314191584,-0.018923602998256683,-0.01330084353685379
4.969435214996339,-0.6003705859184266,9.277458190917969,0.000926469045225531,-0.018136344850063324,-0.013060695491731169
4.986295700073242,-0.5998742580413818,9.302823066711428,-0.0007966728298924864,-0.018227005377411846,-0.011084899306297302
4.960785388946534,-0.6114712953567505,9.29115962982178,-0.0011928891763091087,-0.016164073720574382,-0.009692549705505371
4.971654891967773,-0.6341274976730347,9.2891845703125,-0.0003207145200576634,-0.016685795038938522,-0.011003062129020691
4.9793596267700195,-0.6123511195182801,9.270924568176271,-0.00035067493445239967,-0.013810409232974052,-0.008678494952619078
4.941211700439453,-0.6382213830947876,9.295040130615234,0.001367209595628083,-0.01163268741220236,-0.010245872661471367
4.907010555267335,-0.6464536786079408,9.254136085510256,0.0028528876136988406,-0.011537497863173485,-0.011621075682342054
4.939577102661133,-0.6390518546104432,9.30517101287842,0.0032461220398545265,-0.013705772347748281,-0.014991168864071371
4.947138786315918,-0.6081728935241699,9.301582336425781,0.002885546768084169,-0.015858281403779984,-0.015321747399866583
4.948756694793702,-0.5774982571601869,9.289968490600586,8.058019011514263e-05,-0.019425569102168087,-0.014352032914757729
4.9699416160583505,-0.5769726037979126,9.290024757385256,0.000484293675981462,-0.019974799826741222,-0.013167396187782288
4.965314388275147,-0.589833438396454,9.295102119445803,-0.0021966523490846157,-0.01847339235246182,-0.011183648370206358
4.969676971435547,-0.6203865408897401,9.268064498901367,-0.0037481430917978287,-0.01802690885961056,-0.008775344118475914
4.966308116912843,-0.6355296969413758,9.280360221862795,-0.0012884775642305613,-0.017496109008789062,-0.009217577986419203
4.937995910644531,-0.6329342126846313,9.289784431457521,-0.001149697112850845,-0.013908620923757553,-0.010757508687675001
4.9576826095581055,-0.6629666090011597,9.308273315429688,0.0021661189384758472,-0.01479929964989424,-0.013639141805469992
4.9557085037231445,-0.6389056444168091,9.30617427825928,0.003184470580890775,-0.015697110444307327,-0.011473552323877813
4.944096088409425,-0.6382812261581421,9.286670684814453,0.0025653704069554806,-0.017258286476135254,-0.012733909301459791
4.929660797119141,-0.6013675928115845,9.280367851257326,0.0014235953567549588,-0.019752483814954758,-0.015053364448249342
4.967658996582031,-0.6007928848266602,9.245697021484375,-9.298062650486827e-06,-0.022202430292963985,-0.013740391470491888
4.945279598236085,-0.5895003080368042,9.283644676208498,-0.0018569764215499163,-0.02211900614202023,-0.013933222740888596
4.9491729736328125,-0.6027843952178955,9.287112236022951,-0.0029073387850075964,-0.022442134097218517,-0.01281343586742878
4.986927509307862,-0.6170839071273804,9.276644706726076,-0.004779773764312267,-0.022504726424813274,-0.010728960856795311
4.989508628845215,-0.6129945516586304,9.289359092712404,-0.004152987617999316,-0.021100986748933792,-0.01089353859424591
4.968306064605714,-0.6132419705390931,9.260905265808107,-0.0031693952623754744,-0.019626010209321976,-0.01091620046645403
5.001111030578613,-0.6255635023117065,9.272525787353516,-0.0014389223651960494,-0.01821532286703587,-0.01036997139453888
5.009661674499512,-0.6371117234230043,9.278906822204592,9.071085514733569e-05,-0.015888165682554245,-0.011325999163091184
4.989644527435304,-0.6231244802474976,9.270772933959961,0.0017241185996681452,-0.012052054516971113,-0.009949614293873312
4.936842441558839,-0.6315492987632753,9.25590705871582,-0.0007911087013781071,-0.011813067831099035,-0.010545074939727783
4.939618110656738,-0.6272248029708862,9.260830879211428,0.001101223402656615,-0.013244266621768476,-0.01203436404466629
4.942998886108398,-0.6216679215431214,9.28493881225586,0.002806996461004019,-0.017178079113364223,-0.012183861806988716
4.976956844329835,-0.6091903448104858,9.292123794555664,0.00020737289742100987,-0.019174955785274506,-0.013525716960430145
4.982426643371582,-0.6010935306549072,9.321006774902344,-0.00046534489956684416,-0.019519980996847153,-0.010185158811509611
4.981270790100098,-0.6038365960121156,9.278725624084474,0.0006315979990176858,-0.020260015502572063,-0.011687146499752998
4.978655815124512,-0.6454243659973145,9.28462314605713,-7.619572716066615e-05,-0.01956341788172722,-0.012966872192919256
5.004870414733887,-0.6230827569961548,9.287636756896974,-0.0014991587959229946,-0.01875887624919415,-0.012080210261046888
4.997041702270508,-0.6191710233688354,9.254101753234865,-0.0003749238676391542,-0.015982592478394512,-0.010079296305775642
4.972372055053711,-0.6364877223968506,9.276804924011232,0.0017066205618903043,-0.01578793488442898,-0.011273568496108055
4.982566833496094,-0.6385520696640015,9.259576797485352,0.0030861161649227142,-0.013045969419181349,-0.01044672355055809
4.961182594299316,-0.6295453906059266,9.263046264648438,0.003446138231083751,-0.012275135144591331,-0.012121515348553658
4.971474647521973,-0.6470600962638856,9.257013320922852,0.0037730161566287283,-0.00955895520746708,-0.012881235219538214
5.001364707946777,-0.6033172607421875,9.289196968078615,0.0065109608694911,-0.010515712201595306,-0.013270252384245397
4.972122669219972,-0.6008586883544922,9.26988410949707,0.005090221296995879,-0.010469399392604828,-0.013998062349855902
4.985421657562257,-0.6117063760757446,9.277795791625977,0.003873058594763279,-0.011825888417661192,-0.012517499737441541
4.992600917816163,-0.5860109329223633,9.262874603271484,0.00422022957354784,-0.009000199846923353,-0.010936347767710686
4.976239681243897,-0.6137644648551942,9.290868759155273,0.0030536593403667216,-0.008511968888342382,-0.01046738214790821
4.995021820068359,-0.6148285865783691,9.296598434448242,0.0022895422298461203,-0.009127810597419739,-0.011003863997757437
4.972616195678711,-0.6111539006233216,9.267156600952148,0.00020607486658263954,-0.008463392034173012,-0.009243510663509369
4.99189329147339,-0.6210123300552368,9.274847030639648,0.0009527892107143998,-0.00960985478013754,-0.009727736935019493
5.0091519355773935,-0.6245221495628358,9.28538227081299,0.0023791580460965633,-0.005828666500747204,-0.010658434592187406
5.026258945465089,-0.6119614243507386,9.278162956237795,0.003075121436268091,-0.00368214980699122,-0.008459851145744324
5.015952587127686,-0.6112579107284546,9.302161216735842,0.004341386258602142,0.0008745679515413941,-0.008078736253082754
5.020772933959961,-0.5789854526519775,9.257260322570803,0.005203617736697197,0.004234543535858394,-0.006995189934968948
4.989792823791504,-0.567582368850708,9.288778305053711,0.003978187683969737,0.008268018253147604,-0.004585321992635727
5.016545772552491,-0.5826373100280762,9.301908493041992,0.0003254945622757077,0.014233457855880262,-0.00011064036516472697
5.072925567626953,-0.582852065563202,9.29099750518799,0.004708446562290192,0.018124384805560115,0.0010284889722242954
5.050217628479004,-0.5997653007507324,9.251688003540039,0.005149811506271362,0.02782103978097439,0.003333484288305044
5.030898094177246,-0.5915062427520752,9.303192138671875,0.0096559738740325,0.03694260492920876,0.006388166919350624
4.733830928802491,-0.6416903138160707,9.287332534790039,0.007898418232798576,0.03446637466549874,0.006650160066783428
4.460407257080078,-0.9004181027412416,9.353835105895998,0.0077319396659731865,0.0053538777865469464,-0.011164127849042417
4.886663436889648,-0.6850701570510864,9.36454486846924,0.009208915755152702,-0.025196591392159465,-0.022546347230672836
5.033495426177979,-0.4767988324165344,9.334117889404297,0.0021480645518749957,-0.02834582515060902,-0.017901543527841568
4.952849864959718,-0.5982389450073242,9.272349357604982,-0.0022426343057304625,-0.02598249539732933,-0.011956187896430494
4.9832305908203125,-0.5639380216598511,9.268669128417969,0.002036969643086195,-0.021668618544936184,-0.011952764354646208
4.985125064849854,-0.6201326847076416,9.256839752197266,-0.0005815951153635979,-0.016690740361809734,-0.010838065296411514
4.993350505828858,-0.5722264647483827,9.260317802429201,0.0005689276149496436,-0.01332785002887249,-0.01064597722142935
4.995132923126222,-0.5861923694610596,9.2561731338501,-0.0027438653632998466,-0.006122950930148364,-0.006251000799238682
4.951042652130128,-0.6203230619430542,9.24997329711914,0.0002956451498903334,-0.00015601569612044844,-0.0037509289104491477
4.906567096710206,-0.5971403121948242,9.272573471069336,0.0031348811462521553,-0.0005202831816859544,-0.0052435798570513725
4.816405773162843,-0.6894208192825317,9.28190326690674,0.0030313355382531886,-0.006256409455090762,-0.010521741583943367
4.781607151031495,-0.6590533256530762,9.34889030456543,0.0025204943958669905,-0.0183970145881176,-0.016865389421582225
4.8867645263671875,-0.6497176289558412,9.334342002868654,-0.0005896335933357477,-0.032067682594060905,-0.019524505361914638
4.920438766479492,-0.6018486618995668,9.288118362426758,-0.0020019493531435732,-0.036692529916763306,-0.0221067275851965
4.965912818908691,-0.6052450537681581,9.342167854309084,-0.0031665978021919727,-0.039951391518116,-0.021634800359606746
4.934640407562257,-0.6049992442131044,9.329660415649414,-0.0052298116497695455,-0.04385034739971161,-0.02102453447878361
4.971406936645508,-0.5689349174499512,9.32454013824463,-0.008101620711386206,-0.05039554834365845,-0.021573439240455627
5.014565467834473,-0.5394532084465028,9.301977157592773,-0.009709405712783338,-0.04799389839172363,-0.0168344471603632
4.989636898040772,-0.5669607520103456,9.264482498168945,-0.014021066017448904,-0.04298810288310052,-0.011530429124832153
4.9901123046875,-0.665546178817749,9.257025718688967,-0.011546814814209938,-0.03843155130743981,-0.0106266550719738
5.013591289520265,-0.5914106965065004,9.285601615905763,-0.009411834180355072,-0.03583217784762383,-0.010516547597944738
5.028848171234132,-0.6042603254318237,9.250744819641115,-0.008024609647691252,-0.031659163534641266,-0.009694478474557401
4.91691541671753,-0.6075594425201416,9.20920181274414,-0.006268808152526618,-0.029369732365012172,-0.011648843064904213
4.895630359649659,-0.671496093273163,9.268858909606935,-0.005922721698880196,-0.035315986722707755,-0.01618567481637001
4.938586235046387,-0.6773025989532471,9.294007301330568,-0.00453804573044181,-0.04139960557222366,-0.02108847349882126
4.942348003387452,-0.6013628244400024,9.283545494079592,-0.004127951804548503,-0.04493507742881775,-0.0238755326718092
4.99042844772339,-0.6021442413330078,9.314472198486328,-0.0034761705901473765,-0.04576168581843377,-0.02278851345181465
4.982013702392578,-0.5647152066230775,9.31939697265625,-0.00561975222080946,-0.04688875004649163,-0.021034453064203262
5.037592887878418,-0.5777869820594789,9.285403251647951,-0.01042017061263323,-0.048783332109451294,-0.01983027532696724
5.090388298034668,-0.5504933595657349,9.275437355041506,-0.011960334144532682,-0.046246230602264404,-0.013925456441938879
5.085114002227784,-0.6168942451477051,9.232887268066406,-0.011642936617136002,-0.03803834319114685,-0.010271738283336164
5.052020549774171,-0.6925314664840698,9.201620101928711,-0.007166155148297549,-0.0287456251680851,-0.010815112851560118
4.95066785812378,-0.6649278402328491,9.221777915954592,0.00090003851801157,-0.020786711946129802,-0.014309532009065153
5.010381698608398,-0.6738330721855165,9.237955093383789,0.005018073599785567,-0.019217923283576965,-0.019607072696089748
4.96773386001587,-0.6579525470733643,9.259138107299805,0.006072146352380515,-0.017853336408734325,-0.021903079003095627
4.901371955871582,-0.6467667818069458,9.273504257202148,0.0068760821595788,-0.022166395559906963,-0.025343172252178192
5.052572250366211,-0.5982271432876587,9.269474029541016,0.010828590951859953,-0.02535282075405121,-0.025962308049201965
5.0230164527893075,-0.5745301246643066,9.295878410339357,0.005204431712627411,-0.02266154251992703,-0.022981170564889908
5.04814100265503,-0.6042076945304872,9.287686347961428,0.001744564389809966,-0.02383243665099144,-0.01950461603701115
5.085045337677003,-0.5022845864295961,9.24630355834961,0.0022066733799874783,-0.022129500284790996,-0.015563836321234703
5.102448463439941,-0.5022761821746826,9.254212379455568,-0.0006133286515250802,-0.013795887120068075,-0.007370895240455867
5.021626949310304,-0.6078160405158998,9.241820335388185,-0.00291685457341373,-0.005053163506090641,-0.0022820096928626303
5.038110256195069,-0.6128570437431337,9.252673149108888,-0.0015350490575656297,-0.002664512721821666,-0.0020484779961407185
4.999027729034425,-0.6195169091224672,9.269580841064453,-0.003664648858830333,-0.0020994050428271294,-0.0034191093873232607
5.04040288925171,-0.6020116209983827,9.29191780090332,-0.00495608663186431,-0.004162289202213287,-0.0013291789218783379
5.0970778465271005,-0.5543872714042665,9.288361549377443,-0.004609081894159317,0.0006899627042002977,0.003079512622207403
5.206824779510499,-0.5747393369674683,9.21621608734131,-0.0008639272418804468,0.013507108204066755,0.00504453107714653
5.264783382415772,-0.618487298488617,9.237791061401367,0.006712539121508598,0.036484885960817344,0.011152388527989388
5.283299446105957,-0.5333964228630067,9.184892654418945,0.013136649504303932,0.06354496628046037,0.017927912995219234
5.230945110321046,-0.45375254750251776,9.219391822814943,0.017675338312983516,0.09520597755908966,0.031100383028388027
4.776576042175293,-0.7169376015663148,9.155479431152344,0.024848971515893936,0.10878321528434753,0.028931332752108577
4.790596008300781,-0.819892704486847,9.282541275024414,0.03458089753985406,0.09369969367980957,0.013310027308762075
4.808172225952148,-0.7799296379089355,9.207289695739748,0.04717280343174935,0.08779129385948181,0.005854207091033459
4.496314525604249,-0.7678065299987793,9.385025024414062,0.04360219463706017,0.06640401482582092,-0.010692297481000425
4.854324817657472,-0.8370086550712587,9.371091842651367,0.042481828480958946,0.0364089347422123,-0.02177238091826439
4.897416114807129,-0.521718204021454,9.3483362197876,0.03724147006869317,0.0286509171128273,-0.023174850270152095
5.001857757568359,-0.3837915062904358,9.374390602111818,0.02362235262989998,0.021642478182911876,-0.014634392224252226
5.060325622558594,-0.4407954216003418,9.320398330688477,0.014629543758928778,0.022514838725328445,-0.0017622042214497926
4.977136135101319,-0.49886178970336914,9.308631896972656,0.003630110528320074,0.028901822865009308,0.004945404361933471
4.913867473602296,-0.566696584224701,9.325854301452638,-0.006348297465592624,0.013500139117240906,-0.0038374981377273802
4.996406078338624,-0.5787176489830018,9.335479736328125,-0.01718959026038647,0.01358935609459877,-0.009062856435775757
5.118360996246339,-0.35637861490249634,9.35870361328125,-0.050390217453241355,0.029241986572742462,-0.0025600807275623087
5.173439979553223,-0.575955867767334,9.340240478515625,-0.07467876374721527,0.05451801419258118,0.01277414057403803
5.086062908172608,-0.5349207520484925,9.271512031555178,-0.063749797642231,0.08441703021526337,0.017726248130202297
4.968487739562988,-0.5890805125236512,9.303031921386719,-0.04704633355140686,0.0972435548901558,0.027243105694651607
4.781832218170167,-0.6704756021499634,9.292027473449709,-0.02960176393389702,0.09759049862623216,0.03302794694900513
4.637707710266113,-0.767735481262207,9.305917739868164,-0.013877982273697853,0.08071811497211456,0.025504941120743755
4.698748588562012,-0.7707387208938599,9.322777748107912,-0.00773996813222766,0.06652466952800751,0.015976937487721447
4.748375415802003,-0.6936784982681274,9.262805938720703,-0.00155461544636637,0.05587504059076309,0.00850214995443821
4.826805114746094,-0.6145376563072206,9.250455856323242,0.005859317723661662,0.05276436358690262,0.004363128449767829
4.829217910766602,-0.7075464129447938,9.314988136291506,0.010698182508349419,0.049207188189029694,0.0025093632284551863
4.848783493041992,-0.6911143064498901,9.313117027282717,0.018765725195407867,0.045684989541769035,0.0004351087845861912
4.819396018981934,-0.5636850595474243,9.348173141479492,0.017767053097486496,0.045213442295789726,0.0015124973142519595
4.872514724731445,-0.5733360052108765,9.347476005554201,0.0077900392934679985,0.038278106600046165,-0.0001201513223350048
4.858244895935059,-0.6013398170471191,9.28959846496582,0.008672583848237991,0.045626141130924225,0.0047231954522430905
4.886073589324952,-0.718726396560669,9.25593662261963,0.019109200686216354,0.051911275833845145,0.0037436657585203648
4.861603736877441,-0.701221227645874,9.242752075195312,0.03130051866173745,0.06325072050094604,0.002788260579109192
4.933816909790039,-0.5027930736541748,9.21959114074707,0.04212532564997674,0.07915917038917542,0.0043895463459193715
4.8744001388549805,-0.583611249923706,9.18963623046875,0.04567573219537735,0.0964335948228836,0.009793459437787535
4.881951332092285,-0.5044583082199097,9.306055068969727,0.050149347633123405,0.11104230582714081,0.011964769102633001
4.790345191955566,-0.5881282091140747,9.25624179840088,0.05084212124347687,0.11835748702287675,0.014955411665141584
4.770337581634522,-0.467190682888031,9.455625534057617,0.036994408816099174,0.11469116806983948,0.028505491092801098
4.681166172027589,-0.6765830516815186,9.518352508544922,0.0279205609112978,0.10698211938142778,0.030229412019252777
4.6474318504333505,-0.763968050479889,9.484057426452638,0.026956083253026012,0.09241858124732971,0.02898926474153996
4.54987907409668,-0.6206351518630981,9.527562141418459,0.02535246498882771,0.07604484260082245,0.020932495594024658
4.626855850219727,-0.45336759090423584,9.573153495788576,0.015027168206870558,0.05118364095687866,0.014155515469610693
4.743047714233398,-0.31901270151138306,9.511224746704102,-0.008032503537833692,0.034657921642065055,0.024874377995729446
4.582655429840089,-0.5656003952026367,9.34150791168213,-0.025206539779901505,0.026212980970740322,0.03373636305332184
4.662694454193116,-0.35827046632766724,9.440808296203615,-0.031086487695574764,0.015611471608281136,0.03329367935657501
4.11705207824707,-0.42125052213668823,9.3176965713501,-0.057111885398626334,-0.005546205677092075,0.035934958606958396
4.599536895751953,-0.6140097975730897,9.573365211486818,-0.0831715315580368,-0.0513092577457428,0.021431090310215953
4.860638618469238,-0.5161069035530091,9.55568599700928,-0.09435207396745683,-0.05608305335044861,0.02789515443146229
4.308562755584718,-0.35035139322280884,9.492495536804201,-0.1505692154169083,-0.07843253016471863,0.041707493364810944
4.473010540008546,-0.9609440565109253,9.554976463317873,-0.16063849627971652,-0.11263717710971832,0.02806630171835423
4.974133968353272,-0.7272727489471436,9.495450019836428,-0.16191942989826205,-0.12821744382381442,0.026522289961576462
4.862161636352539,-0.7009172439575195,9.53722667694092,-0.16103342175483704,-0.11728238314390184,0.0364639014005661
4.850306034088136,-1.1190855503082275,9.451492309570312,-0.15394610166549683,-0.11160931736230852,0.03224988654255868
4.895714282989503,-0.9193655252456665,9.413944244384766,-0.13158227503299716,-0.10454627871513367,0.02625142224133015
4.911338329315186,-0.7290407419204712,9.470788955688477,-0.12078138440847398,-0.09391842037439348,0.02816539630293846
4.767408847808839,-0.7522768378257753,9.49500370025635,-0.13623350858688354,-0.09872893244028093,0.03126902133226395
4.480900764465332,-0.903962254524231,9.319109916687013,-0.14724799990653992,-0.11285179108381273,0.020074510946869854
4.6441497802734375,-0.7694103717803955,9.46286392211914,-0.15907257795333862,-0.13468541204929355,-0.0004868987016379833
4.544820785522461,-0.7938253879547119,9.277143478393555,-0.16671110689640048,-0.14452348649501803,0.0008693921845406294
4.54789686203003,-0.5469695925712587,9.4838342666626,-0.19161635637283325,-0.1762690991163254,-0.0036311796866357327
4.577146530151367,-0.8128631711006166,9.384284973144531,-0.20350961387157443,-0.19963181018829346,-0.010630384087562561
4.615138530731202,-0.8663742542266846,9.402987480163576,-0.210056334733963,-0.223037526011467,-0.01890106126666069
4.917628765106202,-0.8691165447235107,9.387578964233398,-0.1988954991102219,-0.2410482615232468,-0.033142924308776855
4.729942798614503,-0.8834168910980225,9.370728492736818,-0.19942018389701843,-0.2513877451419831,-0.03812780976295471
4.610216617584229,-1.0350362062454226,9.510616302490234,-0.2123013883829117,-0.2635047435760498,-0.06440979242324829
4.780325889587402,-0.9844934940338135,9.411208152770998,-0.22316884994506836,-0.2939158380031586,-0.10103951394557953
5.082391738891602,-0.7861082553863525,9.248897552490234,-0.2279530316591263,-0.3065438568592072,-0.10657715797424316
5.211163520812988,-0.8843492269515991,9.06804084777832,-0.2249538749456406,-0.297990083694458,-0.09364401549100877
4.89616584777832,-0.9218140840530396,9.079350471496584,-0.20809611678123474,-0.29517403244972235,-0.07759914547204973
5.072187900543214,-1.0662671327590945,9.09242057800293,-0.18601354956626892,-0.30393275618553167,-0.0810200423002243
5.108952522277832,-1.3130462169647217,9.086986541748047,-0.15166099369525912,-0.3028035461902619,-0.08779266476631165
5.121255397796632,-1.036970853805542,9.099501609802248,-0.12312434613704681,-0.2988851368427277,-0.10219356417655945
5.375078678131104,-0.8636738657951356,9.032609939575195,-0.10848462581634521,-0.29138478636741644,-0.08808229118585588
5.191135406494141,-0.9737646579742432,9.151801109313967,-0.10189511626958848,-0.28921085596084595,-0.07071246951818468
5.32078742980957,-0.9568452835083008,9.164717674255373,-0.09651623666286469,-0.30253177881240845,-0.0701909437775612
5.310269355773926,-0.9477328062057495,9.131488800048828,-0.0941106528043747,-0.3056818544864655,-0.060393400490283966
5.305792808532715,-0.999247968196869,9.162249565124513,-0.08752396702766418,-0.3201324045658112,-0.06823743134737016
5.046494483947754,-0.9026771783828735,9.239057540893555,-0.09490779042243958,-0.34928312897682195,-0.08581101894378662
4.774473190307617,-1.5225377082824707,9.048116683959961,-0.06987106800079346,-0.4274898171424866,-0.12198587507009508
4.764101028442383,-1.221928358078003,9.382625579833984,-0.06121023371815682,-0.5081313848495483,-0.15008227527141574
4.746811866760254,-1.025463342666626,9.522906303405763,-0.07262162864208221,-0.6087462306022645,-0.15461511909961703
4.075433254241944,-1.1758027076721191,9.66420650482178,-0.040909916162490845,-0.7809326052665712,-0.1389908492565155
4.251971244812012,-0.9212157726287842,9.867869377136232,-0.019240282475948334,-1.0225183963775635,-0.12764172255992892
4.313478946685792,-1.0605223178863525,9.73274898529053,-0.037395186722278595,-1.2748590707778933,-0.11889253556728363
4.283301830291749,-1.0404917001724245,9.98647212982178,-0.09924761950969696,-1.5353862047195437,-0.12165123969316484
4.559769630432129,-0.7297080755233765,9.981884002685547,-0.1482142359018326,-1.8283092975616455,-0.10750078409910203
4.483171463012695,-0.7284568548202515,10.195259094238281,-0.16593101620674133,-2.136091709136963,-0.07068628817796709
4.603050231933594,-0.39513751864433294,10.209173202514648,-0.1654130667448044,-2.509337902069092,-0.04506367072463036
4.8415265083313,-0.7708027362823486,10.080488204956055,-0.21695928275585177,-2.8521976470947266,-0.037221066653728485
4.570287704467773,-1.2652577161788943,10.049337387084961,-0.2584857642650605,-3.2683615684509277,-0.06988220661878587
5.002411842346191,-1.8504528999328613,9.89892101287842,-0.22817042469978333,-3.647817611694336,-0.14203549921512607
4.283962249755859,-1.9570066928863525,9.44333267211914,-0.15837320685386658,-4.100964069366456,-0.24927285313606262
3.389631032943726,-2.719027519226074,8.277503013610842,0.14022624492645264,-4.823556423187257,-0.5375149846076966
4.840537071228027,-2.507036924362183,8.959455490112305,0.3954383134841919,-5.6475586891174325,-0.8167238235473633
5.428766250610352,-2.6581554412841797,8.834053039550781,0.5840085148811341,-6.462285518646241,-0.9479186534881592
6.322216033935547,-2.5629389286041264,9.041628837585451,0.6738744974136353,-7.406118869781495,-1.0554122924804688
6.790993213653565,-2.584924936294556,9.425496101379396,0.6306673884391786,-8.293085098266602,-1.2636675834655762
9.633232116699219,-3.3270094394683842,10.306257247924805,0.4785118103027344,-9.047917366027834,-1.53822660446167
14.778343200683594,-3.72185492515564,10.712924003601076,0.4030896127223969,-9.391520500183107,-1.8303380012512207
19.565570831298828,-2.83831787109375,12.068032264709474,0.4833244979381562,-9.390689849853516,-2.148339986801148
26.023391723632812,-1.902881979942322,11.624513626098633,0.27616378664970404,-8.663061141967773,-2.0941319465637207
29.89559555053711,-3.383788585662842,13.377415657043459,0.1977216601371765,-7.913310527801515,-1.9177978038787842
23.820751190185547,-3.660711526870728,11.759979248046875,-0.2933036684989929,-7.188413619995117,-1.6064609289169314
19.12588119506836,-6.030847549438477,9.776629447937013,-0.4420457780361176,-7.296822547912598,-2.0183508396148686
23.91848945617676,-8.262176513671875,14.981938362121584,0.10108438879251481,-6.794231414794922,-2.529554843902588
17.680316925048828,-8.195542335510256,18.373947143554688,0.3292603194713593,-6.129705429077148,-2.7159445285797124
16.05447769165039,-9.325263023376467,19.821666717529297,0.609825611114502,-4.633440971374512,-2.478561162948609
5.534416198730469,-5.424896717071534,9.576948165893555,1.368730068206787,-3.847448110580445,-2.5600414276123047
35.66569900512696,-7.434409141540527,27.351871490478516,1.068620800971985,-2.1928820610046387,-2.0631489753723145
16.43553733825684,-5.9351043701171875,24.497570037841797,0.860609769821167,0.8498037457466127,-1.4887094497680664
9.67880153656006,-5.847342967987061,19.125701904296875,0.7176278233528138,2.579203844070435,-1.097214698791504
6.385259151458741,-5.59578561782837,15.187379837036133,0.7424548268318177,3.730398654937744,-0.8165253996849061
1.6723886728286745,-3.6804745197296147,10.513221740722656,0.693863332271576,4.211892127990723,-0.6731307506561279
-0.8446831107139589,-3.1424427032470703,7.8633270263671875,0.4593477249145508,4.351260662078858,-0.5771160125732422
-1.5080701112747195,-2.4463331699371342,6.120169639587402,0.17938251793384555,4.34029245376587,-0.4860880374908447
-1.891513228416443,-1.9772919416427615,5.534049034118652,-0.18004953861236572,4.269011020660401,-0.2593451142311096
-0.35390725731849676,-1.95695698261261,6.370202541351319,-0.6259712576866151,4.235030174255371,0.09647107124328613
1.9637155532836914,-2.8350977897644043,7.812744617462159,-0.9188274145126343,4.414189815521241,0.46587663888931274
3.736865997314453,-4.346971035003663,9.16162967681885,-0.9238062500953675,4.812260150909425,0.800334095954895
4.724815845489503,-5.105605125427246,9.789229393005373,-0.6514385342597963,5.3486175537109375,1.0351151227951052
5.026476860046387,-4.346553802490234,9.583166122436523,-0.33131247758865356,5.828410625457765,1.249127507209778
5.006484031677246,-2.9100372791290288,8.897188186645508,-0.15801039338111877,6.183125019073487,1.503572702407837
5.665428161621094,-1.6802195310592654,8.38528823852539,-0.16479814052581787,6.455165863037109,1.7932571172714236
5.6619582176208505,-0.862891674041748,7.713767051696777,-0.2664158344268799,6.639647960662843,2.064785957336426
5.024415969848633,-0.1591472327709198,6.981759548187257,-0.3800849616527558,6.6502580642700195,2.2576866149902344
4.841104030609132,0.6357979178428651,6.757616996765137,-0.5184636116027832,6.480945110321046,2.3877487182617188
5.701021671295167,0.9064188599586488,7.4986419677734375,-0.6516174077987671,6.250306129455566,2.418176412582398
7.201235771179199,0.8565446138381958,8.93397331237793,-0.7254824638366699,6.076529979705811,2.348808765411377
8.948626518249513,0.5732713937759399,10.649784088134766,-0.7273541092872621,6.023686408996582,2.202101707458496
10.245350837707521,0.2579862773418427,11.998863220214844,-0.6319655776023866,6.064225196838379,2.0346748828887944
10.763944625854492,0.4310870468616486,12.685598373413086,-0.5025728940963745,6.109465599060059,1.8757392168045046
11.105409622192383,0.7208156585693359,12.836644172668459,-0.4162432253360749,6.07859992980957,1.7493873834609988
11.641846656799318,0.8081201910972596,12.997319221496584,-0.37284421920776367,5.943602085113526,1.6330059766769411
13.322558403015138,0.6910011768341064,13.76416873931885,-0.38144952058792114,5.733276844024659,1.5038697719573975
15.787322998046875,0.6525161266326904,15.023562431335451,-0.41788381338119507,5.5435895919799805,1.3844467401504519
18.37881660461426,0.6819647550582886,16.30916786193848,-0.47647207975387573,5.429058551788331,1.2728490829467773
21.775413513183594,0.5291600227355957,17.54330062866211,-0.5493944287300111,5.388367652893066,1.186070442199707
25.886514663696293,0.04046913981437683,18.433126449584964,-0.5663219094276429,5.503462791442871,1.088637709617615
28.736007690429688,1.0318589210510254,17.403245925903324,-0.5607287883758545,5.7659454345703125,1.0122083425521853
28.894842147827152,3.4094791412353516,14.469521522521974,-0.8310204744338989,5.997642993927003,1.0078027248382568
27.25963592529297,3.7147877216339116,9.94929599761963,-1.2692499160766602,5.998055934906007,1.0576585531234743
24.83917045593262,1.6880998611450195,5.798813819885254,-1.4603114128112793,5.637660503387452,0.9726914167404175
26.01461219787598,3.340308666229248,0.927355468273163,-1.3534224033355713,4.996826171875,0.7467730641365052
27.86077690124512,5.928297519683839,-4.854098320007324,-1.4107179641723633,4.328622341156007,0.568398118019104
29.93923568725586,7.442171573638917,-11.72212886810303,-1.7253634929656982,3.662578344345093,0.39039537310600286
32.28911590576172,5.615011215209961,-18.780641555786136,-1.8022243976593018,2.8364875316619877,0.2826244831085205
29.780588150024418,3.383620262145996,-23.171800613403324,-1.2329443693161013,1.634165406227112,0.2541775703430176
22.1944580078125,3.351675033569336,-21.450607299804688,-0.38508656620979315,-0.1550237536430359,0.10080692917108537
10.939196586608888,1.3279454708099365,-11.1008996963501,0.5463877320289613,-1.9938666820526123,-0.19466549158096313
19.411476135253906,-1.327303171157837,-13.658670425415039,2.6814990043640137,-4.847548961639405,-1.2994377613067627
-10.764936447143555,8.770375251770021,4.304603576660156,2.2941124439239506,-5.555264949798585,-2.387387275695801
16.378307342529297,4.725664615631104,29.557010650634766,0.712653398513794,-5.296159267425538,-1.979762315750122
21.373968124389652,-7.669135093688965,19.07327461242676,0.46695321798324585,-4.519821643829347,-2.304653406143189
21.176990509033203,-4.555194377899171,11.469572067260742,1.2356257438659668,-4.265048503875733,-1.775651216506958
25.720827102661136,-0.8736956119537354,16.969152450561527,0.7403502464294434,-3.7206010818481445,-0.42625859379768377
25.515106201171875,3.6363258361816406,19.986515045166016,0.4833020567893982,-2.6984775066375737,-0.4067597985267639
11.855196952819826,6.387744426727296,14.44024181365967,0.22655768692493441,-1.984060525894165,-0.5047186613082886
4.865789413452148,3.4576537609100346,9.565670013427734,0.055536285042762756,-1.87942111492157,-0.643332839012146
6.914322853088379,1.08909273147583,9.735703468322756,-0.12094109505414964,-1.714194178581238,-0.6348036527633667
9.763075828552248,-1.6980681419372559,11.006599426269531,0.08710167557001115,-1.4599010944366455,-0.677011549472809
11.438743591308594,-4.542560577392578,12.020997047424318,0.3643444478511811,-1.023698091506958,-0.7974907159805298
9.923033714294435,-2.862948417663574,11.23674201965332,0.5292915701866151,-0.4900889992713928,-0.6001020073890687
6.011478900909425,-0.12641683220863342,10.426307678222656,0.48311844468116766,-0.3045777380466462,-0.47516828775405884
6.081939220428468,0.5906481742858887,10.444672584533693,0.3770745694637299,-0.20126423239707947,-0.4581566154956818
6.267921924591065,-1.9582208395004275,9.872256278991701,0.3282645344734192,-0.10703790932893754,-0.34420385956764227
5.380588054656983,-0.20102740824222567,10.367595672607422,0.281686007976532,-0.08850815147161485,-0.20066970586776733
4.8578081130981445,0.24423070251941684,9.926103591918945,0.19661645591259005,-0.10026725381612779,-0.17408713698387146
4.927005767822266,-0.8104512691497803,9.878409385681154,0.12832085788249972,-0.14838570356369019,-0.08370736986398698
5.017058372497559,0.07968056201934814,10.018115043640138,0.06810082495212555,-0.16705487668514254,-0.016870239749550823
4.40091371536255,0.0143510103225708,9.695128440856935,-0.006862922105938197,-0.17640751600265503,0.013380032964050772
4.263228416442871,-0.7006359100341797,9.730137825012209,-0.10521355271339417,-0.19026082754135132,0.04854352399706841
4.697351932525636,-0.4697642922401428,9.668590545654297,-0.15962390601634982,-0.2475225329399109,0.045029927045106895
4.816071510314941,-0.5298658013343812,9.513605117797852,-0.21708360314369202,-0.23775531351566317,0.07746379822492601
5.080601692199707,-1.043342113494873,9.438817024230959,-0.2618217766284943,-0.22538462281227112,0.12498655170202257
4.919670104980469,-1.1633104085922243,9.216187477111818,-0.2461245805025101,-0.20107151567935946,0.13439908623695374
4.940265655517578,-1.4703521728515625,9.110454559326172,-0.15877522528171542,-0.20972111821174622,0.07451885193586351
4.570815563201905,-1.9453411102294922,9.00862216949463,-0.07069561630487443,-0.1941148042678833,0.029511447995901108
3.987282991409302,-2.104437828063965,9.01842784881592,-0.02514258772134781,-0.21186409890651706,-0.01718694344162941
4.019805431365968,-1.8097788095474245,8.851116180419922,0.00606274837628007,-0.2545438706874848,-0.07722693681716919
3.9322984218597417,-1.9403345584869385,9.125482559204102,0.02903047204017639,-0.3334093391895295,-0.1544097363948822
4.592691898345948,-0.9836077690124512,9.443591117858888,0.024440132081508636,-0.370298057794571,-0.18712817132472995
5.185087203979492,-0.4841740429401398,9.653931617736818,-0.0339776873588562,-0.3551445305347443,-0.17250558733940125
5.061722278594972,-0.6990789175033569,9.475237846374513,-0.07276690751314165,-0.35932436585426336,-0.17545634508132935
5.148163318634034,-0.4719870090484619,9.39344882965088,-0.10622356832027435,-0.3561981618404389,-0.16647404432296753
5.24215030670166,-0.3495379090309143,9.548768043518068,-0.1568952202796936,-0.3468023836612702,-0.14945034682750705
5.017856121063233,-0.515398919582367,9.493186950683594,-0.20799779891967773,-0.3475158512592316,-0.154374361038208
4.663821697235108,-0.9786282181739808,9.424633979797365,-0.2224109917879105,-0.3674439489841462,-0.18997794389724731
4.914886951446534,-0.8996036052703857,9.447005271911623,-0.2491127848625183,-0.4044692814350129,-0.22683820128440857
5.339940071105957,-0.7445884346961976,9.197404861450195,-0.291176974773407,-0.44540628790855413,-0.23018626868724826
5.113792896270753,-0.7790189385414125,9.133064270019531,-0.33247551321983343,-0.48863375186920166,-0.2259599715471268
5.198301792144776,-0.38253724575042725,9.245558738708498,-0.37940967082977295,-0.530666708946228,-0.21377949416637423
5.354460716247559,-0.8508570194244385,9.211751937866211,-0.4117203950881958,-0.5748785138130189,-0.18504273891448975
5.311444759368897,-0.4068305492401123,9.44105339050293,-0.43032935261726385,-0.6441978216171265,-0.13445451855659485
5.212369918823242,-0.18138974905014038,9.623511314392092,-0.48263490200042725,-0.7526809573173524,-0.07619088888168335
5.042032718658448,-0.12890321016311646,9.505517959594727,-0.5340113639831543,-0.898816704750061,-0.005573178175836802
4.10595703125,-0.6103752851486206,9.691690444946289,-0.5511146783828735,-1.1241327524185183,0.03391047567129135
4.127708911895753,-0.6469093561172485,9.812288284301758,-0.5947391390800477,-1.4213967323303223,0.05616412311792374
4.373762607574464,-0.532028317451477,9.85515880584717,-0.6694940328598022,-1.712137579917908,0.06058519333600998
4.111823558807374,-0.5834922790527344,9.827381134033203,-0.7476475834846498,-2.032596826553345,0.05621470510959625
4.34276008605957,-1.2371912002563477,9.801033020019531,-0.7649357914924623,-2.415184497833252,0.06463272124528886
4.295777320861816,-1.852848768234253,9.874809265136719,-0.7284858822822572,-2.8480982780456543,0.04798142611980438
4.336789131164551,-2.0364990234375,9.90056037902832,-0.7029323577880859,-3.340586423873902,-0.021648000925779343
4.434763431549073,-1.6590405702590945,10.06356430053711,-0.6917262077331543,-3.9147748947143555,-0.12691573798656466
3.4150876998901367,-2.201131820678711,9.964197158813477,-0.6839199662208558,-4.616835594177246,-0.24071948230266574
2.3459458351135254,-3.3545122146606445,9.40984630584717,-0.5248534679412842,-5.627747058868409,-0.4434290230274201
3.320981502532959,-4.089456081390382,9.315917015075685,-0.4447297155857087,-6.746860504150391,-0.5760242342948915
3.601546287536621,-3.214073657989502,9.359737396240234,-0.4114013612270356,-7.863232135772706,-0.6315968036651611
3.9014451503753667,-1.6648303270339968,9.775792121887209,-0.4771553874015808,-9.267191886901857,-0.7091935873031616
6.272642612457276,-2.710261344909668,11.21186637878418,-0.6366475820541382,-10.738389015197756,-0.8788947463035585
13.234203338623047,-4.889196395874023,13.875804901123047,-0.9026814103126527,-11.939676284790039,-1.0646983385086062
22.006830215454105,-4.792013168334961,15.741021156311037,-0.9093718528747559,-12.270624160766602,-1.3299015760421755
33.10715866088868,-7.112771987915039,14.071834564208984,-0.4665643572807312,-11.395592689514162,-1.5926125049591064
36.548473358154304,-2.625885486602783,14.256196022033693,-0.9695518612861634,-10.389471054077148,-1.2017760276794434
29.400482177734375,-6.024284362792969,14.379734992980959,-1.9423524141311648,-9.400989532470703,-0.9838284850120546
23.710226058959964,-12.828866958618164,14.352594375610352,-1.450395107269287,-8.984308242797852,-1.736396908760071
22.982095718383793,-10.504271507263185,17.07550048828125,-0.7433046102523804,-8.355277061462404,-2.3041977882385254
21.148597717285156,-10.413882255554201,22.375774383544922,-0.37950050830841064,-7.043849468231202,-2.3229844570159917
8.607145309448242,-7.082053661346436,14.28136730194092,-0.3650094568729401,-5.694007873535156,-2.20276427268982
30.434110641479496,-4.372357368469238,20.562198638916016,-0.3973535001277924,-5.119762897491456,-2.3219380378723145
35.061668395996094,-13.65249252319336,33.706031799316406,0.8053712248802186,-1.2586116790771484,-2.7410700321197514
13.84956169128418,-7.172243595123292,25.23348617553711,0.8706544041633607,1.9593031406402588,-1.914278507232666
13.08798122406006,-8.158505439758303,20.972066879272464,1.311488151550293,4.342846393585206,-1.4364128112792969
8.31056022644043,-5.8443055152893075,14.175271987915039,1.4454878568649294,5.893932819366456,-1.187230110168457
3.9375402927398686,-3.4402282238006596,9.300411224365234,1.3362360000610352,6.576759815216065,-1.1691863536834717
-1.167797923088074,-2.5255956649780273,5.2313432693481445,1.0763169527053835,6.644138336181641,-1.1198689937591553
-3.3995597362518315,-1.7484450340270996,2.5386002063751225,0.6570587754249574,6.345438003540039,-1.008768439292908
-3.738646745681763,-2.011574506759644,1.7858593463897705,0.23993659019470215,5.830650329589844,-0.9206789135932923
-1.3861207962036133,-1.8547496795654297,2.8823938369750977,-0.0985691249370575,5.427453517913819,-0.7538954019546509
1.6694544553756716,-2.37914252281189,4.801512718200684,-0.4316634833812714,5.39866828918457,-0.5356696844100952
3.878051042556763,-3.536983728408814,6.560935020446777,-0.6250091195106507,5.700918197631836,-0.2820937931537629
5.044223785400391,-4.861924171447754,7.272335052490234,-0.5397821664810181,6.17147159576416,-0.020895676687359813
5.178960800170898,-5.15352487564087,6.892817497253418,-0.2603097259998322,6.588132858276367,0.19843958318233493
5.51425838470459,-3.9061455726623535,6.355656623840332,-0.09263665974140167,6.824968814849854,0.41500201821327215
6.603938102722168,-2.797722339630127,6.268506050109863,-0.17222824692726135,6.961552143096925,0.6990756988525391
8.321383476257326,-1.9969398975372314,6.580531597137452,-0.4064858555793762,7.100106239318848,1.0535317659378054
9.740201950073242,-1.8848167657852175,6.3586392402648935,-0.6604080200195312,7.274816036224366,1.442202091217041
10.215912818908693,-1.9566434621810915,6.118709087371827,-0.8144177794456483,7.374180793762207,1.7938461303710938
11.041387557983398,-1.176671028137207,6.346318721771241,-0.9080653190612793,7.345296382904054,2.0814146995544434
12.457595825195312,-0.8405774235725404,6.572290420532227,-1.0452189445495605,7.282103538513184,2.340110063552857
13.344714164733888,-2.6154062747955327,7.104333877563477,-1.0180754661560059,7.185763835906983,2.5117154121398926
14.182507514953615,-4.726232051849366,7.7397780418396005,-0.5794248580932617,7.009700298309327,2.558674573898316
15.127264976501467,-5.33278512954712,8.989778518676758,0.10408102720975877,6.774812698364258,2.5563805103302006
16.700950622558594,-4.055882930755616,10.870798110961914,0.6475332379341127,6.583112239837647,2.562337875366211
18.501453399658203,-3.177407503128052,12.462909698486328,0.8588147163391113,6.5114808082580575,2.598325252532959
19.422155380249027,-3.614096164703369,13.430874824523928,0.9066192507743837,6.493710517883301,2.5932769775390625
20.073631286621094,-4.874164104461671,13.84830951690674,0.950670599937439,6.413823604583741,2.5242919921875
21.448499679565433,-6.217232704162598,13.885565757751467,1.0555155277252197,6.261147499084473,2.4376270771026616
23.61642074584961,-7.08417844772339,13.52894401550293,1.1779757738113406,6.088222503662109,2.3555090427398686
25.511341094970703,-6.483203887939453,12.426189422607422,1.1965858936309814,5.93692445755005,2.289423227310181
26.107215881347656,-4.612360477447511,10.372498512268068,0.9164211153984071,5.757101058959961,2.198402643203736
25.79971504211426,-2.5062072277069096,8.00872802734375,0.2546744048595429,5.48250436782837,2.033139228820801
24.456558227539062,-0.34062030911445623,5.320610046386719,-0.6774297952651978,5.114379405975343,1.7874701023101807
23.025970458984375,4.139992237091065,2.176021099090576,-1.8430424928665163,4.5987348556518555,1.4811046123504639
24.798599243164062,9.214179039001467,-2.447189569473267,-3.479593276977539,4.090324878692628,1.4493892192840576
27.804306030273438,4.938653945922852,-8.933537483215334,-4.491584777832031,3.575470447540283,1.6357163190841677
30.125652313232422,-4.332808017730714,-16.505088806152344,-3.4328749179840092,2.7714524269104004,1.5385321378707888
28.955345153808594,-4.893344879150391,-20.498788833618168,-0.9517109394073486,1.2191363573074343,0.8854683041572572
20.278104782104496,3.5063133239746094,-16.401342391967777,0.7391425967216493,-0.6426148414611816,-0.11969386786222459
18.931722640991214,7.550783634185792,-7.944141864776612,0.5541794896125795,-1.8553646802902224,-1.0908410549163818
20.118396759033203,4.5217390060424805,0.8259133696556092,-0.35172224044799805,-2.1541445255279545,-1.8149356842041016
12.356836318969727,-18.149982452392578,4.526461124420167,2.2921354770660405,-3.7023162841796875,-2.0175914764404297
-12.808198928833008,8.953373908996584,5.945950508117676,3.010035991668701,-3.622632741928101,-2.74885892868042
5.470779895782472,10.054244041442873,19.43950462341309,0.6728003025054932,-4.3488664627075195,-1.5325237512588503
5.808537960052491,-5.2291669845581055,12.556143760681154,-0.34843385219573975,-4.769371509552003,-1.2165544033050537
18.808107376098636,-1.6020125150680544,12.758517265319826,-0.05634809285402298,-5.100764751434327,-1.0200892686843874
23.229745864868168,1.8943071365356445,18.939794540405277,-0.1843933612108231,-4.74344539642334,-0.2893525063991547
23.676898956298828,1.2782207727432253,18.8984375,-0.0960199236869812,-3.949906349182129,-0.6114885210990907
17.229450225830078,-0.3885956406593323,15.333389282226562,-0.1115817353129387,-3.226963996887207,-0.7423537373542787
13.746170043945312,-4.342738151550293,12.88155746459961,-0.15888378024101257,-2.760393857955933,-0.5328117012977601
10.811883926391602,-4.233604907989503,11.630024909973146,0.00434510549530387,-2.3216757774353027,-0.5209745764732362
9.708970069885256,-3.7795820236206055,10.595109939575195,0.28195416927337646,-1.9041566848754883,-0.6119431853294374
10.026859283447266,-3.9522521495819096,10.174654960632326,0.47684130072593695,-1.5055327415466309,-0.6324949860572816
9.868484497070312,-2.761324405670166,11.162135124206545,0.5466901063919067,-1.0256177186965945,-0.5098001360893251
7.093210697174073,-0.20512425899505615,10.64998531341553,0.6489603519439697,-0.7045275568962098,-0.4142386317253113
5.894983768463136,-0.49221441149711614,10.602285385131836,0.5777243375778198,-0.4764651656150818,-0.4165236651897431
4.321567058563233,-1.3898631334304812,10.021602630615234,0.39887788891792303,-0.40127718448638916,-0.3635838329792023
4.795104026794434,-0.8210268020629883,10.506803512573242,0.28399249911308294,-0.4985930323600769,-0.2755940556526184
5.943930625915527,0.18265639245510104,10.912162780761719,0.18856512010097506,-0.44874441623687744,-0.19663842022418979
6.578413963317871,0.5868592858314515,10.611660957336428,0.039219558238983154,-0.36925941705703735,-0.06765926629304887
5.389549255371094,-0.6799467206001283,10.07717037200928,-0.07883705943822862,-0.3142065405845642,-0.0287956465035677
4.7856245040893555,-0.7500484585762025,9.858930587768555,-0.13542726635932922,-0.28791710734367376,0.033075246959924705
5.494354248046875,-0.9657332301139833,9.64124393463135,-0.18372610211372375,-0.3102085888385773,0.13788992166519165
5.189110279083253,-1.4274982213974001,9.377664566040039,-0.21975040435791016,-0.31135135889053345,0.13588051497936252
5.187692642211914,-1.9900747537612917,9.147290229797365,-0.1943858712911606,-0.3110857605934143,0.08718176931142808
4.715937137603761,-2.2688829898834233,8.958866119384766,-0.16230382025241855,-0.3066762089729309,0.016010429710149765
4.817081451416016,-2.0797922611236577,8.899909019470217,-0.13198372721672058,-0.3113213479518891,-0.02271171659231186
4.825177669525147,-2.0083014965057377,8.839613914489748,-0.09961722791194916,-0.2996789216995239,-0.05316546186804772
4.8397064208984375,-1.8652433156967165,8.876233100891115,-0.05986007675528527,-0.3110373020172119,-0.09354048222303392
4.907026290893555,-1.877110481262207,8.863060951232912,-0.029847031459212307,-0.30793845653533936,-0.12049059569835663
4.770747661590577,-2.074598073959351,8.847993850708008,-0.017237458378076553,-0.2967540919780732,-0.15816351771354675
4.641690731048585,-2.279431581497193,8.709308624267578,0.022438095882534984,-0.28302755951881414,-0.21556356549263
4.801111221313477,-1.849104404449463,8.923906326293945,0.037826206535100944,-0.29575663805007935,-0.25707867741584783
5.421045303344727,-1.2014232873916628,9.034364700317383,0.010546110570430756,-0.2897330224514008,-0.26864287257194525
5.565158843994141,-1.4143770933151247,9.251252174377443,-0.008210970088839531,-0.2486544102430344,-0.2701182961463928
5.1741838455200195,-0.9690502285957338,8.921770095825195,-0.040134493261575706,-0.2586475312709809,-0.25677675008773804
5.204801082611085,-1.3094751834869385,9.034549713134766,-0.06890480965375902,-0.23657122254371643,-0.24213577806949618
4.945617198944093,-1.5290758609771729,9.145461082458498,-0.07023493200540544,-0.24955594539642334,-0.25317782163619995
4.726953506469727,-1.6514083147048952,9.09265995025635,-0.08270205557346344,-0.30751982331275945,-0.288094699382782
5.023515224456788,-1.6668295860290527,8.71424674987793,-0.06045449525117874,-0.31587129831314087,-0.33415177464485174
5.13528871536255,-1.7019346952438357,8.31070327758789,0.007667011581361294,-0.27991744875907904,-0.38368457555770874
4.998809814453125,-2.361502170562744,8.515039443969727,0.09420395642518999,-0.2404472529888153,-0.4292033910751343
5.7072463035583505,-1.0344041585922243,8.724597930908203,0.15973459184169772,-0.20067274570465088,-0.41035345196723944
5.772967338562012,-0.7617161870002748,9.094877243041992,0.17516115307807922,-0.15263107419013977,-0.36607745289802557
5.070778369903565,-1.7393097877502441,9.33914566040039,0.2373323142528534,-0.2113626450300217,-0.396209716796875
5.582175254821777,-1.0710012912750244,9.442532539367678,0.2535299062728882,-0.3271889984607697,-0.3909836113452912
5.593076705932617,-0.7000564336776733,9.716344833374023,0.17778992652893066,-0.48739048838615423,-0.3051830530166626
5.001015186309815,-1.1163014173507693,9.757532119750977,0.10815422236919403,-0.640630841255188,-0.26944670081138616
4.842978477478027,-0.5920016169548036,9.8326416015625,0.0469287820160389,-0.8348170518875122,-0.24135540425777438
4.492131710052491,-1.045656681060791,9.792089462280273,0.0221614595502615,-1.0484423637390137,-0.22472089529037476
4.513969421386719,-0.9993588328361512,9.885522842407227,0.03474332392215729,-1.3065699338912966,-0.2278737723827362
4.925112724304199,-0.8089601397514344,9.756625175476076,0.004028615541756153,-1.5542261600494385,-0.2193887680768967
4.952188491821289,-0.4184163212776184,9.788440704345703,-0.06238612905144692,-1.7982518672943115,-0.21038354933261874
4.894580841064453,-0.2517637610435486,9.70292854309082,-0.14223198592662814,-2.059359550476074,-0.19490370154380798
5.040675640106202,-0.3542897701263428,9.609804153442383,-0.22026774287223816,-2.3533046245574956,-0.1763031780719757
5.197950839996339,-0.6737605929374696,9.300956726074219,-0.2692535221576691,-2.664277315139771,-0.1801508665084839
5.340925693511964,-1.378037691116333,9.438317298889162,-0.2411714941263199,-2.979372978210449,-0.24865131080150607
5.282963752746582,-1.736992359161377,9.299689292907717,-0.2132396697998047,-3.3264439105987553,-0.3618090450763703
5.152795314788819,-1.8109257221221924,9.219959259033203,-0.126389741897583,-3.7881286144256596,-0.5441367626190186
4.733470916748047,-1.7274260520935059,8.940701484680178,-0.11450593918561937,-4.256737232208253,-0.6842550039291382
4.271026134490968,-2.585918426513672,8.481351852416992,-0.03635574504733086,-4.861876487731934,-0.8538463711738588
4.703361511230469,-2.9077379703521733,8.238205909729006,0.09766810387372972,-5.592886924743652,-1.0602738857269287
4.899662494659425,-2.812127828598023,7.980964660644531,0.1739110201597214,-6.417608261108398,-1.2288364171981814
5.25992250442505,-1.8439154624938965,8.354893684387209,0.18954166769981384,-7.479644775390625,-1.428354859352112
5.545160293579102,0.1204497367143631,8.572559356689453,0.16292014718055725,-8.70170307159424,-1.6315817832946777
9.128746986389162,-0.11442995816469194,9.958192825317383,-0.15719330310821533,-9.935259819030763,-1.675117373466492
17.423702239990234,-3.434520721435547,13.374749183654787,-0.5875332951545716,-10.792531967163086,-1.730673432350159
24.306009292602543,-6.749990463256836,13.253072738647461,-0.7804239988327026,-10.652860641479492,-1.9722501039505007
34.08714294433594,-5.55622673034668,11.804143905639648,-0.4443697035312653,-9.690971374511719,-2.2652914524078374
35.10478973388672,-2.4418535232543945,13.514693260192873,-0.7081106901168823,-8.616684913635256,-1.9837306737899782
27.171985626220703,-4.9146318435668945,15.273033142089844,-1.3254503011703493,-7.526060104370117,-1.8877164125442507
20.177408218383793,-7.920103073120117,17.615955352783203,-1.312802791595459,-6.860311508178711,-2.355300664901734
20.069469451904297,-8.711816787719727,17.718494415283203,-0.5820892453193666,-6.1558427810668945,-3.088497877120972
15.007528305053711,-7.716323375701905,13.532475471496584,1.0764445066452029,-5.225847244262695,-3.8697147369384766
10.726994514465334,-5.284394264221191,24.645523071289062,1.6100940704345703,-3.509348630905152,-3.166001796722412
37.14561462402344,-2.9070448875427246,27.973735809326172,0.7749596238136293,-1.1903125047683718,-2.539167881011963
20.97637176513672,-6.409873008728027,28.088985443115234,0.37966987490654,2.4802775382995605,-1.7378503084182741
5.831212043762207,-6.605144023895265,16.406360626220703,0.36899006366729736,4.397997379302979,-1.3840333223342898
3.5291261672973633,-6.123294353485108,10.962268829345703,0.33569970726966863,5.313347816467285,-0.826785981655121
-1.8114262819290163,-6.5706024169921875,5.131309509277344,0.4140586256980896,5.336511611938477,-0.37026253342628485
-4.344022274017335,-6.181473255157472,2.770629167556763,0.6195291876792909,5.038936614990234,0.01882264204323292
-2.5941002368927006,-3.629828214645386,2.9428443908691406,0.6745784878730775,4.725821495056152,0.5194456577301025
-0.5145718455314637,-1.864903450012207,4.1936097145080575,0.4201249182224274,4.6284990310668945,1.0490089654922488
0.2899607121944428,-0.12301237881183624,5.4211487770080575,-0.0636744722723961,4.758565425872804,1.4721736907958984
1.391200661659241,0.850487232208252,6.458159923553468,-0.5614218115806581,5.014108657836914,1.7425993680953982
2.354593276977539,1.3577702045440674,6.919783592224121,-0.9698963761329652,5.306310653686523,1.8509111404418945
3.6714024543762207,1.6218694448471072,7.368760585784913,-1.2593097686767578,5.585113048553468,1.79978346824646
5.201299190521241,1.8236119747161865,7.915914058685304,-1.4519329071044922,5.860454559326172,1.6520048379898074
6.2581939697265625,1.8335034847259521,8.351682662963867,-1.5175656080245974,6.151725769042969,1.4430860280990603
6.90789556503296,2.030856847763062,8.486190795898438,-1.5143095254898074,6.402857780456543,1.1917555332183838
8.010165214538576,2.5841970443725586,8.169719696044922,-1.544342279434204,6.594659328460694,0.970005989074707
8.96376132965088,3.2785754203796387,7.571259498596191,-1.6901216506958008,6.693593978881836,0.824545443058014
9.981830596923828,3.55973482131958,7.025989055633546,-1.949120283126831,6.676537990570069,0.7417632341384888
11.162053108215334,4.190357685089112,6.790069580078125,-2.2339043617248535,6.579421520233155,0.6798718571662904
12.439191818237305,5.140886783599854,6.719097614288331,-2.5707297325134277,6.470052242279054,0.5834997892379761
13.803296089172365,6.1496243476867685,6.782255172729492,-2.953168630599976,6.356169223785401,0.4574587941169739
14.611462593078615,5.987473487854004,6.881038665771484,-3.2906730175018315,6.215206146240234,0.27287563681602484
15.114429473876953,4.650419235229492,7.244927883148194,-3.3648228645324707,5.998019695281983,-0.012588695622980596
16.19605255126953,3.0447850227355957,7.679725646972656,-3.125665903091431,5.720271110534668,-0.3078340590000153
17.520362854003906,2.50055480003357,8.103548049926758,-2.7370636463165288,5.387458324432374,-0.4518880844116211
18.584144592285156,4.149238109588624,8.415704727172852,-2.472848176956177,5.036876678466797,-0.37848052382469183
19.14940452575684,5.586919307708741,8.468899726867678,-2.539121150970459,4.720544338226319,-0.24064625799655917
19.05486106872559,6.062573432922363,8.643054962158203,-2.7447590827941895,4.417497158050538,-0.23223090171813965
18.79443359375,6.676239490509034,8.829572677612305,-2.954567193984986,4.145883083343507,-0.3985043168067932
18.640518188476562,7.5019803047180185,9.19627571105957,-3.201077461242676,3.9275414943695073,-0.6473439931869507
18.73110580444336,8.817065238952638,9.144184112548828,-3.489680767059326,3.7669184207916264,-0.8959813714027406
17.91177749633789,10.381086349487305,7.932920932769776,-3.85739541053772,3.632936477661133,-1.0846647024154665
16.677579879760746,10.900062561035156,6.429093360900879,-4.1615967750549325,3.444621801376343,-1.2741601467132568
15.391712188720703,10.661116600036623,5.3220624923706055,-4.234492301940918,3.1689546108245854,-1.5511763095855713
13.96507453918457,9.834836959838867,4.594586372375488,-4.031603813171387,2.8172681331634526,-1.9040678739547732
13.226635932922365,10.672621726989748,4.128643035888672,-3.6570808887481694,2.4014177322387695,-2.2547729015350346
14.382650375366211,12.577014923095703,2.528590202331543,-3.500207662582398,2.0569174289703374,-2.4080300331115723
15.415409088134766,11.72617816925049,0.5801485180854798,-3.4380764961242676,1.7581084966659548,-2.538198471069336
16.749759674072266,10.406820297241211,-1.3548694849014284,-3.1827657222747807,1.4446086883544922,-2.7488670349121094
16.011268615722656,9.234638214111328,-4.520712852478027,-2.7127914428710938,1.0391365289688113,-2.9492321014404297
14.929964065551758,7.20738410949707,-6.120115280151367,-2.088279008865357,0.35309401154518133,-2.9987120628356934
14.151089668273928,4.9290924072265625,-5.171643733978272,-1.2896691560745241,-0.44245660305023193,-2.862754583358765
10.141232490539553,-2.220691680908203,0.6127111315727235,-0.15464128553867343,-1.1793134212493896,-2.6014251708984375
9.40229606628418,-13.828404426574709,3.5296897888183594,4.832230091094972,-2.187026023864746,-3.163131952285767
7.656306266784668,-0.6950687766075135,14.91900634765625,5.259387969970703,-2.1815571784973145,-3.3801462650299077
10.07907485961914,-17.355203628540043,17.585559844970703,5.351134777069093,-2.1978182792663574,-3.420909643173218
8.706545829772951,-4.612995624542237,18.680345535278324,5.484068870544434,-2.0408637523651127,-4.215335369110108
10.125785827636719,3.7972664833068848,9.257205009460451,3.707512378692627,-1.7414926290512087,-2.424123764038086
21.911151885986328,15.98370361328125,15.59010982513428,2.8588306903839116,-1.902318596839905,-1.5877807140350342
18.59111595153809,14.548685073852539,13.629687309265138,1.4801553487777712,-0.3968968987464905,-0.813386380672455
5.565553665161133,5.683341026306152,12.687860488891602,0.7794257402420044,-0.16243453323841098,-0.4295978248119355
4.566514015197754,8.58016586303711,12.58751964569092,0.23977051675319674,-0.29611873626708984,-0.31780019402503973
5.499712467193604,5.167068958282472,9.649648666381836,-0.0586925782263279,-0.14060170948505404,-0.19801563024520874
6.661183834075929,2.0849678516387944,9.704758644104006,-0.06962065398693085,-0.04792701825499535,-0.12418857216835022
5.858722686767578,-0.35346522927284246,9.39253330230713,-0.0065127164125442505,0.03505301848053933,-0.04841516539454461
6.413969516754151,-0.486649751663208,9.587377548217773,-0.031807329505682,0.07211759686470032,-0.05384762957692147
6.375836849212647,-1.6767216920852663,9.336496353149414,-0.017127228900790218,0.09563761204481126,-0.02041821926832199
5.700061798095703,-1.6685153245925906,9.342799186706545,0.01777998171746731,0.091361403465271,0.007570444140583278
5.286329746246339,-1.7092899084091189,9.273826599121094,-0.002887214766815305,0.07529257237911224,-0.014025868847966194
5.511213302612305,-1.851463794708252,9.36619281768799,-0.014567748643457891,0.08482286334037781,-0.03558339551091195
5.189157962799073,-1.467726230621338,9.383275985717773,0.01064157020300627,0.06842204183340074,-0.042603254318237305
4.7983551025390625,-1.4448425769805908,9.352787971496584,0.032148584723472595,0.022793507203459743,-0.052772603929042816
4.656269550323487,-1.1839792728424072,9.284626960754396,0.05866523459553719,-0.05356970429420471,-0.055629052221775055
4.843973636627198,-0.4058856070041657,9.438345909118654,0.043310258537530906,-0.12216681241989136,-0.03622581437230111
5.121246814727784,0.0834837555885315,9.536397933959961,-0.02996388264000416,-0.1645789593458176,0.005715526640415192
5.368948459625245,0.08726412057876587,9.560336112976076,-0.09133157879114152,-0.17271354794502258,0.057308647781610496
4.219886779785156,-0.29389262199401855,9.35188388824463,-0.13353466987609863,-0.19516672194004062,0.09373667091131212
4.454220771789551,-0.6246698498725892,9.577832221984865,-0.20227450132369995,-0.3057295382022858,0.08502274751663208
5.631534576416016,-0.7609447240829468,9.26429843902588,-0.22297769784927368,-0.3132556080818176,0.0544673539698124
5.700754642486573,-1.1033865213394167,8.962218284606935,-0.20586709678173068,-0.24145972728729248,0.05815745517611504
5.519867897033691,-1.578405022621155,8.742226600646974,-0.1860855519771576,-0.17400361597537997,0.046011406928300864
5.14016056060791,-1.788611650466919,8.844170570373537,-0.1394588053226471,-0.10957967489957811,0.02484738454222679
4.864481449127198,-2.0337743759155273,9.040830612182617,-0.08799989521503448,-0.07687917351722717,0.02509650401771069
5.051487922668457,-2.092653274536133,8.935277938842773,-0.05350338667631149,-0.07072489708662034,0.009899146854877472
5.143334865570069,-1.7878620624542236,8.849738121032717,-0.02216785959899426,-0.05269777774810791,-0.004394550807774067
4.903985977172852,-1.5388059616088867,8.664233207702638,-0.0066917487420141706,-0.026283010840415955,-0.008758638985455038
4.589320182800293,-1.4843759536743164,8.956591606140138,0.007946419529616834,-0.034239735454320915,-0.018802054226398468
4.9907288551330575,-1.0792402029037478,9.065749168395998,0.00559040904045105,-0.04343590512871743,-0.02531542256474495
5.081414222717285,-1.050176024436951,9.15153217315674,0.010334636084735395,-0.03786624222993851,-0.028941627591848373
5.0511016845703125,-0.7630341053009033,9.150702476501467,0.014395175501704216,-0.0413808785378933,-0.035009756684303284
4.878050804138184,-0.6304440498352051,9.294262886047365,-0.011331430636346342,-0.054928887635469444,-0.03471235930919647
5.043718338012695,-0.8291434645652772,9.326710700988771,-0.04937057569622994,-0.08636987209320068,-0.03169329091906548
5.231719970703125,-0.921834170818329,9.256988525390625,-0.0652984455227852,-0.11153015494346619,-0.026143308728933334
4.952266216278077,-0.7823195457458496,9.33120346069336,-0.08063426613807678,-0.14255075156688693,-0.02044583112001419
5.077582359313965,-1.176838278770447,9.14605712890625,-0.10105209052562714,-0.17684492468833923,-0.01752846129238606
4.510981559753418,-1.7302589416503906,8.681981086730959,-0.07295805215835571,-0.19881887733936313,-0.054689086973667145
4.440141677856445,-1.9460361003875732,9.061448097229006,-0.04571973159909249,-0.2595785856246948,-0.10943478345870972
5.038947105407715,-2.0455725193023686,8.923068046569826,-0.015520949847996237,-0.2852301597595215,-0.1587270647287369
4.660651206970215,-2.053126335144043,8.992215156555178,0.008312586694955826,-0.3049137592315674,-0.2025464326143265
4.930336475372315,-1.867072343826294,9.124044418334961,0.0011429069563746452,-0.33224174380302435,-0.2476249635219574
5.3180603981018075,-1.7491675615310671,8.9613733291626,-0.0012150609400123358,-0.3224726617336274,-0.28604736924171453
5.059320449829102,-1.3962565660476687,8.980962753295898,-0.013599609024822714,-0.313423752784729,-0.3187792003154755
5.14616584777832,-0.8555240631103516,9.274094581604006,-0.05052218958735467,-0.3501450717449189,-0.3200373649597168
5.621831893920898,-0.8140745162963867,9.223670959472656,-0.10991618782281877,-0.3795262575149536,-0.3147495090961457
5.1822781562805185,-0.5095455646514893,9.19026279449463,-0.16602227091789246,-0.42813161015510565,-0.30807641148567205
5.445339202880859,-0.46172034740448,9.211593627929688,-0.237626388669014,-0.4802321195602417,-0.2866047322750092
4.944034576416016,-0.9315649271011353,9.342472076416016,-0.2903267741203308,-0.5862878561019897,-0.2855350077152253
5.087311267852784,-1.4492485523223877,9.430602073669435,-0.30838039517402654,-0.7472730875015259,-0.2857182919979096
5.447059631347656,-0.6401753425598145,9.426472663879396,-0.3882168829441071,-0.8612602949142456,-0.3097839951515198
5.719837665557862,-0.4016334712505341,9.143849372863771,-0.4501160681247712,-0.9693899154663086,-0.26982817053794866
5.410485744476319,-0.23333375155925754,9.057771682739258,-0.43552991747856146,-1.0909367799758913,-0.17453902959823608
5.560587406158448,-0.5609095692634584,8.97402095794678,-0.4311353266239167,-1.2114362716674805,-0.09827969223260881
5.335076332092285,0.21007388830184937,9.374631881713867,-0.4333315193653107,-1.3669531345367432,0.008215270936489105
5.543338775634766,0.37880602478981024,9.781777381896974,-0.48010313510894775,-1.5759052038192751,0.13633984327316284
5.046022415161133,-0.6222048997879028,9.67927646636963,-0.5353076457977295,-1.8344008922576904,0.23943634331226352
4.682511329650879,-0.548077166080475,9.682767868041992,-0.5987040996551514,-2.1841242313385014,0.26841455698013306
4.862936973571777,-0.16968238353729248,9.574090957641602,-0.6866673827171327,-2.5780553817749023,0.3052774667739868
5.145372867584229,0.3033260703086853,9.552306175231935,-0.7692160010337831,-3.061695098876953,0.4118702709674836
4.707252979278565,-0.5002322196960449,9.322916984558107,-0.8719026446342469,-3.622802019119263,0.4976575970649719
4.7890992164611825,0.5022746324539185,9.378747940063477,-1.0946999788284304,-4.321783065795898,0.5577910542488099
5.149256229400636,1.3920980691909792,9.311376571655273,-1.4560819864273074,-5.014718055725098,0.7871726751327515
6.560591697692871,0.5072656273841859,8.971774101257326,-1.84672486782074,-5.722288131713867,0.9988164305686952
7.058293342590332,1.113192677497864,9.531226158142092,-2.468079805374146,-6.469338893890382,1.3074522018432617
8.354846954345703,0.18247893452644348,10.650776863098146,-3.185286521911621,-7.1043715476989755,1.7635867595672607
9.38883686065674,-0.4075555205345154,12.449357986450195,-3.6175951957702637,-7.634223461151124,2.1483056545257573
11.561206817626953,0.7414153218269349,15.155585289001467,-3.8138442039489746,-7.999763011932374,2.6767759323120117
15.223057746887209,-1.9652013778686523,12.425541877746584,-4.025332450866699,-8.09846305847168,3.0754678249359135
18.350757598876953,-4.335674285888672,11.540085792541506,-4.420690059661866,-7.99687385559082,3.104348421096802
21.86729240417481,-6.940313339233398,14.088586807250977,-4.571393013000488,-7.724298000335694,2.761022329330445
19.26379203796387,-6.353963851928711,11.116325378417969,-4.594303131103516,-7.330088138580323,2.0467629432678223
22.18504142761231,-7.488494396209718,10.414196968078615,-5.139808654785156,-7.287339210510254,2.0182020664215092
21.993803024291996,-4.762521266937257,12.447058677673342,-6.629568576812745,-6.344130516052246,2.7816817760467534
21.002447128295902,-1.716860055923462,19.720348358154297,-8.978928565979006,-5.313934326171875,3.4334888458251953
20.540990829467777,-2.746665239334107,22.02866935729981,-10.75830936431885,-3.508847713470459,3.176796197891236
11.191812515258789,-5.968073844909668,12.39509677886963,-10.230947494506836,-1.512277603149414,0.8080191016197206
38.69927597045899,-21.106178283691406,21.000560760498047,-7.248566150665284,1.049182415008545,-2.63426947593689
17.352628707885746,-20.81683349609375,24.926010131835938,-3.4949440956115723,4.33396863937378,-3.701243162155152
11.435728073120117,-11.79139041900635,18.246770858764652,-0.9765480160713197,5.64567756652832,-3.951194047927857
4.573936462402344,-5.461249828338624,12.468992233276367,0.23333223164081576,6.194081783294679,-4.157857894897461
-1.222867727279663,0.21560086309909823,8.227648735046388,0.1814488917589188,6.134402275085449,-4.203263759613038
-2.616942882537842,4.847800254821777,6.282407760620117,-0.7001018524169922,5.680640697479249,-3.9441225528717045
-1.8901380300521853,4.580656051635742,5.039022445678711,-1.8898800611495974,5.214838981628418,-3.5678970813751225
-0.7383165955543519,1.6806291341781618,5.4028334617614755,-2.7131931781768803,4.907060146331788,-3.1172609329223633
-0.620197355747223,-2.1939144134521484,6.740805625915527,-2.845187187194824,4.755201816558839,-2.706740379333496
0.2633311152458191,-5.3992815017700195,8.456499099731445,-2.1986982822418217,4.7209978103637695,-2.3362321853637695
1.980919599533081,-5.513344287872315,10.356637954711914,-1.2371352910995486,4.831448554992676,-1.9083513021469118
3.9186584949493413,-2.8130934238433842,11.929379463195803,-0.5351682901382446,5.151017189025879,-1.3372305631637575
5.1395535469055185,-0.08236128091812134,12.26424789428711,-0.3614399731159211,5.645440101623535,-0.6264379620552064
4.707717418670655,0.9904450774192811,11.37223529815674,-0.5092321634292603,6.11315679550171,0.08952354639768602
3.664446115493775,0.8715178966522217,9.962216377258303,-0.6559965014457704,6.366654396057129,0.7039437890052797
3.5203502178192143,0.34588232636451727,9.046868324279787,-0.6043930053710938,6.393955230712891,1.172842621803284
4.629722118377686,0.629133939743042,9.171299934387209,-0.3888798952102661,6.325095653533936,1.5057275295257568
6.295077323913574,1.8197109699249268,10.030647277832031,-0.17377036809921265,6.297529697418214,1.752289414405823
8.088795661926271,3.2698433399200444,11.002899169921875,-0.0799442306160927,6.380231857299805,1.8698419332504275
9.224797248840334,3.8934662342071538,11.473247528076172,-0.09315890073776245,6.542470932006836,1.8431311845779421
9.350004196166992,3.5176262855529785,11.646145820617678,-0.059449873864650726,6.659738063812257,1.690887451171875
9.145179748535156,2.7805466651916504,11.547025680541992,0.12923346459865573,6.651677131652832,1.4816911220550537
9.64021968841553,1.9890451431274414,11.85760021209717,0.413734644651413,6.526555061340332,1.2567321062088015
10.821779251098633,1.3264267444610596,12.520832061767578,0.7314016222953797,6.329291820526124,1.0571262836456299
12.228239059448242,0.8969428539276123,13.444677352905273,1.0586823225021365,6.071891784667969,0.8398826718330384
14.184370040893555,0.5001235008239746,14.432202339172365,1.3276238441467285,5.789405345916749,0.5709918141365052
17.227273941040043,0.34695020318031317,15.268077850341797,1.531153678894043,5.516313076019288,0.29841136932373047
21.297567367553714,0.1933276653289795,16.100597381591797,1.6424528360366824,5.294681072235108,0.10055260360240936
26.020061492919922,-0.6718461513519287,16.539625167846683,1.6595232486724854,5.195462703704835,-0.0372898131608963
30.84246826171875,-1.0300061702728271,15.735700607299805,1.6280124187469482,5.19739866256714,-0.14041633903980258
35.25348663330078,-0.3088078498840332,13.474281311035156,1.317084789276123,5.342265605926515,-0.1730603277683258
38.259178161621094,0.4110269546508789,10.025803565979006,0.5254161953926088,5.5766873359680185,-0.048383623361587524
37.90301513671875,0.5047367811203003,4.593659400939941,-0.5775156617164613,5.826056480407715,0.31470188498497015
35.768085479736335,3.733665943145752,-3.0363235473632812,-1.7673193216323855,5.806227684020996,0.7318131923675537
34.614513397216804,9.47554111480713,-12.455568313598633,-3.3590874671936035,5.534618854522706,1.4381279945373535
31.60737800598145,7.226153373718262,-22.058629989624027,-4.357670783996582,4.928891181945801,2.284605741500855
26.444557189941406,-1.8162059783935547,-28.313705444335938,-3.501968622207642,3.4114112854003906,2.425805807113648
22.618288040161136,-4.594114780426026,-28.710357666015625,-1.124720811843872,1.0137048959732058,1.6037436723709109
18.923770904541016,1.8409147262573242,-22.744359970092777,0.9992459416389466,-1.3969335556030273,0.33054801821708685
8.972558021545412,14.824384689331055,-12.61305046081543,1.246246576309204,-3.7126073837280273,-0.7454146742820741
-5.465757846832276,7.303235530853272,-1.0611860752105713,0.3526496589183808,-4.516559600830078,-0.07114306837320329
8.637012481689453,-0.8578320741653442,18.0328540802002,0.07176725566387177,-6.498772144317628,-2.377079248428345
15.5359582901001,-5.395113945007324,24.372188568115234,-0.5874457955360414,-5.669224739074707,-2.5659506320953374
26.45970916748047,-15.761676788330078,13.183509826660156,-0.30123448371887207,-4.755184173583984,-2.1130821704864506
26.29879379272461,-9.956886291503906,14.73701572418213,0.06264225393533708,-3.9568185806274414,-0.6892830729484559
29.145334243774418,-5.886752128601074,19.32934379577637,0.10454245656728746,-2.6318631172180176,0.02978227660059929
20.92412376403809,5.452282905578613,17.3144702911377,0.26039466261863714,-1.9155752658843994,-0.3171729743480683
7.791422367095948,6.474656581878663,11.989346504211428,-0.010625201277434828,-1.6361438035964968,-0.5147446393966675
5.4088196754455575,1.7855849266052246,9.727849006652834,-0.12018730491399766,-1.597400188446045,-0.5466186404228212
8.024989128112795,-2.721550464630127,10.12089252471924,-0.02247379720211029,-1.4935721158981325,-0.5522868037223817
9.977594375610352,-4.114804267883301,11.052621841430664,0.2862540185451508,-1.1875102519989014,-0.5774390101432801
10.038888931274414,-1.9042831659317019,11.68105220794678,0.5252977013587953,-0.7568940520286561,-0.6193864345550537
7.051767349243164,-0.3766251802444458,10.745071411132812,0.5011447072029115,-0.49930721521377563,-0.4617545902729035
6.620387554168702,0.21198973059654236,10.740190505981445,0.3254216611385346,-0.3880425691604614,-0.35184210538864136
5.837444782257081,-0.8929483890533447,10.053457260131836,0.21138872206211093,-0.2842034101486206,-0.22774593532085421
5.387065410614015,-0.8460482358932495,9.96097183227539,0.13335062563419345,-0.2533389031887055,-0.14492478966712952
5.1993513107299805,-0.5912317037582397,9.789374351501467,0.087722048163414,-0.2364914566278458,-0.099042147397995
4.53040647506714,-1.1252799034118652,9.390782356262209,0.1156504899263382,-0.2633547484874726,-0.09973575919866563
4.682949066162109,-1.3735591173172,9.61492919921875,0.16149652004241943,-0.25015380978584295,-0.09558616578578949
4.92413330078125,-1.4089648723602295,9.491475105285646,0.27576589584350586,-0.23673629760742188,-0.17235933244228366
5.032009124755859,-1.8387391567230225,9.55207920074463,0.28587684035301214,-0.1714077889919281,-0.1594805866479874
5.203753471374512,-1.2883621454238894,9.547307968139648,0.22637735307216647,-0.16507267951965332,-0.13022583723068237
5.157469272613526,-0.5464215278625488,9.695601463317873,0.10015900433063507,-0.13529603183269504,-0.03738708049058914
4.939298629760742,-0.8502179980278016,9.395687103271484,0.016339501366019252,-0.15077973902225497,-0.01869950443506241
4.616428375244141,-0.976269006729126,9.186882019042969,-0.035639725625514984,-0.15217752754688266,0.00043663778342306614
4.795645236968995,-0.6939374804496766,9.3223876953125,-0.06558862328529358,-0.18629045784473422,-0.027221145108342174
4.966382503509522,-0.7547942996025087,9.322376251220703,-0.09430194646120073,-0.19366589188575745,-0.03191069141030312
4.609914779663086,-1.0249168872833252,9.200363159179688,-0.13702300190925598,-0.20992088317871094,-0.025410460308194164
4.615029335021973,-1.0611070394515993,9.283127784729006,-0.17313453555107117,-0.23757888376712802,-0.028877850621938705
4.46126651763916,-1.2954770326614382,9.234448432922365,-0.17620348930358887,-0.264154464006424,-0.05424018576741219
4.680549144744874,-1.2499372959136963,9.334523200988771,-0.15812002122402194,-0.28587305545806885,-0.10907831043004991
5.197121620178223,-0.9913238286972046,9.334191322326662,-0.15292677283287048,-0.2959538698196411,-0.13100616633892062
5.23524284362793,-0.8378279805183412,9.132501602172852,-0.15421289205551147,-0.28496786952018743,-0.12853926420211792
5.122525691986085,-1.0633158683776855,9.00053596496582,-0.13153354823589328,-0.27385973930358887,-0.14638808369636536
5.217728137969972,-1.18800950050354,8.942870140075685,-0.10229958593845367,-0.2678463160991669,-0.16740435361862183
4.830033779144288,-1.183793306350708,9.040650367736818,-0.0831727534532547,-0.26939934492111206,-0.19399245083332065
4.329607486724854,-1.6136161088943484,9.028975486755373,-0.05199966952204705,-0.2887568473815918,-0.26067540049552923
4.237415313720703,-1.9409548044204714,9.107330322265625,-0.003244069172069431,-0.3209725618362427,-0.3743622303009033
4.431856632232667,-2.0672550201416016,9.259016036987305,0.03835180401802063,-0.37802895903587347,-0.4818737506866455
4.872930049896241,-1.4923790693283083,9.26241970062256,0.06306637823581696,-0.44002610445022583,-0.5402106642723085
5.094400882720948,-1.050218105316162,9.31532955169678,0.06610259413719177,-0.4974487721920014,-0.5645664930343628
5.906344413757324,-0.12896504998207092,9.295990943908693,-0.0023222800809890036,-0.5881038904190063,-0.521553635597229
5.35258674621582,-0.7633886337280273,9.25752067565918,-0.00517819868400693,-0.6915422677993774,-0.47358074784278875
4.991050243377686,-0.32462593913078314,9.560103416442873,0.032090939581394196,-0.8731800317764282,-0.4109617173671723
4.493399620056152,-0.6722505688667298,9.601176261901857,0.05176865682005883,-1.0877854824066162,-0.36252775788307195
4.256978988647461,-0.5835762023925781,9.949178695678711,0.07399309426546098,-1.365412712097168,-0.3305972218513489
4.323756217956543,-0.5391495227813721,10.094316482543945,0.04910260811448098,-1.6530072689056396,-0.28782561421394354
4.551236629486085,0.12891119718551636,10.4168701171875,-0.022633915767073635,-1.9779313802719118,-0.24315720796585083
4.656150817871094,0.2642548680305481,10.430420875549318,-0.09449986368417741,-2.3474502563476562,-0.18040077388286593
4.757057666778565,0.6423968076705933,10.440648078918459,-0.17986926436424255,-2.778728246688843,-0.09676512330770494
4.9827165603637695,0.5826894044876099,10.26378917694092,-0.2994306385517121,-3.2312817573547363,-0.027740592136979107
5.165914535522461,0.11989150941371918,10.175153732299805,-0.43244338035583496,-3.7161636352539062,-0.05974015966057778
4.554199695587159,-1.3258451223373415,10.714567184448242,-0.5439437031745912,-4.317265510559082,-0.19770242273807528
2.4827494621276855,-3.1442873477935795,11.010807037353516,-0.5761802196502686,-5.110694408416749,-0.3521926105022431
2.211681842803955,-4.217263698577882,10.602697372436523,-0.44180047512054443,-6.097580432891847,-0.6626006364822388
1.514615774154663,-3.64493989944458,10.155031204223633,-0.15937869250774386,-7.336241245269776,-1.0940642356872559
3.223324775695801,-3.854030132293701,9.698994636535646,0.3428384363651276,-9.023448944091797,-1.5693749189376833
3.9377987384796147,-2.5869472026824956,10.036992073059084,0.6332566142082215,-10.785093307495117,-1.9006953239440918
8.983810424804688,-3.5377509593963627,10.939533233642578,0.45924231410026556,-12.155662536621094,-2.1547105312347417
19.98945808410645,-4.889251232147218,14.196015357971193,0.01643810607492924,-13.025746345520021,-2.126974582672119
31.43996620178223,-3.595678567886353,15.107821464538576,-0.17416265606880188,-12.668023109436037,-2.2229814529418945
43.57622146606446,-0.5687813758850098,13.100475311279297,-0.09943722933530809,-11.114017486572266,-2.174471378326416
39.69508361816406,-3.5109579563140874,13.991594314575195,-0.7834351658821107,-9.717113494873047,-1.556639075279236
29.558355331420902,-9.06545162200928,17.818523406982422,-1.1891543865203857,-8.748323440551758,-1.6376460790634157
20.85239028930664,-7.475347042083741,20.137054443359375,-1.305577278137207,-7.810973644256593,-2.211907386779785
19.031951904296875,-7.446728229522706,21.8980712890625,-0.7145310640335083,-6.980813503265382,-2.556371927261353
7.413355827331543,-6.7473816871643075,14.906158447265625,0.21918004751205444,-6.359393596649171,-2.9072976112365723
35.48391342163087,-6.659224033355714,22.508869171142578,0.42725846171379095,-5.311732769012452,-2.971085548400879
27.367443084716797,-7.665677070617676,32.9637451171875,0.5148787498474121,-1.6444023847579958,-2.491732597351074
15.56759548187256,-7.339363098144531,25.373348236083984,0.8272819519042969,1.230892062187195,-2.052836656570435
12.219520568847656,-5.983161449432374,21.317979812622074,0.8173618316650391,3.4905445575714116,-1.3564043045043945
7.308880329132081,-4.658594131469727,15.316003799438477,0.5917164087295532,4.8734941482543945,-0.8557229638099672
4.312849998474121,-3.829631090164185,11.438231468200685,0.28198719024658203,5.761425495147706,-0.4604136347770691
2.914287328720093,-3.902908086776734,8.35580348968506,0.06073559448122979,6.210315704345703,-0.14347654581069946
-0.09108226001262665,-3.811165571212769,5.58602237701416,-0.07703281939029694,6.23333501815796,0.13944581151008606
-1.7413763999938965,-3.6824157238006596,4.012277603149414,-0.20126186311244967,6.025766849517823,0.3649035096168518
-0.9996425509452821,-3.2504916191101074,3.9260747432708745,-0.26999720931053167,5.741347312927246,0.5106593966484071
0.6937106251716615,-2.3049743175506596,4.665957927703858,-0.3867581188678742,5.540875434875488,0.6850810050964355
2.512396574020386,-1.6439751386642458,5.845968246459961,-0.6124910712242128,5.499905586242676,0.8781651854515077
4.671760559082031,-1.0736500024795534,7.02692985534668,-0.8641058802604676,5.686583042144776,1.0803189277648926
6.28383493423462,-0.9404161572456361,7.960636138916016,-1.0858374834060671,6.029911994934082,1.2871433496475222
7.6152710914611825,-0.8290978670120239,8.589984893798828,-1.242251753807068,6.413281440734863,1.48362398147583
9.151207923889162,-0.6664811372756958,8.909843444824219,-1.3252021074295046,6.813595771789551,1.6591082811355593
9.736191749572756,-0.914898455142975,8.631333351135256,-1.304282069206238,7.187319278717042,1.7952301502227783
9.735323905944826,-1.3429651260375977,8.23861598968506,-1.1802992820739746,7.426274776458741,1.900237798690796
10.489126205444336,-1.4899468421936035,7.923528194427491,-0.9451617002487183,7.538674831390382,2.040181398391724
11.405032157897951,-0.8450252413749696,7.732938289642335,-0.6884130835533143,7.596019744873047,2.260858297348023
11.992877960205078,0.8825626373291016,7.992678165435792,-0.5830708742141724,7.576388359069824,2.526852369308472
13.08975124359131,1.7483423948287966,8.586309432983398,-0.6642374396324159,7.5066938400268555,2.7421123981475835
14.69550895690918,1.3216431140899658,9.423737525939943,-0.748908281326294,7.43353033065796,2.866263628005982
16.140750885009766,0.4984023869037629,10.382143974304201,-0.6545168757438661,7.3452911376953125,2.904943704605103
17.22453880310059,0.02337852120399475,11.725639343261719,-0.41534033417701727,7.219616413116456,2.866885185241699
18.759386062622074,-0.45272356271743774,13.451215744018555,-0.12778544425964355,7.0822720527648935,2.746662139892578
21.193361282348636,-1.4794675111770632,15.333542823791506,0.1935793906450272,7.001239776611328,2.552030563354492
24.17341804504395,-2.6324620246887207,16.844188690185547,0.5734831094741821,6.995694637298585,2.3252782821655273
27.387821197509766,-2.4962651729583745,17.205152511596683,0.8848769068717958,7.005668163299561,2.1071534156799316
30.002403259277344,-0.9435651302337646,16.10629653930664,0.8512345552444458,6.99184274673462,1.9031710624694824
30.78732490539551,-0.2890912592411042,12.782806396484375,0.4085867404937744,6.939650058746339,1.6192389726638796
29.478473663330078,-1.4309618473052979,8.170311927795412,-0.19114203751087191,6.6930694580078125,1.1736987829208376
29.526203155517578,-0.8949065804481507,2.654462099075318,-0.807932198047638,6.221190929412843,0.5513033866882324
30.071920394897464,4.920661449432374,-4.94355344772339,-1.9284819364547732,5.556789398193359,-0.02190266735851765
32.632587432861335,11.901800155639648,-13.995504379272461,-3.89125919342041,4.781341075897218,0.0016122163506224754
37.099395751953125,5.838165760040284,-24.485355377197266,-5.205411434173585,4.020954132080078,0.7947726845741273
33.1790771484375,-5.104336738586426,-29.021783828735355,-3.8960752487182617,2.3650941848754883,1.4178386926651003
21.944478988647464,-6.434458255767823,-25.19301986694336,-1.0397546291351318,-0.2012903839349747,1.1485199928283691
17.273967742919922,0.25877583026885986,-15.587002754211428,1.2025445699691775,-2.4208054542541504,0.15080329775810242
22.78435516357422,6.294717788696289,-2.836795568466187,1.4802833795547488,-3.3664021492004395,-0.6818055510520936
13.452676773071289,2.3401887416839604,12.475781440734865,0.8388921022415161,-3.09382963180542,-0.7796897292137147
12.169011116027834,-9.118623733520508,7.408043384552003,3.950088739395142,-4.338944435119629,-0.8892970681190492
-11.681320190429688,15.842604637145998,6.968937397003175,2.299419403076172,-4.629285335540772,-1.2272495031356814
1.252427577972412,9.196734428405763,16.727884292602543,0.47715771198272705,-5.745295047760011,-1.0367906093597412
27.080581665039062,5.990029335021973,17.31985664367676,0.23437455296516418,-6.183004379272461,-1.6128600835800173
39.38364791870118,4.665488243103027,22.806095123291016,0.20420706272125244,-4.963012218475343,-1.0619831085205078
29.563278198242188,-3.8160629272460938,17.768768310546875,0.2647526562213898,-3.670102119445801,-0.9716172218322754
17.51004409790039,-5.043071269989015,16.505104064941406,0.5089085102081299,-3.1130139827728276,-0.8903958797454834
12.314097404479982,0.3383974730968476,13.461966514587404,0.3053702712059021,-2.548920154571533,-0.47072926163673406
7.71937370300293,5.210226058959961,11.20486068725586,0.04459148272871972,-2.185974597930908,-0.41251793503761297
13.714081764221193,-0.009021252393722534,13.260358810424805,0.12886862456798556,-1.6070940494537354,-0.8853716850280762
9.807242393493654,-7.045352935791016,9.00899410247803,0.45892164111137396,-0.8053191900253296,-0.8047118782997132
7.668856143951417,-3.4907562732696538,9.930335998535156,0.59636390209198,-0.7173240184783936,-0.3968369066715241
7.616876125335694,3.334636449813843,11.294288635253906,0.40569970011711126,-0.4220163822174072,-0.29491612315177923
5.498422622680664,-1.4632573127746582,9.975739479064943,0.23854999244213107,-0.3190469741821289,-0.2537229061126709
4.602337360382081,-1.240406155586243,10.123306274414062,0.08155913650989532,-0.2760197818279267,-0.13130411505699158
5.088332176208496,-0.5197232961654663,10.469531059265138,0.0427902415394783,-0.31381964683532715,-0.1404404789209366
6.000421524047852,-0.7415375709533691,10.33790683746338,-0.022029556334018707,-0.3046627342700959,-0.08657719194889069
5.579080104827882,-0.17994634807109836,10.03396511077881,-0.12036371231079102,-0.27671983838081365,-0.013048795051872732
5.256802558898926,-0.5348070859909058,9.655764579772951,-0.178908184170723,-0.2498863935470581,0.008357186801731588
4.956820964813233,-0.16792203485965732,9.786924362182617,-0.2196812927722931,-0.2610657215118408,0.050549734383821494
4.9185943603515625,-0.44089269638061523,9.88701057434082,-0.2846162617206574,-0.2915339469909668,0.10562024265527727
4.586280345916749,-0.7099939584732056,9.649256706237795,-0.3425246179103852,-0.3135187029838562,0.17542985081672668
5.063032150268555,-1.1511651277542116,9.480809211730959,-0.39272594451904297,-0.3307202756404877,0.20032307505607605
4.739965438842773,-2.3099176883697514,9.229915618896484,-0.38312262296676636,-0.3663021922111511,0.15757317841053012
4.8561673164367685,-2.7742953300476074,8.974464416503906,-0.32113185524940496,-0.40190762281417847,0.05026338621973992
4.788586616516113,-2.689075469970703,8.778880119323732,-0.2389069348573685,-0.43681061267852783,-0.026407212018966675
4.981514930725098,-1.8210999965667725,8.96916389465332,-0.20606067776679993,-0.46563771367073065,-0.07317735254764557
5.107330799102784,-1.6045100688934326,8.87122917175293,-0.22973935306072238,-0.47728380560874945,-0.10329286754131317
5.208894729614258,-1.615509033203125,8.78824234008789,-0.2581065893173218,-0.477114349603653,-0.13317185640335083
5.330230236053468,-1.4773489236831667,8.783900260925295,-0.28228059411048895,-0.4603026509284973,-0.16280698776245117
5.538222312927246,-1.0392577648162842,8.785940170288086,-0.2971705198287964,-0.432225912809372,-0.16062471270561218
5.650064468383789,-0.8029506206512451,8.750229835510256,-0.3185456395149231,-0.39783036708831787,-0.1274693161249161
5.342484951019288,-0.9093844890594482,8.609367370605469,-0.3388148546218872,-0.37425479292869573,-0.11039914190769196
5.08935546875,-1.4194395542144775,8.66295051574707,-0.34324941039085394,-0.3736211657524109,-0.1054777204990387
4.643411636352539,-1.9958511590957644,8.846281051635742,-0.3344340920448303,-0.4121514260768891,-0.13083794713020325
4.670332431793214,-2.1929497718811035,8.809332847595217,-0.31736356019973755,-0.47457021474838257,-0.18960283696651462
4.948283672332765,-2.5358729362487793,8.644276618957521,-0.29084134101867676,-0.5182594656944276,-0.25701606273651123
5.0629730224609375,-2.376425266265869,8.437950134277344,-0.2362567335367203,-0.5534896850585938,-0.29984772205352783
5.638975620269776,-1.8050242662429812,8.475205421447756,-0.20066903531551364,-0.5778605937957764,-0.2911762893199921
5.510211944580078,-1.7686066627502441,8.442063331604006,-0.14340174198150635,-0.5959712266921997,-0.24675862491130832
5.478718280792237,-1.9714126586914062,8.691202163696289,-0.09096350520849229,-0.647287130355835,-0.22771774232387546
5.798842906951905,-1.4320203065872195,8.859217643737795,-0.08873064815998077,-0.6892089247703553,-0.19839663803577426
5.568552494049073,-1.1076538562774658,8.828389167785646,-0.10776318609714508,-0.7671498656272889,-0.16691520810127258
5.439456939697266,-0.6960230469703675,9.274989128112795,-0.11538970470428467,-0.9205251932144165,-0.13237769901752475
4.921833515167237,-1.006833791732788,9.326797485351562,-0.15229329466819763,-1.1212767362594607,-0.15169677138328552
4.266705989837647,-1.5179148912429812,9.674899101257326,-0.14126458764076233,-1.4280594587326052,-0.19524081051349643
4.494610786437988,-1.1663690805435183,10.106983184814453,-0.1795492619276047,-1.7902352809906006,-0.20494200289249423
4.641008853912354,-0.8558758497238159,10.204690933227539,-0.26227498054504395,-2.2130160331726074,-0.16215823590755465
5.015904903411866,-0.24460582435131076,10.29789924621582,-0.37528505921363836,-2.6799235343933105,-0.09378867596387865
5.232626914978027,-0.34199249744415283,10.063931465148928,-0.49721488356590277,-3.183845043182373,-0.047117382287979126
4.287302494049073,-1.6573786735534668,10.145701408386232,-0.5592488050460815,-3.85842776298523,-0.1222689151763916
2.6590435504913335,-2.7388391494750977,10.535181045532227,-0.5871312618255615,-4.740920066833496,-0.304878443479538
1.944478988647461,-3.6268875598907475,10.258128166198732,-0.49057129025459295,-5.854254722595215,-0.5826768279075624
3.2954306602478027,-4.090471744537354,9.683086395263672,-0.40715640783309937,-6.981755733489991,-0.7549880146980287
3.5850756168365483,-2.608161449432373,9.425185203552248,-0.4303076565265656,-8.22618293762207,-0.8596767783164979
4.397503376007081,-2.6803357601165776,10.086117744445803,-0.46261861920356756,-9.620978355407717,-1.0929811000823975
6.215574264526367,-3.3935227394104004,11.231313705444336,-0.562309980392456,-10.98527240753174,-1.2334415912628174
14.506114006042482,-4.579921245574952,12.817578315734865,-0.7686595916748047,-12.06800174713135,-1.413684964179993
21.39779090881348,-6.313604354858398,14.714591026306154,-0.7290198802947998,-12.424880027770998,-1.8060483932495117
34.71282577514649,-6.314338207244874,13.546359062194826,-0.36697319149971014,-11.760264396667482,-2.1310582160949707
41.84497833251953,-5.743842124938965,15.466333389282227,-0.8828514218330384,-10.628118515014648,-1.768172860145569
29.985366821289062,-5.08319091796875,13.27778720855713,-1.5592098236083984,-9.741396903991701,-1.409461855888367
27.52853012084961,-9.801162719726562,16.560604095458984,-1.949919104576111,-8.980978012084961,-1.6715317964553835
23.183633804321293,-12.705368041992188,18.451248168945312,-1.3183016777038574,-8.128486633300781,-2.2686178684234624
19.32196044921875,-10.029012680053711,21.192020416259766,-0.8214972019195557,-6.763906955718995,-2.614833354949951
6.69837236404419,-5.500648975372315,14.242969512939453,-0.8771933317184448,-6.086383342742921,-2.3482739925384526
45.62960433959962,-10.925982475280763,27.549964904785156,-0.05095477774739266,-4.729753494262695,-3.128656625747681
24.760360717773438,-8.325170516967773,33.42721176147462,0.5692273378372192,-0.5918675661087036,-2.794160127639771
16.888999938964844,-7.695365905761719,25.865196228027344,1.1002399921417236,2.3850924968719487,-2.454319953918457
13.223245620727539,-5.572009563446046,20.50251007080078,1.214508891105652,4.778470993041992,-1.9909348487854004
8.327749252319336,-3.9942827224731445,14.718133926391602,0.9871657490730287,6.17733097076416,-1.718215346336365
5.147902488708496,-3.1975495815277104,10.489547729492188,0.5621996521949769,6.9861721992492685,-1.405580759048462
1.6708848476409912,-3.1623945236206055,6.494382858276367,0.22821013629436496,7.199817657470703,-1.069747567176819
-1.4857553243637087,-3.2969722747802734,3.544273138046265,-0.11750105023384094,7.063129901885987,-0.7597170472145082
-2.8736097812652592,-3.642387866973877,2.298084259033203,-0.3412180542945862,6.628312587738038,-0.5626803636550903
-1.1723726987838747,-3.48361873626709,2.8477721214294434,-0.41099885106086737,6.159871578216554,-0.41484248638153076
1.2791743278503418,-3.393281936645508,4.274449825286866,-0.5035238265991211,5.9104981422424325,-0.26178455352783203
3.997069120407105,-3.2010765075683594,6.266318321228027,-0.6112481951713563,5.952874183654785,-0.05434677004814148
6.280021190643311,-3.1967687606811523,7.688608169555664,-0.6968045234680176,6.322073459625245,0.23158791661262512
6.641590595245362,-3.0959243774414062,8.08758068084717,-0.7453112602233887,6.770800590515137,0.536913573741913
7.060096740722656,-2.9160182476043706,7.6729278564453125,-0.76732337474823,7.087945461273194,0.8329318761825562
7.521480560302734,-2.57346773147583,7.0756545066833505,-0.7535402774810791,7.28751039505005,1.0945600271224978
7.997822284698487,-1.8921450376510622,6.980936527252198,-0.7889075875282289,7.395537376403809,1.3544872999191286
8.280118942260742,-2.013023853302002,6.950921058654785,-0.8466958999633789,7.419430732727051,1.5989326238632204
9.035399436950685,-2.5083944797515874,7.433695316314698,-0.8129813075065614,7.399035453796387,1.829846262931824
10.388303756713867,-2.980471611022949,7.94538450241089,-0.6591814160346986,7.385286331176758,2.0638508796691895
11.789024353027344,-1.6241842508316042,8.236216545104982,-0.4405374526977539,7.364575862884522,2.3562211990356445
12.806773185729982,0.4897800087928772,9.169082641601562,-0.5023351311683656,7.324452877044679,2.64969539642334
13.988235473632812,0.7923306822776796,10.228107452392578,-0.6983557939529419,7.2971463203430185,2.854012966156006
15.20869255065918,0.4679313004016877,11.571639060974123,-0.7864798307418823,7.266613483428956,2.951020479202271
16.710714340209964,-0.4423869252204895,13.349628448486328,-0.6961328983306885,7.224679470062257,2.939650058746338
18.18474578857422,-1.3885655403137207,15.25567150115967,-0.42244997620582586,7.152506351470948,2.837320327758789
20.67600822448731,-2.1529238224029545,17.599952697753906,-0.056563924998044975,7.074481010437012,2.636853456497193
24.091754913330078,-2.527228116989136,19.22063255310059,0.3205602765083313,7.079644680023194,2.3597276210784917
27.62551307678223,-0.30591893196105957,19.5430908203125,0.47899255156517034,7.0804948806762695,2.0987551212310795
31.015480041503906,1.941070795059204,18.190109252929688,0.13259182870388034,7.070449352264405,1.8567039966583252
32.25919723510743,0.9431042671203613,14.042847633361818,-0.4764804244041443,7.012562274932862,1.5098655223846436
31.468996047973636,-2.4851460456848145,7.178816795349121,-0.7646908164024354,6.749445915222168,0.986484169960022
31.959119796752933,-1.2028781175613406,-1.3573060035705566,-0.7816011905670166,6.105243206024171,0.31381726264953613
34.79106903076172,8.304203987121584,-10.3233642578125,-1.6848647594451904,5.155756950378418,-0.17867715656757358
41.5601806640625,10.379639625549318,-22.09704399108887,-3.644184827804566,4.303957939147949,0.02204045839607716
40.78953170776368,0.5714716911315918,-31.350503921508793,-4.116238594055176,3.146069765090943,0.5620984435081483
32.31882095336915,-4.833892822265625,-31.841983795166016,-2.5637800693511967,0.6740245819091797,0.5804314017295839
20.45091056823731,-4.985407829284668,-22.64791488647461,-0.24038678407669067,-2.129265785217285,-0.0791953131556511
16.988780975341797,-13.986363410949709,-13.436869621276857,3.4139363765716557,-5.6177825927734375,-0.8038159012794496
-6.870964050292969,7.588464736938477,-1.9480197429656982,4.39371156692505,-6.164258003234863,-1.5611670017242432
19.95024871826172,17.14812278747559,22.81808662414551,1.840510964393616,-6.966329574584961,-0.48785427212715154
17.931852340698246,4.412050247192383,23.12664604187012,0.24485476315021518,-6.258584499359132,-0.6122424602508545
30.42759513854981,7.781993865966797,16.309322357177734,0.47241893410682684,-5.881006240844727,-1.3182362318038943
28.659282684326172,9.12994384765625,17.233770370483402,0.21062645316123962,-5.17218828201294,-0.8530105948448182
29.59544181823731,2.6889638900756836,19.49903106689453,-0.11990475654602051,-3.953858613967896,-0.8139148950576782
19.05062294006348,-4.111522674560547,15.972031593322756,0.1775589883327484,-3.1438512802124023,-1.1492735147476199
9.826208114624023,-6.673623085021973,10.413192749023438,0.5432121753692627,-2.6745960712432866,-0.9809905290603638
13.655006408691406,-1.259202837944031,12.845996856689453,0.596060037612915,-2.3745143413543706,-0.9160627722740174
16.699090957641605,5.283390522003175,14.969017982482912,0.5395727157592773,-1.0234507322311404,-0.9477725028991699
6.07880449295044,-1.4735357761383057,8.929352760314943,0.647079885005951,-0.5908132195472718,-0.9565122127532959
9.993656158447266,-4.220608711242676,10.584091186523438,0.6065099835395814,-0.44258302450180054,-0.5170320868492128
6.105416297912598,2.69343113899231,11.503667831420898,0.3986175358295441,-0.24086052179336548,-0.32910722494125366
5.616093158721925,-0.3066108822822571,10.230331420898438,0.18701106309890747,-0.15409611165523532,-0.32568252086639404
4.982012271881104,-1.92330002784729,10.084717750549318,0.06505816429853441,-0.1366914361715317,-0.20965760946273804
5.3571791648864755,-0.5811328887939453,10.162999153137209,0.04403657466173172,-0.1658367365598679,-0.19695422053337097
6.06236219406128,-0.2881158888339997,10.034529685974123,-0.03617527335882187,-0.20522753894329074,-0.11130840331315996
5.40679693222046,-0.19686397910118103,9.905680656433107,-0.14177100360393527,-0.23645037412643433,-0.04148801788687707
5.296431541442871,-0.48023626208305364,9.770736694335938,-0.19194747507572177,-0.24768985807895663,0.004177614115178585
5.186818599700929,-0.41739898920059204,9.717008590698242,-0.22432498633861545,-0.27508091926574707,0.03400476649403573
5.241900444030762,-0.457332968711853,9.659011840820312,-0.27201816439628607,-0.2871915102005005,0.05792882293462753
5.1577653884887695,-0.45487749576568604,9.708742141723633,-0.3386521339416504,-0.2981580793857575,0.10423138737678528
5.0012407302856445,-0.8327208757400513,9.615096092224123,-0.3851912915706635,-0.31635591387748724,0.13026991486549377
4.7629289627075195,-2.08223819732666,9.22067642211914,-0.3981648981571198,-0.3372678756713867,0.131027564406395
4.51435661315918,-2.8112239837646484,8.907630920410156,-0.33740451931953436,-0.38362711668014526,0.034129075706005096
4.739434242248535,-2.109023809432984,8.749521255493164,-0.22346805036067965,-0.4312700629234314,-0.0622287504374981
4.830881118774414,-1.8055621385574343,8.747093200683594,-0.13691872358322144,-0.4632355570793152,-0.14641965925693515
5.107483386993409,-1.8875112533569336,8.659021377563477,-0.06303133070468903,-0.48344060778617864,-0.19613733887672424
5.178597450256348,-1.749529004096985,8.665546417236328,-0.016257913783192638,-0.4807393550872803,-0.23441767692565918
5.221709728240968,-1.762483835220337,8.647066116333008,0.03247750550508499,-0.4607993066310883,-0.2717629075050354
5.322710990905762,-1.5429205894470215,8.616135597229006,0.09064273536205292,-0.4279118776321411,-0.3091364204883576
5.417935371398926,-1.5321712493896484,8.579355239868164,0.12802357971668246,-0.3931501507759094,-0.35118469595909124
5.488182067871094,-1.30484938621521,8.44683837890625,0.15342503786087036,-0.3550573885440827,-0.3863379061222077
5.31177854537964,-1.1954427957534792,8.512614250183107,0.1580963432788849,-0.3186159431934357,-0.41440075635910034
5.061253547668457,-1.1536812782287598,8.88339614868164,0.18889936804771423,-0.3342468738555908,-0.4436469376087189
4.89870548248291,-1.3914884328842165,8.998392105102539,0.25718370079994207,-0.38743680715560913,-0.4892588555812836
5.137659549713136,-1.1467324495315554,9.197239875793459,0.30088627338409424,-0.46329805254936224,-0.5120185017585756
5.315079212188722,-0.882953405380249,9.079060554504396,0.27900439500808716,-0.5379530787467958,-0.5153030157089233
5.275946617126465,-0.1600582152605057,8.98597049713135,0.23320958018302917,-0.6194356679916382,-0.4869774281978608
5.245911598205566,0.12797145545482638,9.162755012512209,0.15840449929237366,-0.7284030318260194,-0.42941534519195557
5.453844547271729,-0.03599923849105835,9.161561965942383,0.11256177723407745,-0.8572470545768739,-0.37587705254554754
5.009325981140137,-0.14499337971210483,9.230520248413086,0.09204807877540588,-0.9956521391868592,-0.33179229497909546
5.299261093139648,0.22038920223712924,9.390336990356445,0.06678517907857896,-1.1631273031234743,-0.2795715928077698
5.2932143211364755,0.38254049420356756,9.382083892822266,0.027477916330099106,-1.3420521020889284,-0.20986837148666382
5.187702178955078,0.28815001249313354,9.673442840576172,-0.026175068691372875,-1.5617952346801758,-0.13609910011291504
5.113184928894043,-0.020123392343521118,9.897001266479492,-0.06727489084005357,-1.8588624000549316,-0.06842177361249925
5.208399295806886,-0.013648569583892822,9.92809581756592,-0.10573527961969377,-2.19798493385315,-0.017069000750780106
5.05126953125,0.09924738109111786,10.015322685241701,-0.17548224329948425,-2.5861794948577885,0.017189327627420425
5.303728580474854,0.6500169038772583,10.071051597595217,-0.2766611576080322,-3.0233743190765385,0.04145449772477151
5.200588226318359,0.20995014905929565,10.098968505859375,-0.4146214425563813,-3.5254907608032227,0.0377836786210537
4.644008159637452,-1.351159453392029,10.825030326843263,-0.4628782868385315,-4.209571838378906,-0.07796233147382738
2.4133005142211914,-2.963411331176758,10.962509155273438,-0.45411187410354614,-5.003860950469972,-0.24761435389518738
2.158314466476441,-3.540448427200318,10.141697883605959,-0.33250889182090765,-6.033745765686035,-0.5873368978500366
2.4062097072601323,-3.3960363864898686,9.73611831665039,-0.07133381813764574,-7.398709297180176,-1.021642565727234
4.312111854553223,-2.628177881240845,10.253768920898438,0.11336125433444977,-8.95260238647461,-1.250282406806946
4.377803802490234,-1.6049573421478271,10.511189460754396,0.20862817764282227,-10.676451683044435,-1.4819903373718262
9.701590538024904,-2.7612326145172124,11.644699096679688,0.0024147212971001868,-12.157039642333984,-1.6345560550689697
20.07550048828125,-4.075721263885499,13.843939781188967,-0.4091649949550629,-13.180139541625977,-1.6190248727798464
32.69586563110352,-3.68440580368042,14.984375,-0.4239099621772766,-12.87158203125,-1.798450589179993
44.69198226928712,-0.7825241088867188,13.44039058685303,-0.27236443758010864,-11.185137748718263,-1.7090730667114258
40.14624786376953,-6.5362820625305185,12.837779045104982,-0.900879979133606,-9.783038139343263,-1.2365890741348269
29.453722000122074,-10.261067390441896,18.220233917236328,-1.0247815847396853,-8.813228607177734,-1.6036020517349245
22.291969299316406,-6.490398883819581,20.907945632934574,-0.7872318625450135,-7.913938999176026,-2.162541389465332
19.63989067077637,-5.811884880065918,20.962665557861328,-0.26666003465652466,-7.044297695159913,-2.5020437240600586
3.924962759017945,-4.789971828460694,11.167761802673342,0.4956358373165131,-6.603811264038086,-2.9479846954345703
40.12663269042969,-6.191252708435059,21.672952651977543,0.22717633843421936,-5.845413684844972,-2.91292667388916
28.10160636901856,-6.23481559753418,31.771432876586918,0.19477424025535583,-2.2353601455688477,-2.529131650924683
16.983402252197266,-7.394935131072999,24.929943084716797,0.48084408044815063,0.7038766741752626,-2.18827486038208
15.11985492706299,-6.36420488357544,21.88133049011231,0.6312493085861206,3.2929923534393315,-1.5018590688705447
8.916834831237795,-5.045491695404054,15.71107292175293,0.5771862268447876,4.934680461883546,-0.9989564418792725
5.22862195968628,-4.283459663391113,11.382349014282227,0.38492709398269653,5.9484453201293945,-0.5721500515937806
3.6530098915100098,-3.8152744770050053,8.257650375366211,0.2219163179397583,6.468244075775147,-0.2368362843990326
0.27418854832649237,-3.5113437175750737,5.341179370880128,0.07670273631811143,6.478695869445801,0.1004369854927063
-2.4191257953643803,-3.4312267303466797,3.6717436313629155,-0.06683604419231415,6.194129467010499,0.34179168939590454
-1.2833169698715212,-2.708064556121826,3.6964221000671387,-0.20053806900978088,5.869246482849121,0.5011252760887147
1.0566143989562988,-1.4139366149902344,4.813831329345703,-0.4032398462295532,5.711164951324464,0.6876977682113647
2.5681915283203125,-0.45530271530151367,5.832167625427246,-0.7292160391807557,5.72979736328125,0.9118678569793701
3.888222455978394,0.053963273763656616,6.7989239692688,-1.0641844272613525,5.93406629562378,1.153916358947754
5.012647151947022,-0.1917499750852585,7.458342075347901,-1.254674553871155,6.210451602935792,1.3408279418945312
5.8037614822387695,-0.14393930137157443,7.766512870788574,-1.2862735986709597,6.462071418762207,1.4499672651290896
7.325737476348878,0.33581799268722534,8.199765205383303,-1.2540831565856934,6.692126750946046,1.5090719461441042
8.929322242736818,0.9375758171081543,8.559248924255373,-1.230163812637329,6.963419437408448,1.5472488403320312
9.943017959594727,1.554291009902954,8.807053565979006,-1.2742096185684206,7.25410032272339,1.5967466831207275
10.653309822082521,1.5898749828338623,8.985596656799318,-1.344358801841736,7.525774955749512,1.6387456655502322
10.682474136352539,1.2040492296218874,8.770495414733888,-1.3638627529144287,7.767076015472413,1.6655269861221316
10.786499977111818,1.240397095680237,8.63035774230957,-1.2779772281646729,7.86768388748169,1.6907236576080322
11.127089500427248,1.9809489250183105,8.742147445678711,-1.2352191209793093,7.851198673248292,1.7562661170959473
11.95376491546631,2.646835088729859,9.463481903076172,-1.304382920265198,7.761022567749023,1.843482851982117
13.244326591491701,2.4220135211944585,10.926919937133789,-1.3900725841522217,7.645855426788331,1.9127975702285769
14.849651336669922,1.9369728565216064,12.751300811767578,-1.3584452867507937,7.525738716125488,1.9471813440322878
16.220256805419922,1.2815870046615603,14.718445777893068,-1.2267683744430544,7.385553836822511,1.9330601692199707
18.84023475646973,0.5198004841804506,16.759683609008793,-1.0188026428222656,7.239005565643311,1.928403377532959
22.527359008789062,-0.6639243364334106,18.856859207153324,-0.6949683427810669,7.086555004119874,1.9765764474868777
27.01028633117676,-1.511441707611084,20.61649894714356,-0.2400576025247574,6.939702033996582,2.0279805660247807
32.23632431030274,-0.6124679446220399,21.652475357055668,0.20482060313224792,6.771170616149902,2.0213792324066167
37.630760192871094,0.9784129858016968,21.282798767089844,0.27146464586257935,6.678415775299073,1.9364397525787354
40.77631378173828,1.423495173454285,16.02075004577637,0.01892276480793953,6.726177692413331,1.758493781089783
43.89109420776368,1.192354679107666,3.9921567440032963,-0.33044302463531494,6.940572261810304,1.4731380939483643
50.72931671142578,7.879410266876222,-16.344469070434574,-1.031978487968445,7.230329990386964,1.1580288410186768
58.67995834350587,9.920592308044435,-39.851112365722656,-2.7228121757507324,7.1144118309021005,1.4199912548065186
40.36864852905274,9.113632202148438,-49.89696884155274,-3.800630569458008,4.731430530548097,2.3801062107086186
16.66945838928223,0.8882673382759095,-41.82918930053712,-3.6179549694061284,0.3355616331100464,2.256388902664185
8.651391983032227,-5.908058166503906,-23.458454132080078,-1.4303779602050781,-3.554067611694336,0.35842576622962957
16.667974472045902,-7.224924087524414,-2.4548683166503906,1.3083469867706299,-5.565630435943604,-1.4602940082550049
20.235374450683594,-4.848889827728272,17.00786590576172,3.866311550140381,-6.636773586273194,-2.4177362918853764
4.263615131378175,7.721360206604004,19.23174285888672,3.4686214923858647,-5.225619316101074,-2.0053870677948002
6.628501892089844,9.241050720214844,20.733814239501953,0.9740632772445679,-5.0269975662231445,-1.191543221473694
14.81048583984375,0.7879041433334351,11.56882953643799,0.011292784474790098,-5.471278190612793,-1.266449809074402
30.503614425659183,3.294060707092285,15.67642116546631,0.34969961643218994,-5.317335605621339,-0.9979279637336732
32.75173568725587,2.809211254119873,21.066068649291996,0.04314568638801575,-3.974646329879761,-0.3602476119995117
20.22642326354981,-1.6498768329620361,15.310488700866701,0.39952960610389715,-3.1231806278228764,-0.9711840152740479
11.123466491699219,-3.876741409301758,12.464582443237305,0.4774729013442993,-2.7381589412689213,-0.9148489236831665
15.822761535644531,-2.10596251487732,13.733428955078125,0.6586593389511108,-2.263152360916138,-0.8412321209907533
16.337701797485355,6.965225696563722,14.947917938232422,0.4684578478336335,-1.2141759395599365,-0.6640725731849672
5.604957103729249,1.7756782770156863,9.611186027526857,0.32193937897682195,-0.668883502483368,-0.6216272115707397
8.18204975128174,-4.181281566619874,9.717634201049805,0.32758954167366033,-0.5508542060852051,-0.44581875205039984
7.160820007324219,-0.30493760108947754,10.411127090454102,0.26817932724952703,-0.32626473903656006,-0.14463549852371216
5.235724449157715,0.905987024307251,10.79187870025635,0.09999323636293413,-0.28309905529022217,-0.11455393582582475
5.63832712173462,-1.7377393245697021,9.732677459716797,-0.029874607920646667,-0.19034230709075928,-0.08836262673139574
4.566825866699219,-1.483371138572693,9.774467468261719,-0.06697767972946167,-0.20728339254856112,-0.05880722403526306
5.432079792022706,-0.7752360701560975,9.995584487915039,-0.09595624357461931,-0.21716710925102234,-0.03769152611494064
5.450668811798097,-0.8999942541122437,9.933556556701662,-0.14720618724822998,-0.1881627291440964,0.017113056033849716
4.739827632904054,-1.4321303367614746,9.595830917358398,-0.1606080383062363,-0.2197426110506058,-0.023542508482933044
5.10911512374878,-1.6419247388839724,9.384533882141115,-0.12518948316574097,-0.25535973906517034,-0.05055949091911316
5.247215270996094,-1.391880750656128,9.32774066925049,-0.09213700890541077,-0.25377252697944647,-0.03440509364008904
5.271350860595703,-1.3845710754394531,9.287496566772461,-0.0902218371629715,-0.2322220951318741,-0.01522541418671608
5.299796104431152,-1.3105251789093018,9.327014923095703,-0.09966622292995453,-0.21361100673675537,0.0034869930241256957
5.215015411376953,-1.6365309953689577,9.240873336791992,-0.11170203983783722,-0.2057028263807297,0.04326505959033966
5.04535722732544,-1.607016444206238,9.007405281066896,-0.10412885993719102,-0.20542916655540466,0.010783905163407326
5.076568126678468,-1.3470567464828493,9.082578659057617,-0.09579215198755266,-0.2106967270374298,-0.003391476115211845
5.05425786972046,-1.3332983255386355,9.076966285705568,-0.08569338917732239,-0.21095281839370728,-0.01644806377589703
5.052088737487793,-1.0935753583908083,9.087719917297365,-0.09706293046474457,-0.22969220578670504,-0.015398310497403145
5.178624629974366,-1.210827350616455,9.004945755004883,-0.11741328984498979,-0.2259795367717743,-0.011773152276873589
5.200489044189453,-1.2549591064453125,8.948143959045412,-0.12403127551078796,-0.21997283399105075,-0.007453348487615585
5.252639293670655,-1.2366209030151367,8.869625091552734,-0.13143804669380188,-0.2046298384666443,-0.003842266974970699
5.170944690704347,-1.434873342514038,8.794576644897461,-0.13163138926029208,-0.18888887763023376,-0.006506287958472968
5.233406066894531,-1.4034826755523682,8.794894218444826,-0.12482170015573503,-0.1746024191379547,-0.011211220175027847
5.086455345153809,-1.5750883817672732,8.832472801208498,-0.11982015520334245,-0.16503140330314636,-0.0209066104143858
5.226006984710694,-1.681697130203247,8.804688453674318,-0.10718630254268646,-0.1538330316543579,-0.04473398253321648
4.83344316482544,-1.6873537302017214,8.604414939880373,-0.09116979688405992,-0.13700079917907715,-0.06267555803060533
4.529034614562988,-2.097377300262451,8.685912132263185,-0.04590661451220513,-0.15176549553871155,-0.11147941648960114
4.662044525146484,-2.4279787540435795,8.432491302490234,0.02422284707427025,-0.15866623818874362,-0.19860434532165527
4.063736915588379,-2.9163110256195073,8.332712173461914,0.14963541924953463,-0.14801849424839023,-0.34800684452056885
4.156005382537843,-3.0336170196533203,8.455663681030273,0.26000687479972845,-0.14991286396980286,-0.49809899926185613
4.833537578582765,-2.2322065830230717,8.656397819519045,0.37450700998306274,-0.10457206517457963,-0.6297393441200257
4.914083003997804,-0.9266911745071411,9.101586341857912,0.4132461249828339,-0.06986723840236664,-0.6651065945625306
6.125201702117921,0.9221347570419312,9.837442398071289,0.2781631350517273,-0.15572267770767212,-0.5305644869804383
5.523755073547363,-0.11189070343971252,9.84839725494385,0.16313584148883822,-0.26314038038253784,-0.4160794913768769
4.820947647094727,-0.8497440218925477,9.741872787475586,0.08232953399419786,-0.4247899651527405,-0.4231192469596863
4.741387844085694,-0.8775511384010316,9.928818702697756,-0.0015691029839217663,-0.6142837405204774,-0.4501814842224121
4.321160316467285,-0.47259217500686646,10.073168754577638,-0.01806633174419403,-0.8782428503036499,-0.4214108884334565
4.2990875244140625,0.027206599712371826,10.253795623779297,-0.04934100806713104,-1.202238440513611,-0.33405643701553345
3.753576993942261,0.794688642024994,10.748044967651367,-0.1331194043159485,-1.588658928871155,-0.1898569613695145
4.297266960144043,0.6771323680877686,10.894832611083984,-0.2523651719093323,-2.009976148605347,-0.0479709655046463
4.304643630981445,0.8521148562431337,10.957939147949219,-0.3808319568634033,-2.45900297164917,0.06496531516313554
3.8764047622680664,-0.024848178029060364,11.18482780456543,-0.4942697286605835,-3.0056078433990483,0.10354283452033997
3.923378229141236,-0.9357911348342896,11.087423324584961,-0.5836167335510254,-3.661012411117554,0.06753405183553697
