AccX,AccY,AccZ,GyrX,GyrY,GyrZ
0.0001269757194677368,-1.8928098143078387e-05,0.0002364068932365626,-1.1324088688979828e-07,-9.761189545542949e-08,-1.41525191565961e-07
4.985551357269288,-0.7482208013534546,9.236047744750977,-0.003966060932725669,-0.005569359287619591,-0.0072426749393343925
4.975990772247315,-0.7742723226547241,9.268974304199219,-0.0009300513193011284,-0.005449953954666854,-0.009087864309549332
5.031400680541992,-0.6961126923561097,9.261983871459961,-0.0006456188275478781,-0.006040640641003848,-0.008894465863704681
5.0115251541137695,-0.6963509321212769,9.259262084960938,-0.002294722944498062,-0.004889386240392924,-0.005571527406573296
5.017334461212159,-0.7404161691665649,9.219356536865234,-0.0006575193838216365,-0.0020748241804540157,-0.004863305948674679
5.021914482116699,-0.7264700531959535,9.2548303604126,-0.0004256230604369194,-0.0017945447470992804,-0.006498305592685939
4.988469600677491,-0.7455723285675049,9.231051445007326,0.0011689197272062302,-0.0003123413771390915,-0.005566078703850509
4.9032087326049805,-0.8270611166954042,9.26061534881592,0.0029211945366114382,-0.0044759297743439674,-0.010085112415254118
4.972747802734375,-0.7344630360603334,9.275513648986818,0.004844257142394782,-0.009788800030946732,-0.011183084920048714
4.972766876220703,-0.7778037190437318,9.27069091796875,0.006654948927462101,-0.008961935527622701,-0.012515826150774956
5.023249626159668,-0.689184308052063,9.264284133911133,0.003667788580060005,-0.01426505297422409,-0.013317993842065336
4.988131523132324,-0.7168631553649902,9.243155479431154,0.003788885893300176,-0.010335665196180344,-0.01044475566595793
5.001176357269288,-0.7275720238685609,9.251119613647461,0.005304001737385989,-0.009757403284311295,-0.011409420520067215
5.027378082275391,-0.7012512683868408,9.269900321960451,0.004819058813154697,-0.006267090793699027,-0.012426180765032768
5.0046963691711435,-0.7172125577926636,9.262915611267092,0.005396104883402587,-0.00609338702633977,-0.012693217024207115
5.0071377754211435,-0.7290956974029541,9.284619331359865,0.0072777774184942245,-0.0036370342131704096,-0.010285058990120888
4.98421335220337,-0.733920693397522,9.26351833343506,0.006984942592680454,-0.0037903857883065943,-0.01269034016877413
4.987347602844238,-0.757335901260376,9.280643463134766,0.007048651576042175,-0.005859869997948409,-0.012877212837338448
4.972869873046875,-0.6934087872505189,9.29164218902588,0.006354314740747214,-0.007765421178191901,-0.01357642374932766
4.981849670410156,-0.726748287677765,9.255145072937013,0.003425528295338154,-0.008518111892044546,-0.013041557744145393
5.0265607833862305,-0.7020008563995361,9.27162265777588,0.0029860341455787425,-0.0072464123368263245,-0.01126023754477501
4.978022098541261,-0.715646803379059,9.290818214416506,0.0015292088501155376,-0.00725464103743434,-0.010641830042004585
5.009586334228516,-0.7074371576309204,9.28871822357178,0.0009206163231283426,-0.00846499390900135,-0.00960360746830702
5.040143966674805,-0.6815252900123597,9.249242782592773,0.000760889146476984,-0.004709025379270316,-0.006724354811012745
5.029953956604004,-0.7657874822616577,9.272501945495607,0.00012385971785988661,-0.0005168017232790589,-0.0056174397468566895
4.996534824371339,-0.7356864213943481,9.291275024414062,0.0022917867172509436,-0.0004174058558419347,-0.007514449302107097
5.035994529724121,-0.7154608368873597,9.25071430206299,0.004233302082866431,0.004298192914575339,-0.005953221581876278
4.972819805145265,-0.7315304279327393,9.231429100036623,0.003558932803571224,0.009010366164147856,-0.005279442295432091
4.926671028137207,-0.7021267414093018,9.283884048461914,0.008211172185838224,0.0063042109832167625,-0.008548799902200699
4.955951690673828,-0.6816716194152832,9.243292808532717,0.005830945447087288,0.002036289079114795,-0.008849173784255981
4.94660234451294,-0.6912452578544618,9.270910263061523,2.9828835977241397e-05,-0.0020125126466155052,-0.006669009570032359
4.968867301940918,-0.7365761995315552,9.27537727355957,-0.00019035597506444904,-0.0043656351044774055,-0.006845068652182818
4.960640907287598,-0.7473057508468628,9.285383224487305,0.0017733114073053005,-0.0042907362803816795,-0.008922982960939407
4.9706692695617685,-0.7226259112358094,9.285145759582521,0.003079687943682075,-0.00539493840187788,-0.009761116467416288
4.97907590866089,-0.7037498950958252,9.291067123413086,0.0010569846490398052,-0.005954612512141467,-0.009547848254442215
4.986106395721436,-0.7174428701400757,9.261357307434084,0.002884316490963102,-0.004990714602172375,-0.010420466773211958
4.998213291168214,-0.7214187979698182,9.256829261779787,0.0031886550132185225,-0.0061151208356022835,-0.01146925613284111
4.983710765838624,-0.782502293586731,9.274909973144531,0.0076705976389348516,-0.0026761582121253014,-0.011866173706948759
4.972519874572754,-0.684035360813141,9.266510009765625,0.007925904355943205,-0.003647879930213094,-0.012478187680244446
5.067775249481202,-0.6171369552612305,9.247615814208984,0.005092016886919738,-0.0013197250664234161,-0.007863101549446585
4.975555419921875,-0.6668155193328857,9.226901054382326,0.0025553593877702956,0.004102680832147598,-0.005884123034775257
4.916446685791016,-0.7788960337638856,9.240270614624023,0.003115840256214142,0.001337353955022991,-0.00754036009311676
4.997764587402344,-0.728855073451996,9.263971328735352,0.006307574454694987,0.0017878155922517183,-0.008715085685253143
4.955726623535156,-0.6613876223564149,9.298089027404787,0.004365759436041118,0.002342421095818281,-0.008835981599986555
4.962014198303223,-0.7311182618141175,9.28708267211914,0.0015202751383185387,-0.00012926162162330004,-0.008383843116462232
5.007751941680909,-0.6753157377243042,9.250943183898928,0.0008842552197165788,-0.0005327640101313591,-0.0071517457254230985
4.992927551269531,-0.703036904335022,9.278672218322756,0.0018696878105401993,0.0014822338707745075,-0.004600831773132087
4.973557949066163,-0.7545443177223207,9.290321350097656,0.006496995687484741,0.004246836062520743,-0.0031481883488595486
4.959589481353761,-0.73293137550354,9.294052124023438,0.005674689542502166,0.0029079364612698555,-0.005889390595257282
4.994383811950684,-0.7031592130661011,9.2608642578125,0.0052831824868917465,0.005114732775837184,-0.0053246477618813515
4.938192367553711,-0.7124310731887817,9.277005195617678,0.004232312086969615,0.0045776800252497205,-0.006189407780766487
4.942073345184327,-0.7398921847343446,9.277989387512209,0.003716187085956335,0.002610381925478578,-0.005726408213376999
4.942887306213379,-0.7155827283859253,9.255880355834961,0.005546777974814177,0.002778615802526474,-0.007704591378569603
4.944925308227539,-0.6659249067306519,9.281771659851076,0.004231540020555259,0.0003751831827685237,-0.009679696522653105
4.924076080322266,-0.7244619131088257,9.285521507263185,0.0013224006397649648,-0.0018191336421296003,-0.006127399392426014
4.94441032409668,-0.6983262300491333,9.296749114990234,-0.0006883745081722736,-0.003878795308992267,-0.006856114603579044
4.948581218719483,-0.7302960157394409,9.263123512268068,0.001272454857826233,-0.0037655273918062453,-0.008460425771772863
4.9653058052063,-0.7263525128364564,9.300149917602539,0.0032603731378912926,-0.005130092147737742,-0.010695332661271095
4.990286827087402,-0.6841171383857728,9.28048324584961,0.0010250207269564273,-0.0070348852314054975,-0.009805049747228622
4.984894752502441,-0.7030770778656006,9.297696113586428,0.00012342134141363204,-0.0038088539149612193,-0.00827009230852127
4.953868865966797,-0.7627509832382202,9.279892921447756,0.002520403126254678,-0.0015212332364171743,-0.008007669821381569
4.930866241455078,-0.7129342555999756,9.280860900878906,0.004141876474022865,-0.0033936223480850462,-0.009449111297726631
4.951074600219727,-0.7288421988487245,9.273849487304688,0.004861595574766398,-0.0025626283604651694,-0.009475335478782654
4.920000076293945,-0.7126960754394531,9.277405738830568,0.0035891151055693626,-0.0027765661943703894,-0.0114922896027565
4.929558277130128,-0.749858021736145,9.307781219482422,0.0045007579028606415,-0.0033920395653694872,-0.0108265383169055
4.933613300323487,-0.7213848233222963,9.293848991394045,0.0046310992911458015,-0.006976929027587176,-0.013255523517727852
4.958958625793457,-0.6882076859474183,9.303211212158203,0.005445960909128189,-0.006953093223273754,-0.011521448381245138
4.965927600860597,-0.7091669440269471,9.277679443359375,0.003419487969949842,-0.005978809669613838,-0.0111797908321023
4.908215045928956,-0.7224812507629395,9.326801300048828,0.004271013196557761,-0.008496787399053574,-0.010613720864057541
4.954294204711914,-0.7342787981033325,9.311537742614748,0.002946767956018448,-0.01165492180734873,-0.013356994837522507
4.975039958953858,-0.6860076189041138,9.280066490173342,0.0036341040395200253,-0.013158364221453667,-0.012859121896326544
4.976277828216554,-0.6691858768463135,9.282519340515138,0.002509061712771654,-0.011202611960470678,-0.011523427441716194
4.926291465759277,-0.7051568031311035,9.267542839050295,0.002116298768669367,-0.008967344649136068,-0.009958165697753431
4.902215957641602,-0.7530614137649536,9.278493881225586,0.0030924838501960043,-0.010527817532420158,-0.010519682429730894
4.9261884689331055,-0.7468381524086,9.286800384521484,0.003617386566475034,-0.014419632963836195,-0.015244787558913231
4.943896770477296,-0.6730794906616211,9.302263259887695,0.003111497964709997,-0.017123172059655193,-0.01557525061070919
4.973680019378663,-0.6679251194000244,9.295783042907717,-0.0029890465084463362,-0.015686258673667908,-0.012296397238969803
4.9641127586364755,-0.7245060205459595,9.268385887145998,-0.0034303518477827315,-0.015073316171765327,-0.009971403516829016
4.933527469635011,-0.7461928129196167,9.274813652038576,-0.0002138369454769418,-0.0168925765901804,-0.011556440964341164
4.969224452972413,-0.7414634227752686,9.275627136230469,0.0025318721309304237,-0.016524085775017742,-0.01317986287176609
4.983716487884522,-0.6560633778572084,9.268162727355959,-0.0012959542218595743,-0.01632913760840893,-0.011327094398438932
4.9693098068237305,-0.7309924960136415,9.299767494201662,-0.004654297139495612,-0.013515189290046692,-0.009352826513350012
4.962429046630859,-0.7497462630271913,9.299575805664062,-0.003092806786298752,-0.015009870752692223,-0.009058876894414427
4.951250553131104,-0.699588418006897,9.29916000366211,-0.00160287122707814,-0.016039635986089706,-0.012310511432588102
4.9481353759765625,-0.7013352513313295,9.275401115417482,-0.0009022440644912423,-0.01797902211546898,-0.013330027461051941
4.940829277038574,-0.7047227025032045,9.297327041625977,-0.0023736834991723303,-0.01886598765850067,-0.011148541234433653
4.916765213012695,-0.6979697346687318,9.271122932434084,-0.005115616135299206,-0.020586103200912476,-0.012041329406201841
4.929579734802246,-0.7883607149124146,9.267034530639648,-0.0031106525566428904,-0.021363425999879837,-0.01459814887493849
4.872724533081055,-0.7113093733787538,9.281200408935547,-0.0008673864067532123,-0.025677412748336792,-0.017424385994672775
4.981497764587402,-0.7579687833786011,9.294197082519531,-0.001146113034337759,-0.030871508643031124,-0.019029904156923294
4.979057788848878,-0.6720388531684877,9.325294494628906,-0.0030615623109042645,-0.03313709795475006,-0.017121633514761928
4.984302043914796,-0.6868571639060975,9.289016723632812,-0.0065625892020761975,-0.02905949205160141,-0.016004452481865886
5.028762340545655,-0.6561153531074525,9.269223213195803,-0.004374700132757426,-0.027236923575401306,-0.013730134814977646
5.03819227218628,-0.6879607439041138,9.241982460021974,-0.0047912392765283585,-0.020373942330479625,-0.012105399742722511
4.99571180343628,-0.7182803153991699,9.234360694885256,-0.0017917129443958404,-0.0177381094545126,-0.01135559007525444
4.989796161651612,-0.7415919303894043,9.249949455261232,-0.0005016779759898782,-0.014960189349949362,-0.011426085606217384
4.969947338104249,-0.7600443363189697,9.249177932739258,0.002626921981573105,-0.011434742249548437,-0.012375804595649244
4.952896595001222,-0.7255120277404785,9.276722908020021,0.004314604680985213,-0.010267937555909157,-0.01505441125482321
4.939018249511719,-0.7195826768875122,9.299939155578615,0.0021123050246387724,-0.014260792173445226,-0.015139700844883919
4.938130855560304,-0.7079939842224121,9.292085647583008,0.0037188068963587284,-0.015051026828587057,-0.014681432396173477
4.959874629974366,-0.7043932080268861,9.290575981140138,0.0016505320090800524,-0.01719990931451321,-0.01600381545722485
5.029288291931152,-0.6500949263572694,9.287510871887209,0.00012902841262985024,-0.0142676942050457,-0.012541760690510275
5.0042619705200195,-0.6568275094032289,9.289857864379883,-0.002198997884988785,-0.010545069351792336,-0.007774831261485816
5.011702060699464,-0.7028247714042665,9.254357337951662,-0.0010127347195521,-0.009396599605679512,-0.004347142297774554
5.002221584320069,-0.6975001692771913,9.266324996948242,-0.001077920664101839,-0.003848123131319881,-0.005092456471174956
4.971798896789551,-0.7567065954208374,9.247766494750977,0.0010497128823772075,-0.0003450140939094126,-0.004762514028698207
4.964712142944336,-0.7388960719108583,9.292251586914062,0.0030085984617471695,-0.0005552918883040547,-0.007257099729031325
4.947878360748292,-0.7195093035697938,9.284662246704102,0.005207300651818515,0.0003372147330082953,-0.008116847835481169
4.966839313507081,-0.7594102621078491,9.257989883422852,0.005536897107958794,-0.0010964601533487441,-0.011800237931311132
4.965167522430421,-0.664435625076294,9.26820468902588,0.00748529238626361,-0.0011256425641477108,-0.010883393697440626
5.030057907104492,-0.6060118675231934,9.273482322692873,0.004469643346965313,-0.0004176648217253387,-0.007925339974462988
4.9116411209106445,-0.7088573575019838,9.25748920440674,0.0022566325496882205,0.003964000381529331,-0.006102961953729392
4.894862651824952,-0.7402063608169556,9.303355216979982,0.0012010771315544844,-0.00038002929068170493,-0.00647461460903287
4.994848251342773,-0.6804996728897095,9.314986228942873,0.00027301817317493265,-0.0033778524957597256,-0.006264588329941035
4.944733142852784,-0.6965264678001405,9.297775268554688,-0.0024971310049295425,-0.004981027916073799,-0.006266097072511912
4.931053161621094,-0.7746113538742065,9.266163825988771,-0.00041842320933938026,-0.00752918003126979,-0.00832071341574192
4.965299129486085,-0.6804410815238954,9.285929679870607,0.002712216693907976,-0.007228651549667121,-0.010828771628439428
4.965648651123047,-0.7030341029167176,9.25373649597168,0.002039355924353004,-0.00456805806607008,-0.008474920876324179
4.959293365478516,-0.7256532907485962,9.267643928527834,0.0028096486348658804,-0.00518842088058591,-0.010409217327833176
4.961163043975831,-0.7008332014083862,9.293155670166016,0.0031258179806172848,-0.005278099793940783,-0.011182684451341629
4.993586540222168,-0.6918820142745972,9.27922248840332,0.003561096265912056,-0.00403837999328971,-0.010507135652005674
4.974853515625,-0.6381629705429077,9.25784206390381,0.0006560720503330231,-0.0018017758848145606,-0.004435273818671703
4.906343936920167,-0.7209519147872925,9.25790309906006,-0.0009820850100368261,-0.0016986732371151447,-0.005219221580773593
4.899715423583984,-0.757552206516266,9.298088073730469,0.0003499079612083733,-0.004676218610256911,-0.010082680732011795
4.926420211791992,-0.7326663732528687,9.312317848205568,0.00250936602242291,-0.009608376771211624,-0.011135052889585495
4.916788101196289,-0.6960330605506898,9.30314826965332,0.0005213975091464819,-0.0117975864559412,-0.010451237671077253
4.972132682800293,-0.7121976613998413,9.298498153686523,-0.0007738125859759749,-0.012961613945662977,-0.010910393670201302
4.951074123382569,-0.7131347060203553,9.308781623840334,0.0007891740533523263,-0.013860739767551422,-0.012416538782417776
5.006383419036866,-0.6358770132064819,9.260366439819336,0.001546585001051426,-0.01348663028329611,-0.011712140403687956
5.0131425857543945,-0.6629618406295776,9.26552486419678,-0.0013604876585304737,-0.006229877937585116,-0.006106645800173283
4.986549854278565,-0.6821341514587402,9.258639335632326,-0.0045358273200690755,-0.0016156419878825547,-0.004166935570538044
4.976294994354249,-0.657111406326294,9.263267517089844,-0.001351114013232291,0.004074021242558956,-0.003286424791440368
4.935503482818604,-0.6960443258285522,9.307567596435547,-0.004119382239878178,0.006604603957384826,-0.0007775920093990863
4.998326301574707,-0.6482367515563965,9.31746006011963,-0.004645833279937507,0.0070647867396473885,0.001761728315614164
5.01222848892212,-0.6676150560379028,9.275149345397951,-0.007371380459517241,0.00947918649762869,0.005252877250313759
4.927834987640382,-0.7013025879859925,9.264044761657717,-0.008626680821180344,0.012112277559936048,0.0057007549330592155
4.931954860687257,-0.7269949913024902,9.313606262207031,-0.0074440338648855695,0.010927325114607811,0.0075480323284864426
4.846274852752686,-0.7836745977401733,9.28172492980957,-0.0066149597987532616,0.009042308665812017,0.0034263217821717262
4.865253925323487,-0.8319522738456727,9.300852775573732,-0.003152236808091402,-0.0006106693763285875,-0.00431048357859254
4.93922233581543,-0.7759766578674316,9.307291984558107,-0.00014111796917859468,-0.003939569927752018,-0.006469197105616332
4.925317764282227,-0.7298165559768677,9.278964042663576,-0.0008291089325211943,-0.007037428207695484,-0.008641736581921577
4.980677127838136,-0.6418873071670532,9.282922744750977,0.0031551697757095103,-0.0035769231617450714,-0.007940511219203474
4.9322357177734375,-0.6658438444137573,9.284412384033203,0.00032440113136544824,0.0015998200979083776,-0.0066955150105059156
4.906767368316651,-0.748382866382599,9.30484390258789,9.859004785539584e-05,0.0016822798643261194,-0.005987213458865882
4.888200759887695,-0.7153912782669067,9.316192626953125,-0.0004355757846496999,-0.0030445724260061984,-0.007873571477830412
4.962909221649171,-0.6936221122741699,9.30162239074707,-0.0036308274138718848,-0.008158404380083084,-0.006893652956932784
4.961374282836914,-0.6969421505928041,9.280400276184084,-0.004801801871508361,-0.004958926234394313,-0.005376514978706837
4.766759872436523,-0.7781772017478944,9.29344367980957,-0.0026504436973482375,-0.009789681062102318,-0.006834442261606456
4.845852851867676,-0.8640522956848145,9.324403762817383,0.001405181712470949,-0.021134473383426666,-0.014837294816970825
4.88873291015625,-0.7559354305267334,9.285390853881836,0.005462939850986004,-0.027761081233620647,-0.020597059279680252
4.901894092559815,-0.7139109373092651,9.28141975402832,0.00516188656911254,-0.02958900667726994,-0.023693669587373734
4.961403369903565,-0.6930724382400513,9.281547546386719,0.005502299871295691,-0.030393611639738083,-0.022525602951645855
4.988805294036866,-0.6561853885650635,9.288665771484375,0.004016182851046325,-0.02726591005921364,-0.02147088199853897
5.001117706298828,-0.7403441667556763,9.29860019683838,0.008472586050629616,-0.02391997538506985,-0.01861274242401123
4.981821537017823,-0.7422527074813843,9.290484428405763,0.009797028265893461,-0.018543494865298275,-0.018023967742919922
4.963326930999757,-0.6958332657814027,9.299802780151367,0.008105777204036713,-0.016116311773657802,-0.018080171197652817
4.955129146575929,-0.6718053817749023,9.29981327056885,0.007910781539976599,-0.016869209706783295,-0.015978194773197174
4.89777421951294,-0.7252854108810425,9.31189823150635,0.0036254322621971373,-0.018976949155330658,-0.015028501860797407
4.874556064605714,-0.7937155961990356,9.311514854431154,0.006492109969258308,-0.02548382431268692,-0.019736750051379207
4.94927978515625,-0.6303880810737611,9.277254104614258,0.00859702005982399,-0.029136346653103832,-0.02187887579202652
4.944482326507569,-0.631488859653473,9.268259048461914,0.0004039823252242059,-0.030351214110851288,-0.015770897269248962
4.915334224700929,-0.7335420846939087,9.256290435791016,-0.0024906441103667025,-0.031455352902412415,-0.015307352878153326
4.931159019470215,-0.7118011116981507,9.281574249267578,-0.0012114894343540075,-0.03427476063370705,-0.01743391901254654
5.010562419891358,-0.6510098576545716,9.288180351257326,-0.0015207943506538868,-0.035384703427553184,-0.01441364549100399
5.013048648834229,-0.6613434553146362,9.29848384857178,-0.003917098045349121,-0.032531764358282096,-0.011377059854567053
4.990810394287109,-0.7016730308532715,9.28662967681885,-0.005359132774174213,-0.028171347454190258,-0.009607585147023201
5.00178098678589,-0.7586443424224854,9.259824752807617,-0.0032623163424432278,-0.027117647230625153,-0.010400979779660703
5.003990650177003,-0.6590844392776489,9.28250026702881,-0.0013917951146140697,-0.0225212424993515,-0.011946889571845533
5.013349056243897,-0.6334743499755859,9.259647369384766,-0.0050095971673727036,-0.01692014001309872,-0.008915570564568044
4.995139122009277,-0.6574689149856567,9.25597667694092,-0.007222470827400684,-0.012555937282741072,-0.005108607932925224
4.9771881103515625,-0.6809748411178589,9.2506799697876,-0.008137650787830353,-0.010200999677181244,-0.0020147219765931372
4.946860790252686,-0.7685701847076416,9.281972885131836,-0.006506768055260181,-0.0065357726998627194,-0.005130684934556484
4.969760894775391,-0.7072735428810121,9.280082702636719,-0.003503283951431513,-0.005361237097531558,-0.006589465308934451
4.960026264190675,-0.6715005040168763,9.297245025634766,-0.005984328221529723,-0.00452723354101181,-0.0048109334893524655
4.937114238739015,-0.711260497570038,9.267447471618654,-0.0076941545121371755,-0.0072264871560037145,-0.003073228057473898
4.997307300567628,-0.7266699075698853,9.288137435913086,-0.0038007283583283424,-0.005189843010157348,-0.005792556330561638
5.02107858657837,-0.6086745858192445,9.281944274902344,-0.007964972406625748,-0.001967205433174968,-0.002790190046653152
4.990236282348633,-0.7119290828704834,9.31129550933838,-0.012556065805256368,-0.0003453238750807941,0.002141706412658096
5.02384901046753,-0.6945081949234009,9.245188713073732,-0.012108861468732359,0.002694492926821113,0.006268993951380253
5.024198532104492,-0.6543426513671875,9.192996978759766,-0.00978868082165718,0.009834346361458303,0.006864998489618301
5.036585807800293,-0.55780029296875,9.250869750976562,-0.011573610827326775,0.021150929853320125,0.012025005184113981
5.056573867797852,-0.5405893921852113,9.284863471984865,-0.017734631896018982,0.028467526659369472,0.02213626354932785
5.079413890838624,-0.5595512390136719,9.29798698425293,-0.029337266460061077,0.03592193499207497,0.03293193131685257
5.080267906188965,-0.6617185473442079,9.309866905212404,-0.035390269011259086,0.04734364151954651,0.042257841676473624
5.006634712219238,-0.661156177520752,9.225458145141602,-0.03415226563811303,0.05726572871208191,0.04937707632780075
4.24571418762207,-0.9248287081718446,9.193167686462404,-0.04147195816040039,0.043680783361196525,0.03990389406681061
4.4584059715271005,-1.3429338932037354,9.368610382080078,-0.035660453140735626,-0.006176657043397427,0.007533410098403693
4.860005855560304,-0.9624793529510498,9.334169387817383,-0.006951729767024517,-0.029301667585968975,-0.01360483467578888
4.779204368591309,-0.5920432209968568,9.441808700561523,-0.021416880190372467,-0.046385679394006736,-0.015411957167088987
4.901601314544679,-0.7617979049682617,9.355011940002443,-0.035220108926296234,-0.060991246253252036,-0.007955934852361679
4.8881330490112305,-0.737783670425415,9.32638168334961,-0.04102307930588723,-0.06909330934286119,-0.0061665745452046394
4.8945326805114755,-0.764142632484436,9.31593990325928,-0.04591306671500207,-0.07774484157562256,-0.0034205813426524405
4.9235577583313,-0.8352493047714233,9.303769111633303,-0.051920939236879356,-0.08126595616340637,-0.005436918698251247
4.886756420135499,-0.8597220182418823,9.377969741821289,-0.04729350656270981,-0.09191384166479112,-0.008176485076546669
4.796488285064698,-0.7596518993377686,9.237112998962404,-0.05151892453432083,-0.10405388474464417,-0.011016747914254667
4.298614978790284,-0.9312182664871216,9.350101470947266,-0.07191658020019531,-0.1388174742460251,-0.015655457973480225
4.105674266815186,-0.94568008184433,9.51922130584717,-0.090275876224041,-0.2123982012271881,-0.0413661003112793
4.466766357421875,-0.8481956720352173,9.615751266479492,-0.1057293713092804,-0.2883246243000031,-0.06807057559490204
4.236721038818359,-0.2085269540548325,9.886576652526857,-0.1489475965499878,-0.35736554861068726,-0.08739448338747026
4.686943054199219,-0.3796624541282654,9.892637252807617,-0.2170386016368866,-0.4700112640857697,-0.08251966536045074
4.791895389556886,-0.8095901012420654,9.772318840026857,-0.24634987115859985,-0.5557755827903749,-0.0802569016814232
4.5123491287231445,-0.8430943489074707,9.871771812438967,-0.23813050985336304,-0.6837366223335267,-0.09712806344032288
4.316015243530273,-1.0686492919921875,10.04098892211914,-0.22581832110881808,-0.8269506096839906,-0.13729563355445862
4.762269020080566,0.30800390243530273,10.638976097106935,-0.3223941028118134,-1.0392765998840332,-0.13553161919116977
3.498894214630127,-2.007793426513672,10.743012428283693,-0.3350478112697602,-1.3848271369934082,-0.12691086530685425
3.5105588436126713,-0.6342732906341553,11.162724494934084,-0.2528538703918457,-1.7394407987594607,-0.1268826723098755
3.476412773132324,-1.6389966011047363,11.088016510009766,-0.2407234758138657,-2.155281782150269,-0.18703985214233398
3.599689483642578,-2.4213953018188477,11.228349685668945,-0.10947013646364213,-2.6140799522399902,-0.2727393209934235
3.850288629531861,-2.504520893096924,11.247010231018068,0.024095492437481884,-3.076423168182373,-0.44437116384506226
5.527127742767335,-3.3195114135742188,11.32370376586914,0.17574848234653476,-3.5652670860290527,-0.6067796349525453
6.434185504913331,-2.5586934089660645,12.114752769470217,0.2949396669864655,-3.9016654491424565,-0.7039166688919067
5.959425449371339,-1.827070713043213,11.500563621520998,0.2577015161514282,-4.2427687644958505,-0.8902678489685059
6.990602493286133,-3.10223388671875,11.326611518859865,0.3530909717082978,-4.513474464416504,-1.156975507736206
8.129014015197756,-3.448296070098877,11.583745002746584,0.5394570231437684,-4.6943769454956055,-1.3997353315353396
9.960577011108398,-2.7314074039459233,11.638318061828615,0.515782356262207,-4.708552360534668,-1.552096486091614
12.14704990386963,-2.377696990966797,11.019230842590334,0.3063277006149292,-4.53315019607544,-1.584242343902588
14.543567657470703,-2.2934291362762456,10.355926513671875,-0.10958711057901384,-4.079710006713867,-1.4944148063659668
10.247695922851562,-2.996394634246826,7.888271331787109,-0.06781872361898424,-3.5336999893188477,-1.6738635301589968
8.192122459411623,-2.160396099090576,9.954661369323732,0.10478217899799347,-3.1172642707824707,-1.7370668649673464
9.299168586730959,-1.895527005195618,13.423235893249513,0.0790921375155449,-2.1754350662231445,-1.5854481458663943
6.100842952728272,-2.5803403854370117,14.038505554199219,-0.17081482708454135,-1.372593641281128,-1.4361371994018555
2.1538527011871342,-2.8631887435913086,12.14344120025635,-0.2678065299987793,-0.7360087037086488,-1.2844617366790771
4.906069755554199,-3.53992247581482,13.833811759948732,-0.4530249238014221,-0.18875038623809814,-1.0642834901809695
1.0817649364471436,-3.5676839351654057,12.633970260620117,-0.5515381693840028,0.45642590522766113,-0.8539764285087587
0.3067074418067932,-3.595531463623047,12.053050994873047,-0.5360022783279419,0.9185258746147157,-0.6635387539863588
-1.3698776960372927,-3.267564296722412,11.32290267944336,-0.5342059135437012,1.3066674470901491,-0.45541125535964966
-2.2228834629058842,-3.1977546215057377,10.656286239624023,-0.5486565232276918,1.5759419202804568,-0.24888208508491516
-2.5519142150878906,-3.1175963878631596,10.439870834350586,-0.5437511801719667,1.7690050601959229,-0.038513284176588065
-2.413195371627808,-2.92326021194458,10.509716987609865,-0.5429171323776245,1.9333060979843142,0.16068156063556674
-2.030110597610474,-2.652046918869019,10.791248321533203,-0.5705475807189941,2.1047089099884038,0.3676678538322449
-1.5914521217346191,-2.5927228927612305,11.181325912475586,-0.6155150532722474,2.2797362804412846,0.5757997035980225
-1.005995273590088,-2.608013153076172,11.525066375732422,-0.6361887454986572,2.4492423534393315,0.7716556787490845
-0.41364958882331854,-2.594372987747193,11.893964767456055,-0.6314094066619873,2.6145870685577397,0.9649985432624818
0.5036251544952393,-2.529432058334351,12.316704750061037,-0.5819168686866761,2.7868127822875977,1.1558762788772585
1.1597822904586794,-2.212303638458252,12.534769058227539,-0.5276436805725098,2.9613900184631348,1.3483740091323855
1.8152278661727907,-1.8703914880752566,12.711626052856445,-0.458324670791626,3.120681524276734,1.5154674053192139
2.484992027282715,-1.5416233539581299,12.823945999145508,-0.3675207197666169,3.2486939430236816,1.636929988861084
3.3262946605682377,-1.2462488412857058,12.885747909545898,-0.278708964586258,3.330263137817383,1.720950245857239
4.485011577606202,-1.0662908554077148,13.029863357543945,-0.191878154873848,3.4054992198944096,1.7438945770263672
5.607085704803468,-0.7467223405838013,13.17116928100586,-0.14205995202064514,3.4748799800872807,1.747081995010376
6.6504011154174805,-0.6412543654441835,13.341167449951172,-0.14443126320838928,3.5451257228851323,1.7288936376571657
7.683256149291992,-0.6951516270637513,13.516010284423828,-0.15957845747470858,3.599447727203369,1.6952317953109743
8.847884178161623,-1.122678518295288,13.574074745178224,-0.16190688312053683,3.6366903781890874,1.6379585266113281
10.044939041137695,-1.4399056434631348,13.646218299865724,-0.12626831233501437,3.6668457984924316,1.5534168481826784
10.884906768798828,-1.2553066015243532,13.464510917663576,-0.10448490083217621,3.6836740970611577,1.4704159498214724
11.676741600036623,-0.7351275086402894,13.331526756286623,-0.1672598421573639,3.708838224411011,1.4101765155792236
12.656059265136719,-0.33702391386032104,13.301836013793945,-0.33023753762245184,3.7721698284149174,1.3924908638000488
12.880173683166506,-0.5995200276374818,12.696512222290039,-0.4696342051029206,3.85001277923584,1.3877297639846804
11.93143081665039,-0.7094285488128662,11.211791038513185,-0.4756227731704712,3.838752985000611,1.348072171211243
10.943429946899414,-0.39907628297805786,9.616688728332521,-0.3881670832633972,3.6960399150848393,1.2718079090118408
10.470889091491701,-0.027094557881355286,8.24665641784668,-0.3135256767272949,3.4604082107543945,1.1917577981948855
10.533875465393068,0.18938906490802768,7.23820447921753,-0.26667687296867376,3.177582263946533,1.1250931024551394
11.414083480834961,0.10286208987236023,6.863002777099609,-0.23531536757946017,2.899106025695801,1.0934946537017822
12.249719619750977,-0.47425410151481634,6.148860931396484,-0.14755401015281677,2.669282197952271,1.0765080451965332
12.506988525390625,-0.8443444967269897,4.813876152038574,0.021269896999001506,2.4465811252594,1.0463135242462158
12.712258338928224,-0.9042044281959535,3.2693717479705815,0.17993576824665072,2.1714963912963867,1.011371970176697
13.239677429199219,-0.6358742117881776,1.7736960649490359,0.2674015164375305,1.7940343618392947,1.006963133811951
13.724300384521484,-0.6694024801254272,0.20240530371665955,0.293606162071228,1.3578189611434939,1.0113708972930908
14.115824699401857,-0.0658121109008789,-1.1086320877075195,0.2843557596206665,0.8878403902053833,0.9813032746315004
14.66646957397461,1.297911047935486,-1.7840425968170166,0.1769295334815979,0.44144061207771307,0.908572793006897
15.127888679504396,2.3953297138214116,-1.5487645864486697,-0.03488317131996155,0.04533835873007775,0.7533534169197084
15.841469764709474,3.617497444152832,-0.9059205055236816,-0.2843398451805115,-0.2790795266628266,0.5016919374465942
15.27787971496582,4.493596553802491,-0.5846124887466431,-0.5065099596977235,-0.5318085551261903,0.16258278489112854
10.572129249572756,3.6019828319549565,0.8802550435066224,-0.5981672406196595,-0.831655740737915,-0.2573115527629853
-2.5303521156311035,-0.4890127182006836,4.167685508728027,0.6347047090530396,-2.276438474655152,-0.6679455637931825
-6.267251014709473,10.537507057189943,8.806009292602539,0.32416185736656195,-2.9280834197998047,-0.8608909249305726
2.824476003646851,-0.9118683338165283,17.247659683227543,-0.2924733459949494,-2.992552995681763,-1.2514464855194092
4.013636112213136,-10.95749282836914,12.900754928588867,-0.3788739144802094,-3.0860981941223145,-1.4030014276504519
8.221972465515138,-12.512633323669435,9.307613372802734,-0.07912604510784149,-3.25243353843689,-0.9994716048240663
13.678857803344727,-9.357296943664553,14.319249153137209,0.0533059760928154,-3.1840798854827885,-0.33318543434143066
16.59652328491211,-2.2670924663543706,17.32833290100098,0.1367161422967911,-2.512072324752808,0.011848434805870056
12.322990417480469,5.127427101135254,13.772138595581055,-0.007956448011100294,-1.8989264965057373,0.04717605188488961
8.239828109741211,5.144968032836914,11.69373893737793,-0.260528564453125,-1.7177933454513552,-0.10360511392354967
6.678116321563722,-0.00958964228630066,11.541005134582521,-0.4088091254234314,-1.5310600996017458,-0.19490355253219604
4.869440078735352,-4.4788784980773935,9.41925048828125,-0.3539797961711884,-1.4492837190628054,-0.17101651430130005
6.386088848114015,-4.8437089920043945,9.55440902709961,-0.1410736590623856,-1.4228203296661377,-0.1733680218458176
8.331942558288576,-3.1688020229339604,10.972208976745607,0.06449099630117418,-1.2340211868286133,-0.24311870336532593
7.503983974456788,-1.505235195159912,10.934617042541506,0.20410549640655518,-0.9789127707481385,-0.3659461736679077
6.573910713195801,-2.5081400871276855,10.464831352233888,0.2340442091226578,-0.8238565325737001,-0.39028578996658325
6.18884038925171,-2.8605904579162598,10.340426445007326,0.28115317225456243,-0.7139198780059814,-0.3258244097232819
5.689994812011719,-1.8741286993026736,10.304912567138672,0.3341711759567261,-0.6283933520317079,-0.2753178179264069
5.177066802978516,-1.1712037324905398,10.076109886169435,0.33602625131607056,-0.5436974167823793,-0.2699991464614868
4.826587200164796,-1.1396359205245974,9.972911834716797,0.35965847969055176,-0.5024467706680298,-0.28329035639762884
4.705466270446777,-1.5099804401397705,9.793995857238771,0.41035774350166326,-0.49375271797180176,-0.2895642817020417
4.5606350898742685,-1.0201449394226074,9.65132236480713,0.41980433464050293,-0.4921033680438996,-0.2656214535236359
4.246042728424073,-0.7572559118270874,9.6384973526001,0.34991538524627686,-0.5043155550956727,-0.22542589902877808
4.846284866333008,-1.0499274730682373,9.834485054016115,0.25260329246520996,-0.5332349538803101,-0.20480336248874667
5.208811283111573,-1.2319540977478027,9.864062309265138,0.20039719343185425,-0.5090115666389466,-0.16829779744148254
5.301787853240968,-1.3754048347473145,9.870089530944826,0.15605373680591586,-0.45216941833496094,-0.1343686878681183
5.348077774047852,-1.4874759912490847,9.555183410644531,0.1387840658426285,-0.3674018979072571,-0.1386329382658005
5.3013930320739755,-1.6229641437530518,9.247303962707521,0.14450971782207492,-0.29344519972801214,-0.14291143417358398
5.422608375549316,-1.5549347400665283,9.232812881469727,0.14340904355049133,-0.23387549817562106,-0.12783554196357727
5.180662155151367,-1.9147803783416748,9.089091300964357,0.17142632603645325,-0.16721309721469882,-0.13850037753582004
4.788936614990234,-1.9543267488479616,8.944829940795898,0.2198047935962677,-0.12642608582973483,-0.1724388599395752
4.516550064086914,-1.6998661756515505,8.959714889526367,0.23355615139007568,-0.13149601221084595,-0.19105799496173861
4.6629300117492685,-1.2229300737380984,9.275167465209961,0.2011679708957672,-0.1416849344968796,-0.18062597513198853
4.531747817993164,-0.9518454074859619,9.336736679077148,0.17266911268234253,-0.14141653478145602,-0.1944086402654648
4.366368293762207,-1.0886665582656863,9.386306762695312,0.1570801287889481,-0.14751854538917542,-0.23612920939922336
4.4297833442688,-1.3067328929901123,9.47141742706299,0.15067586302757263,-0.16833320260047913,-0.2843759953975678
5.101859092712402,-0.9836565256118774,9.578701972961428,0.13551901280879977,-0.1924102008342743,-0.28139534592628485
5.025410175323487,-0.7496373653411865,9.365461349487305,0.09362393617630005,-0.20353765785694125,-0.2555499970912934
5.097119808197022,-0.39214885234832764,9.564191818237305,0.028776565566658977,-0.23339012265205383,-0.210016742348671
4.95481824874878,-0.9720709919929506,9.49539566040039,0.005740107968449593,-0.24830302596092224,-0.21174563467502597
4.6293654441833505,-1.2884814739227295,9.294167518615724,0.02318634651601315,-0.26653820276260376,-0.25324890017509466
4.858340740203858,-1.382932424545288,9.3099365234375,0.021101810038089752,-0.28992035984992987,-0.294417291879654
5.121386051177979,-0.9563470482826234,9.272370338439943,-0.0010379814775660636,-0.31521207094192505,-0.28203132748603826
4.744912147521973,-0.592585861682892,9.473305702209474,-0.04728492349386215,-0.353448748588562,-0.2722334563732148
4.914388179779054,-0.656697154045105,9.458852767944336,-0.08777494728565216,-0.42478623986244207,-0.25737786293029785
4.712067127227784,-0.8480845093727113,9.576478004455568,-0.09563643485307695,-0.5219364166259766,-0.2660844326019287
4.794071674346925,-0.8401052355766297,9.657064437866211,-0.08838769048452379,-0.6461764574050903,-0.2841740548610688
4.709295272827148,-0.4328653514385224,9.811686515808107,-0.11836289614439012,-0.7850539088249208,-0.28539788722991943
4.699175834655762,0.2923341393470764,10.105123519897461,-0.18393839895725253,-0.9912301301956177,-0.22180677950382235
4.260382652282715,-0.26034423708915716,10.099327087402344,-0.2608582377433777,-1.218755125999451,-0.13963074982166293
3.487904310226441,-0.5390791893005371,10.27508068084717,-0.32244664430618286,-1.5692318677902224,-0.08452799916267395
4.141301631927491,-0.5696864724159242,10.31906032562256,-0.3725471496582031,-1.9435198307037354,-0.06614681333303453
4.344603538513184,-0.18179021775722506,10.173331260681154,-0.4390780627727509,-2.2832789421081543,-0.04777979478240014
4.4196791648864755,-0.15328471362590793,10.153280258178711,-0.511910378932953,-2.6510701179504395,-0.02129434421658516
4.826963424682617,-0.18639574944972995,10.071600914001467,-0.546159029006958,-3.041723966598511,0.006519727408885956
4.793700695037843,-0.20200622081756592,9.844175338745117,-0.5387211441993714,-3.5155618190765385,0.010292142629623413
4.502054691314698,-1.1238625049591064,10.055588722229006,-0.5910770297050477,-4.008626937866211,0.007276408839970828
2.6932082176208496,-3.061610221862793,9.605575561523438,-0.5430456995964051,-4.697999954223633,-0.12107755243778229
2.227006435394287,-4.301717281341554,9.465660095214844,-0.29796838760375977,-5.697675228118897,-0.3647635579109192
2.9958193302154545,-4.15202283859253,9.704609870910646,-0.0423513986170292,-6.846418857574464,-0.6317477226257324
4.194069385528565,-4.081201553344727,9.954380989074709,0.1894545555114746,-8.131861686706545,-0.8481419086456299
4.754781246185304,-2.8452706336975098,10.465644836425781,0.2843219339847565,-9.466804504394531,-1.0804972648620605
6.94769287109375,-3.1790590286254883,10.722660064697266,0.11667953431606293,-10.646681785583498,-1.3857367038726807
13.515978813171388,-3.427162408828736,13.176645278930664,-0.22963427007198337,-11.546620368957521,-1.5481042861938477
23.429874420166016,-4.1176419258117685,14.624148368835451,-0.4145561456680298,-11.736121177673342,-1.6786713600158691
35.608917236328125,-3.2003321647644043,14.995171546936037,-0.46621328592300415,-10.773716926574709,-1.7840079069137575
35.45709991455078,-2.0032250881195073,14.571465492248537,-0.717705249786377,-9.620287895202638,-1.556234359741211
29.744285583496094,-7.850813865661621,14.471700668334961,-1.3260709047317507,-8.661355018615724,-1.3607325553894043
22.127538681030277,-9.664608001708984,15.07165050506592,-1.0433977842330935,-8.111928939819336,-1.716548562049866
18.035160064697266,-6.802865505218507,18.79984855651856,-0.9055503606796265,-7.567446231842042,-2.0417811870574956
18.324581146240234,-6.055780887603761,21.666627883911136,-1.2023926973342898,-6.680042266845703,-1.7404893636703493
11.343818664550781,-5.270420074462891,15.638377189636232,-1.2340992689132693,-5.158005237579347,-1.4053406715393066
31.39404296875,-7.1609206199646005,23.44132804870606,-0.8572839498519897,-3.499597311019898,-1.8446438312530518
24.492731094360355,-11.782615661621094,30.396123886108402,-0.29557812213897705,-0.06258193403482439,-1.6785906553268435
10.977540016174318,-8.167410850524904,21.572034835815433,0.33505964279174805,2.3497598171234135,-1.2926452159881592
9.289149284362795,-7.889195442199707,18.140775680541996,0.8640327453613281,4.020401954650879,-0.943743646144867
5.882061958312988,-4.216565608978272,12.573362350463867,0.9955878257751465,5.030956745147706,-0.7070486545562744
0.818640947341919,-2.464443445205689,8.530694961547852,0.807808518409729,5.488202571868897,-0.5159154534339906
-2.4984152317047124,-1.6090881824493408,5.389848709106445,0.4003867506980896,5.511270999908448,-0.34706175327301025
-3.386966943740845,-0.9772053956985474,3.558325052261353,-0.11064580827951433,5.251491069793702,-0.14763084053993225
-2.540091037750244,-0.5155657529830933,3.6989867687225346,-0.5779551267623901,4.9543519020080575,0.17209407687187195
-0.3486690223217011,-0.590182900428772,5.080783843994141,-0.9256703853607178,4.839337825775147,0.4891351163387299
1.5413736104965212,-1.1384445428848269,6.77602243423462,-1.0687036514282227,4.956438541412354,0.7305673360824585
3.08673644065857,-1.6327247619628906,8.037144660949709,-0.9643812775611879,5.262792110443116,0.9342992305755615
4.165757656097413,-1.4838430881500244,8.617932319641115,-0.7373073101043701,5.680997371673585,1.0685606002807617
4.666141033172608,-0.46549281477928167,8.546776771545412,-0.5541165471076966,6.081927299499512,1.1925678253173828
4.808562755584718,0.6388893127441406,8.122272491455078,-0.5057590007781982,6.388100147247315,1.3110098838806152
5.168856143951417,1.3089786767959597,7.757606983184815,-0.5863655805587769,6.59747314453125,1.4143174886703493
5.409770965576172,1.5102807283401491,7.517472267150879,-0.6945463418960571,6.707083225250245,1.5166387557983398
5.957947731018066,1.3872934579849245,7.730398178100586,-0.7529286742210389,6.723148345947266,1.5832955837249756
6.906817913055421,1.395195722579956,8.412661552429201,-0.7336719632148744,6.725089073181152,1.6178473234176638
7.808399677276612,1.5076065063476562,9.290858268737795,-0.6503422856330873,6.741749286651612,1.6066491603851318
8.936767578125,2.0237410068511967,10.334145545959474,-0.5601491928100586,6.754464626312257,1.5649149417877197
10.220611572265625,2.3504552841186523,11.351283073425295,-0.5447227358818055,6.766485214233398,1.5472228527069092
11.267683029174805,1.8415260314941406,12.20088291168213,-0.5075505971908569,6.7597365379333505,1.5492072105407715
12.19214725494385,1.2062953710556032,12.971895217895508,-0.36473855376243597,6.697601795196534,1.5639431476593018
13.499631881713867,0.5778912305831909,13.979791641235352,-0.13143131136894226,6.575772762298585,1.5635251998901367
15.740413665771484,0.07599344849586487,15.336114883422852,0.10645243525505066,6.44495725631714,1.5443886518478396
18.68972396850586,-0.34203734993934637,16.921129226684574,0.3310617208480835,6.344632625579835,1.5335564613342285
21.587911605834964,-0.44926226139068604,18.57056427001953,0.4788972735404968,6.298165321350098,1.5145791769027712
24.923419952392578,-1.0088672637939453,19.751260757446293,0.5689199566841127,6.2814178466796875,1.4847081899642947
28.389383316040043,-0.9768729209899902,19.5938720703125,0.6454212665557861,6.26679563522339,1.439594864845276
31.97826194763184,-0.4487754702568054,17.691949844360355,0.5114686489105225,6.282255649566651,1.3252699375152588
33.97618865966797,-0.9090100526809692,13.36056423187256,0.18335826694965365,6.326373577117921,1.0873165130615234
33.454124450683594,0.9418154954910278,7.691601753234863,-0.33728614449501043,6.204368591308594,0.7269563078880311
33.90824890136719,8.115420341491701,-0.634074330329895,-1.5401295423507693,5.846233367919922,0.5081628561019897
34.460960388183594,11.536231040954592,-10.667091369628906,-3.3942029476165776,5.350240707397461,0.529634177684784
39.77944564819337,5.118065357208253,-23.763198852539062,-4.335000991821289,4.7849931716918945,0.8422552943229676
38.12225341796875,-2.0952451229095463,-32.79487609863281,-3.074409008026123,3.2693369388580327,1.1699626445770264
24.580738067626953,-1.651466250419617,-31.38228797912598,-0.8383206129074097,0.5219662785530091,0.9942875504493714
16.17722892761231,1.8793665170669558,-21.84191703796387,0.8561952710151673,-2.163062572479248,0.020936774089932445
16.881874084472656,4.203321933746339,-5.946262359619141,1.4289014339447021,-3.720290184020996,-1.030994534492493
16.11223602294922,3.2612900733947754,8.535078048706055,1.6726366281509402,-5.175014495849609,-1.6375778913497927
-4.107021331787109,-1.3303768634796143,12.91615104675293,1.715139389038086,-4.565302371978761,-2.2912390232086186
5.5696377754211435,2.4889731407165527,20.596656799316406,0.2258971929550171,-4.46338701248169,-2.112055778503418
11.372725486755373,-8.877389907836914,10.331553459167482,-0.2902062833309174,-4.881350040435792,-1.7156784534454346
22.760257720947266,-5.907060146331788,13.449419021606445,0.13349325954914096,-5.072872161865234,-0.7524893879890443
29.952005386352543,-0.5969797372817993,20.453670501708984,-0.04642777144908905,-4.112980365753175,0.0026995169464498763
25.638189315795902,3.0752601623535156,18.228246688842777,-0.016561081632971767,-3.120884418487549,-0.35768494009971624
15.16358757019043,2.1920571327209473,14.788907051086428,-0.03533409163355828,-2.444419145584107,-0.4660012125968933
11.065884590148928,-0.18420180678367615,12.701561927795412,-0.033727813512086875,-1.9746439456939697,-0.5405331254005433
9.465819358825685,-1.695470452308655,11.395822525024414,0.012081191875040533,-1.6000382900238037,-0.48241740465164185
10.054127693176271,-2.5121517181396484,11.01467514038086,0.14512021839618686,-1.2157738208770752,-0.47201684117317205
8.14089870452881,-2.104990005493164,10.256798744201662,0.2615038752555847,-0.7830188274383545,-0.40555509924888616
7.393360614776612,-2.078436613082886,9.924652099609375,0.3079978823661804,-0.5523099303245546,-0.2922057509422302
5.445214748382569,-1.5025296211242676,9.95155429840088,0.2526472210884094,-0.3444091975688935,-0.22681199014186862
4.457432746887207,-2.3277769088745117,9.579526901245117,0.23184414207935336,-0.325156569480896,-0.21001292765140536
5.443462371826172,-2.262241125106812,9.51315689086914,0.17172983288764954,-0.2878669500350952,-0.11612350493669511
4.763882637023926,-1.4209191799163818,9.701426506042482,0.14806999266147616,-0.266507625579834,-0.17087621986866
5.099474906921387,-1.3589246273040771,9.82437038421631,0.13981549441814425,-0.2679445147514343,-0.19512450695037842
4.942065238952637,-1.3664038181304932,9.72383213043213,0.15161243081092834,-0.2838404476642609,-0.18423089385032654
5.1853699684143075,-1.191327214241028,9.5861291885376,0.17959704995155334,-0.26554393768310547,-0.1776121407747269
5.636147022247315,-0.8132523894309999,9.908728599548342,0.16543549299240112,-0.22098328173160556,-0.1286017894744873
5.748656272888184,-0.39023739099502563,10.034245491027834,0.0739881694316864,-0.1931726783514023,-0.0596974901854992
5.654668807983398,-0.2519921958446503,9.717338562011719,-0.05260499566793442,-0.1704802066087723,0.028465639799833298
5.126379013061523,-0.6632586717605591,9.39585590362549,-0.13084477186203003,-0.15624624490737915,0.07010146230459215
4.82908821105957,-1.1976600885391238,9.34485721588135,-0.16586613655090332,-0.15175251662731173,0.07530719041824341
4.640797138214112,-1.8400874137878418,9.123026847839357,-0.16904209554195407,-0.1628136932849884,0.06943532824516296
4.9521145820617685,-1.827436923980713,9.014644622802734,-0.150841161608696,-0.161587655544281,0.07191764563322069
4.932054996490479,-1.7750259637832644,8.976629257202148,-0.1299574077129364,-0.14663806557655334,0.04488590732216836
4.8170742988586435,-2.0415196418762207,8.908942222595217,-0.09840293228626251,-0.13924528658390048,0.021386712789535522
4.613639354705811,-2.2684178352355957,8.67831325531006,-0.042042121291160583,-0.1500285714864731,-0.01879663579165936
4.692988395690918,-2.369954347610474,8.676016807556154,0.025034731253981594,-0.15869474411010742,-0.06330167502164842
4.651973724365234,-2.302781105041504,8.708319664001467,0.07092659920454027,-0.1533714979887009,-0.10125990211963654
4.867577075958253,-2.0649206638336186,8.906952857971193,0.11147739738225938,-0.13768276572227478,-0.14687909185886386
4.82012701034546,-1.9308170080184939,8.64028835296631,0.17080007493495944,-0.10952393710613251,-0.20557120442390442
4.295658111572266,-2.6828866004943848,8.509453773498537,0.29839271306991577,-0.06773557513952257,-0.36174875497817993
4.121828079223633,-3.460335016250611,8.445815086364748,0.42170536518096924,0.004031818360090256,-0.5675944685935975
4.489537239074707,-2.5936677455902104,8.573331832885742,0.5057632327079774,0.022018197923898697,-0.6649755835533143
4.946070194244386,-1.2915024757385254,8.997007369995117,0.5295737981796265,0.06322879344224931,-0.6760594248771669
4.5832228660583505,-1.3983197212219238,9.169677734375,0.5311238765716553,0.07405246049165727,-0.6880158185958862
4.167537212371827,-1.3241099119186404,9.543811798095703,0.524821698665619,0.05349095538258553,-0.7276319265365601
4.744542121887207,-0.8272491097450257,9.517524719238281,0.506793737411499,0.0015803753631189468,-0.7445474863052368
5.235746860504151,0.656522274017334,9.931960105895998,0.42161107063293457,-0.10640762001276018,-0.6624795794487001
5.484086513519288,1.463348388671875,10.27653694152832,0.26206776499748236,-0.22818544507026672,-0.5494319796562196
5.228885650634766,0.5485242009162904,10.056608200073242,0.0972118228673935,-0.3550074100494385,-0.45139858126640325
4.933722972869874,0.11745139956474304,10.04896640777588,-0.052179660648107536,-0.4841786026954651,-0.4051021039485932
4.771569728851319,0.05858570337295532,10.077884674072266,-0.17797000706195834,-0.6395872831344604,-0.37630730867385864
5.0397963523864755,0.14122612774372104,9.886851310729982,-0.2575724720954895,-0.8279231190681459,-0.31386882066726685
5.034545421600343,0.3693245053291321,9.849308013916016,-0.3777608871459961,-1.0130188465118408,-0.24206171929836276
3.9803667068481445,-0.2784731984138489,9.94096088409424,-0.40861824154853826,-1.2660608291625977,-0.13584701716899875
3.801971435546875,-0.25957417488098145,10.33430576324463,-0.3904629051685334,-1.6036911010742188,-0.04659402370452881
3.915133476257324,-0.35855937004089355,10.46066665649414,-0.43445032835006714,-1.9596570730209353,-0.01566902920603752
4.076346397399902,-0.4595041871070862,10.401951789855959,-0.5157356262207031,-2.349149227142334,-0.020363317802548412
4.32185983657837,-0.5552352666854858,10.32899284362793,-0.556298315525055,-2.7701382637023926,0.002000611508265138
4.695068359375,-0.5344489812850952,10.072046279907227,-0.5660489797592163,-3.195886373519898,0.01974195428192616
4.713938236236573,-1.3871557712554932,10.191296577453615,-0.5311934947967529,-3.6679637432098393,-0.03239946812391281
4.741268157958984,-1.2910856008529665,10.099757194519045,-0.47201099991798406,-4.272145748138429,-0.1522332727909088
3.1841769218444824,-2.205594539642334,10.210918426513672,-0.4720575213432312,-4.914830684661866,-0.24847769737243652
1.9736002683639529,-2.9287776947021484,9.44141483306885,-0.32309746742248535,-5.810286045074464,-0.48086574673652654
2.851002931594849,-3.2426414489746094,9.697486877441406,-0.03685858473181725,-7.011960029602051,-0.76526015996933
4.109837532043457,-2.6262323856353764,9.888148307800295,0.11121953278779985,-8.322960853576662,-0.8718760013580322
3.711526870727539,-1.8907345533370974,10.114464759826662,0.16296741366386414,-9.869700431823732,-1.0463802814483643
7.201812744140625,-3.24811863899231,11.254323005676271,0.019601380452513698,-11.251167297363281,-1.2921204566955566
14.735377311706545,-4.657833099365234,13.533697128295898,-0.19661369919776917,-12.11614513397217,-1.5322566032409668
26.38172149658203,-5.681009769439698,15.306415557861328,0.000683153048157692,-12.191774368286133,-1.8682385683059695
39.21388244628906,-2.9396743774414062,14.768142700195312,0.1615835428237915,-10.930769920349123,-2.095811367034912
36.4225196838379,-1.8477997779846191,13.447006225585938,-0.39153155684471136,-9.429553985595703,-1.6681394577026367
27.802894592285156,-8.49972915649414,13.754810333251953,-0.8095001578330995,-8.74545669555664,-1.589055418968201
21.228109359741214,-7.929999351501465,16.37718009948731,-0.5929024815559388,-8.063950538635256,-1.9760723114013672
19.661266326904297,-7.77169132232666,20.92102813720703,-0.5441385507583618,-7.335505962371827,-2.2391695976257324
16.49871635437012,-7.228104591369629,18.454853057861328,-0.2912379503250122,-6.031192302703858,-2.214642763137818
6.79400634765625,-1.8713136911392214,15.389488220214844,-0.3739126026630402,-4.946632385253906,-1.9959849119186404
39.88735580444337,-8.760210037231445,27.092725753784183,-0.3283282518386841,-2.962388515472412,-2.3011543750762944
18.55187797546387,-10.733427047729492,26.918893814086918,-0.01563435979187489,0.3503565192222595,-1.813056826591492
10.500904083251953,-10.306411743164062,19.578346252441406,0.8695385456085205,2.4412539005279545,-1.5569590330123904
9.270298957824709,-9.119272232055664,16.17345428466797,1.5601371526718142,4.027658462524414,-1.2969826459884646
6.794731616973878,-6.207189559936523,11.778479576110842,1.8926428556442263,5.046471118927003,-1.189180850982666
3.440076589584351,-4.711752891540527,8.53596591949463,1.9155259132385254,5.607329845428468,-1.064781665802002
-0.15996246039867404,-3.7902839183807377,5.33659315109253,1.7093406915664675,5.78509521484375,-0.9634377956390381
-2.2324838638305664,-3.391854047775269,3.319715976715088,1.2870517969131472,5.648221969604492,-0.8024118542671205
-2.8086938858032227,-2.927807331085205,2.8227703571319585,0.8852667808532715,5.338584899902344,-0.5659677386283876
-1.410675644874573,-2.614691019058228,3.669202089309693,0.44812616705894476,5.103194236755371,-0.2840013802051545
0.91999351978302,-3.235938549041748,5.222210407257081,0.07497891783714294,5.109082698822022,0.06706098467111589
2.856209516525269,-4.1584320068359375,6.482725620269776,-0.10390879213809967,5.316202640533448,0.3840157985687256
4.824359893798828,-4.610161304473878,7.394891738891602,-0.0733017772436142,5.684277534484863,0.683563530445099
6.320330142974854,-4.8072171211242685,7.672979354858398,0.06864655017852783,6.128575801849366,0.9688762426376343
6.763701438903809,-4.516364574432374,7.278974533081055,0.2417247444391251,6.504383087158203,1.2076201438903809
6.806017875671387,-3.9680082798004155,6.713859558105469,0.3702175319194794,6.742093086242676,1.4043871164321902
7.5073561668396005,-3.5462570190429688,6.769471168518066,0.3830156028270722,6.8775601387023935,1.5808532238006592
8.802704811096193,-3.3130340576171875,7.021778583526612,0.35340338945388794,7.0007033348083505,1.7799584865570068
9.462557792663576,-3.194070100784302,7.036154747009277,0.33854520320892334,7.104006290435792,1.9836624860763552
10.171775817871094,-2.48672366142273,7.110306739807129,0.3076786994934082,7.128108501434327,2.1670002937316895
11.271347045898438,-1.591454863548279,7.4849653244018555,0.18395428359508517,7.064124584197999,2.3319015502929688
12.491975784301758,-1.7724151611328125,8.299371719360352,0.015023963525891304,6.948759555816651,2.437587261199951
13.702445983886719,-2.7782654762268066,9.556185722351076,-0.011645563878118994,6.817313194274902,2.45583438873291
15.027847290039062,-3.886587142944336,11.09109878540039,0.18745215237140658,6.705988883972168,2.3769104480743413
16.323007583618168,-4.3441267013549805,12.46075439453125,0.4947101175785065,6.613590717315675,2.247175693511963
17.737659454345703,-4.128089427947999,13.597366333007812,0.741361439228058,6.514730453491211,2.1229460239410405
19.497032165527344,-3.8622078895568848,14.425446510314943,0.8262358903884888,6.389487743377686,2.054163217544556
21.14000701904297,-4.05562686920166,14.97510623931885,0.7794056534767152,6.234352111816406,2.00839114189148
23.934070587158203,-4.408942699432374,15.487747192382812,0.6452928781509399,6.053082466125488,1.9614809751510622
27.221229553222656,-3.905896902084351,15.154203414916992,0.43914395570755005,5.935546398162843,1.921358585357666
28.926889419555668,-2.8148167133331303,13.349817276000977,0.053257375955581665,5.873121738433839,1.8534172773361208
28.785568237304688,-1.931272029876709,10.490370750427248,-0.49645495414733887,5.765207767486573,1.7124390602111816
27.671916961669922,-0.2477644979953766,6.906925201416016,-1.1760385036468506,5.5273942947387695,1.4942737817764284
25.6371021270752,5.045904159545898,2.625485897064209,-2.155064105987549,5.09961748123169,1.2383451461791992
27.184276580810547,11.716438293457031,-2.581903219223023,-3.9136359691619877,4.753705024719238,1.3065824508666992
32.137828826904304,8.462229728698732,-10.96763801574707,-5.398193836212159,4.517454147338867,1.7289682626724245
36.55835342407227,-1.8018769025802615,-21.238750457763672,-4.783380508422852,4.005505561828613,1.8068474531173708
30.820882797241214,-2.9295003414154057,-26.088598251342777,-2.5500729084014897,2.5554027557373047,1.0778685808181765
17.54556655883789,0.6038261651992798,-23.21578407287598,-0.5533528327941895,0.12583909928798678,-0.08236872404813768
12.58440685272217,4.068275451660156,-14.489430427551271,0.44910761713981634,-1.9741981029510498,-1.4602085351943972
18.27700996398926,4.6506619453430185,-3.2373409271240234,0.36418426036834717,-3.0294294357299805,-2.4792783260345463
9.762198448181154,-10.104983329772951,7.002139091491699,1.4406960010528564,-3.524359464645386,-2.686697006225586
10.245535850524904,-2.8814108371734624,8.936451911926271,3.302745580673218,-3.9083609580993652,-3.370150089263916
2.3675012588500977,10.270023345947266,10.941494941711428,2.01132607460022,-4.263768196105957,-2.5902974605560307
0.23959490656852722,-1.4742488861083984,13.143054008483888,-0.15254233777523044,-4.524784564971925,-1.0145647525787354
16.20052528381348,-8.47886848449707,12.280641555786133,-0.19838793575763705,-5.198254585266113,-0.7520087361335756
28.633756637573246,-0.4881748557090759,19.649860382080078,0.20429934561252597,-4.688970565795898,-0.3316280245780945
30.279312133789062,0.989862322807312,19.00833320617676,0.1196899637579918,-3.4208765029907227,-0.3613631427288056
20.15487861633301,-0.25458240509033203,15.32583999633789,0.33786237239837646,-2.6745920181274414,-0.9743452668190004
13.164731979370117,-4.645455360412598,13.930172920227053,0.4420235753059387,-2.116040468215943,-0.9166110754013062
7.005715370178223,-3.4408380985260014,10.50655269622803,0.7130834460258485,-1.8328208923339844,-0.7330731153488159
9.163872718811037,2.0326941013336186,12.15501594543457,0.7915220260620117,-1.5813657045364382,-0.6907328367233276
9.17361354827881,3.1912178993225098,11.041888236999513,0.7093160152435303,-0.89833664894104,-0.7987034916877748
5.983961582183839,-3.5451879501342773,7.923809528350831,0.7496317625045776,-0.6251885294914247,-0.6518405675888062
8.372155189514162,-2.9169824123382573,10.397683143615724,0.7375049591064453,-0.4279350936412812,-0.4299053251743317
5.4072890281677255,0.4902024269104004,11.076781272888185,0.6431388258934022,-0.27285629510879517,-0.5260030627250672
5.07642698287964,-1.390892744064331,10.564178466796875,0.5067749619483949,-0.15698452293872836,-0.563934326171875
5.343386650085449,-1.0202560424804688,10.12679958343506,0.36281749606132513,-0.12263278663158417,-0.5544967055320741
5.8524580001831055,-0.06726112961769104,10.067705154418945,0.2785125970840454,-0.08482091873884202,-0.4086871445178986
6.091435432434082,0.25520107150077825,9.8954553604126,0.1897377073764801,-0.09307431429624559,-0.2675456404685974
5.213762283325195,-0.574410080909729,9.901438713073732,0.08625635504722595,-0.14543452858924866,-0.21058766543865207
5.33400583267212,0.08738826215267181,9.88783359527588,0.022716240957379345,-0.21466144919395447,-0.14689488708972934
5.163863182067871,-0.2707672119140625,9.683754920959474,-0.028906786814332012,-0.2537417411804199,-0.09178692102432251
5.182994842529297,-0.5636848807334901,9.544174194335938,-0.061338838189840324,-0.2755722403526306,0.0040797614492475995
4.575981616973878,-0.9703054428100586,9.44486713409424,-0.06835752725601196,-0.28492069244384766,-0.011889115907251837
5.055257797241211,-1.4564354419708252,9.290897369384766,-0.05809079110622406,-0.31464222073555,-0.04142192006111145
4.847162246704102,-1.285964608192444,9.265862464904787,-0.04826468229293823,-0.35106042027473455,-0.06264515966176988
5.147829532623292,-1.4268598556518555,9.175171852111818,-0.04845287650823593,-0.3896625936031342,-0.06968030333518982
5.409894466400147,-1.5212208032608034,9.053397178649904,-0.021531986072659496,-0.3926993906497956,-0.06981521844863892
5.291299343109132,-1.0706473588943484,8.887073516845703,0.005993076600134373,-0.3792288005352021,-0.06989467144012451
5.718991279602051,-0.9798578619956971,8.751162528991701,0.04353128001093865,-0.3472368121147156,-0.06568340957164764
5.7958693504333505,-0.8204280138015747,8.76774787902832,0.04108176380395889,-0.2919710576534272,-0.045982182025909424
5.522402763366699,-1.0001078844070437,8.816604614257812,0.03437000513076782,-0.24792027473449707,-0.027084534987807277
5.484105110168457,-1.1495541334152224,8.884536743164062,0.036562688648700714,-0.21972693502902987,-0.028524912893772125
5.388611316680909,-1.1462191343307497,8.870543479919435,0.04976494610309601,-0.20283098518848422,-0.041035030037164695
5.371792793273926,-1.108262538909912,8.787642478942873,0.05400511249899865,-0.17252618074417114,-0.050329979509115226
5.046105861663819,-1.225530505180359,8.884526252746584,0.06916365027427673,-0.15638425946235657,-0.06555826216936113
5.087334156036378,-1.2612512111663818,9.013324737548828,0.09130654484033586,-0.1656765341758728,-0.08711629360914232
5.104825496673585,-1.0951088666915896,9.003514289855959,0.11312594264745714,-0.18445223569869995,-0.10476160049438477
5.093326568603516,-0.8246970176696777,9.088194847106935,0.1077711656689644,-0.21277397871017456,-0.09676129370927812
5.205438613891602,-0.9589005112648011,9.115029335021974,0.10022984445095062,-0.2397114336490631,-0.09296635538339616
5.249671459197999,-0.5750939249992372,9.108344078063967,0.09208732843399048,-0.27605107426643377,-0.08509394526481628
5.407534122467042,-0.6619206666946411,9.148146629333498,0.06580226123332977,-0.30647352337837225,-0.0829925909638405
5.320746898651124,-0.9516679048538208,9.220850944519045,0.055395271629095084,-0.3477995991706848,-0.10344994813203813
5.716300487518311,-0.7763698101043701,9.006668090820312,0.04471888020634652,-0.3858043849468232,-0.11946810781955719
5.035451412200929,-0.7876114845275879,8.677156448364258,0.01744695939123631,-0.3871051073074341,-0.1262939125299454
4.527724742889405,-1.3691279888153076,9.046375274658203,0.013639611192047598,-0.43148553371429443,-0.17733556032180786
4.904931545257569,-1.7083237171173096,9.103887557983398,0.037484996020793915,-0.5203713774681092,-0.22412672638893127
4.970843791961671,-1.3312743902206423,9.276203155517578,0.02219904586672783,-0.650997519493103,-0.2518468797206879
4.952913284301758,-1.0159680843353271,9.3626184463501,0.005346063990145923,-0.7825580835342407,-0.28549221158027654
5.227904319763184,-1.0337045192718506,9.279665946960451,-0.007307746447622776,-0.919629991054535,-0.31765672564506536
5.453138828277589,-0.8869752883911133,9.241826057434084,-0.028535865247249603,-1.0357745885849001,-0.3415600061416626
5.361422061920167,-0.5946714878082275,9.446039199829102,-0.08495186269283295,-1.1761116981506348,-0.359683245420456
5.0888991355896005,0.03582426905632019,10.034576416015625,-0.18286545574665072,-1.3964331150054932,-0.33476480841636663
4.761981487274171,1.1977694034576416,10.661521911621094,-0.40627565979957586,-1.718198537826538,-0.23826059699058533
4.730406761169434,0.5938839912414551,11.075040817260742,-0.681514084339142,-2.1096558570861816,-0.14413733780384066
4.731252670288086,0.9895261526107788,11.088067054748537,-0.8524826765060425,-2.5838427543640137,-0.050836939364671714
3.874165773391724,1.61063814163208,10.583415031433107,-1.0733853578567507,-3.1218252182006836,0.044745292514562614
2.7046701908111577,-2.7614388465881348,11.365854263305664,-0.9687255024909974,-3.8472747802734375,-0.0532989501953125
1.985640525817871,-4.495896816253663,12.066911697387695,-0.7430012822151185,-4.7724456787109375,-0.2545986473560334
3.3180706501007085,-5.920709133148194,11.265244483947756,-0.37973365187644964,-6.009612560272218,-0.6104635000228882
5.353554725646973,-3.7091217041015625,12.145063400268555,-0.28349956870079046,-7.41359806060791,-0.874070703983307
7.79368782043457,-1.488063454627991,13.041738510131836,-0.5383196473121644,-8.551185607910156,-1.0373010635375977
11.525322914123537,-0.08012387156486511,14.584747314453125,-1.1957118511199951,-9.349400520324709,-1.1478822231292725
17.390796661376953,-0.691705584526062,14.980303764343263,-2.379690170288086,-9.30704116821289,-0.9987731575965882
24.236148834228516,-3.8703994750976562,13.10874652862549,-3.2147223949432377,-8.376638412475586,-0.8232252001762391
21.319070816040043,-4.013227939605714,11.580677032470703,-3.357809543609619,-7.5394864082336435,-1.0306981801986697
13.813189506530763,-5.555142879486085,9.689089775085451,-3.4063532352447514,-6.895398139953613,-1.5457123517990115
12.642672538757326,-5.969963073730469,7.668662548065186,-3.4279310703277592,-6.369651317596436,-1.961148977279663
9.008712768554688,-5.2336163520813,5.676085472106934,-3.189335346221924,-5.773073673248292,-2.421541690826416
9.241888999938967,-2.7505829334259038,3.9307539463043217,-2.97854495048523,-5.136472702026367,-2.7320713996887207
9.454237937927248,-2.617904424667359,5.93261480331421,-2.9919238090515137,-4.778041362762452,-3.005889415740967
10.978830337524414,0.6937752962112427,11.252686500549318,-3.5243239402770996,-3.8402061462402344,-2.9266574382781987
14.790821075439453,14.318629264831545,19.033258438110355,-5.560305118560792,-1.7768189907073975,-2.8730537891387944
26.10661888122559,4.084610462188722,21.28839111328125,-7.149584293365479,1.021392822265625,-2.977822780609131
5.686054706573487,0.9895528554916382,11.617307662963867,-8.134716987609865,3.058547019958496,-2.4572875499725346
1.9663059711456299,-4.1025896072387695,6.1162519454956055,-8.08818244934082,3.8438539505004883,-1.9180847406387331
-2.834625244140625,-7.640854358673097,2.5601451396942143,-7.1123366355896005,3.7220206260681152,-1.1042550802230837
-6.849819183349609,-7.073456764221191,1.4136781692504883,-5.610949516296387,3.014240980148316,-0.3502022325992585
-6.953125476837159,-2.7226295471191406,2.9814553260803223,-4.338233947753906,2.174710035324097,0.38106465339660645
-4.518146514892578,2.0443100929260254,5.220579624176026,-3.832546472549439,1.5798872709274294,1.1216516494750977
-2.0156311988830566,4.813932895660401,7.547204494476319,-3.88079833984375,1.3301428556442263,1.711521863937378
-0.011213697493076324,6.470222473144531,10.15151596069336,-4.117229938507081,1.338280200958252,2.0937161445617676
1.9781646728515625,7.612671852111816,12.687352180480959,-4.287943363189698,1.5672597885131836,2.2305371761322026
3.9210112094879155,9.153502464294435,15.248328208923342,-4.334395408630371,1.991340160369873,2.1618912220001225
5.822658061981202,11.133216857910156,17.012325286865234,-4.387567520141602,2.6068603992462163,1.9921698570251465
7.000812530517578,12.810953140258789,17.308944702148438,-4.523166179656983,3.3298888206481934,1.7721831798553467
6.810636997222901,13.98567295074463,16.544178009033203,-4.718378543853761,4.009835243225098,1.5421978235244753
6.318173408508301,14.382155418395998,15.334490776062013,-4.8983426094055185,4.532227039337159,1.3454582691192627
5.505523681640625,13.80993175506592,13.985504150390625,-4.914403438568116,4.85624885559082,1.142698407173157
5.097597122192383,13.581344604492188,13.292613983154297,-4.742315292358398,4.972473621368409,0.9464978575706483
5.128423213958741,13.147754669189453,13.096031188964844,-4.398405075073242,4.961840152740479,0.7058062553405762
5.5229644775390625,13.024381637573242,13.167787551879883,-3.9420492649078374,4.897400379180909,0.3908417820930481
6.080731391906738,13.342082977294922,13.436526298522951,-3.5249936580657963,4.839111328125,-0.011561245657503607
6.827779769897461,13.802532196044922,13.663899421691896,-3.2590258121490483,4.833571434020996,-0.5146998167037964
7.513602256774902,13.925615310668945,13.790292739868164,-3.1896955966949467,4.8697614669799805,-1.0592056512832644
8.090526580810547,12.771094322204592,13.698483467102053,-3.2042155265808105,4.904219627380371,-1.5831700563430788
8.548826217651367,11.108809471130373,13.54684829711914,-3.175795555114746,4.903007984161378,-2.0526070594787598
9.13113307952881,9.606266975402834,13.173668861389162,-3.072324275970459,4.868140697479249,-2.4490225315094
9.38801383972168,8.539726257324219,12.699378013610842,-2.9401121139526367,4.815016269683839,-2.7275028228759766
9.5997314453125,6.714112281799316,13.18806552886963,-2.772228717803955,4.655527114868164,-2.783427000045777
10.324260711669922,4.3695478439331055,13.80375862121582,-2.3554134368896484,4.419042110443116,-2.6987671852111816
11.209572792053224,3.154493808746338,14.436962127685547,-1.7297660112380984,4.208166122436523,-2.534221649169922
12.442477226257326,3.0001642704010014,14.896937370300295,-1.1571543216705322,4.071075916290284,-2.285539150238037
13.837730407714844,3.027425765991211,14.929298400878906,-0.8062143325805664,4.037905693054199,-1.897348761558533
15.076003074645998,1.908138155937195,13.985651016235352,-0.6183564066886903,4.143438339233398,-1.4259027242660525
15.686787605285646,-1.1981441974639893,11.911770820617678,-0.39954635500907904,4.294853210449219,-0.9640085697174072
15.476533889770508,-2.178468465805054,9.301558494567873,-0.1072578877210617,4.314943790435792,-0.5001294612884521
14.176911354064943,-1.021427869796753,6.242353916168214,-0.08553559333086015,4.175336360931397,0.08661381900310516
13.252953529357912,0.5251344442367554,3.951575040817261,-0.35574424266815186,3.8817932605743413,0.7518266439437866
13.276391983032227,1.5254760980606081,2.380556583404541,-0.6664408445358276,3.4963867664337163,1.348126530647278
13.180750846862795,2.273327350616455,0.9210348129272461,-0.724974811077118,3.041954517364502,1.6762923002243044
13.26053237915039,3.298201560974121,-0.4262349009513855,-0.538979172706604,2.515664577484131,1.7551974058151247
14.167180061340334,4.554032325744629,-1.7570608854293825,-0.26323136687278753,1.950498342514038,1.6824179887771609
15.95353889465332,5.44289255142212,-3.183248519897461,0.05202944576740265,1.38939106464386,1.5413516759872439
17.53879165649414,5.592546939849854,-4.452006816864015,0.3704798519611359,0.8620238304138184,1.3446081876754763
19.428298950195312,5.754589080810547,-4.728827953338624,0.62684166431427,0.3650752305984497,1.053016543388367
19.97602081298828,6.722381114959718,-4.844028472900391,0.7735738158226014,-0.02599930390715599,0.668959677219391
19.18126487731934,15.79636859893799,-9.993016242980959,-0.3563391864299775,-1.6423115730285645,0.19300031661987305
-12.502908706665039,-3.6718759536743164,-2.709311008453369,-0.34735107421875,-2.421550512313843,-0.012210212647914886
11.026073455810547,-0.17655038833618164,19.977575302124027,0.014316583983600141,-3.4757735729217534,-1.6437664031982422
8.600991249084474,-9.594334602355959,21.909862518310547,-0.0979781672358513,-2.6801443099975586,-1.7264422178268435
5.201833248138429,-17.506814956665043,10.150092124938967,0.29675295948982244,-2.568753719329834,-1.2118868827819824
7.351422786712647,-8.573209762573242,8.571507453918459,0.432930588722229,-2.784239530563355,-0.2900041937828064
14.712272644042969,-0.7039448022842407,16.39378166198731,0.2300412654876709,-2.40999698638916,0.13456715643405917
13.328872680664062,5.79133415222168,15.594564437866211,-0.09198983013629913,-1.7343176603317263,-0.05782295763492584
7.10323190689087,4.631776809692383,10.561312675476076,-0.5199097990989686,-1.48350191116333,-0.09115847945213318
7.979181766510011,-0.3847740888595581,10.338464736938477,-0.7498096227645874,-1.4302622079849245,-0.06437073647975922
11.07249641418457,-5.509490489959718,12.055214881896974,-0.715941309928894,-1.130300760269165,0.10549504309892656
7.617212772369386,-6.255431175231934,10.306035041809084,-0.4101837575435639,-0.8402329683303833,0.12295018881559373
6.404682159423828,-3.4332435131073002,10.13567638397217,-0.05920637771487237,-0.7892806529998779,-0.05529848486185074
8.384737014770508,-0.28293299674987793,10.816498756408693,0.02836921066045761,-0.6063490509986879,-0.18313851952552795
5.79566526412964,-0.3326893448829651,10.07620143890381,-0.04122788831591607,-0.40366640686988836,-0.13429877161979675
3.4141554832458496,-2.777042627334595,9.448513984680178,-0.013605025596916677,-0.4306677579879761,-0.15928687155246737
6.332436084747315,-1.6922374963760378,10.353627204895021,-0.03856240212917328,-0.41921415925025945,-0.14378331601619723
5.922091960906983,-0.647435486316681,10.326051712036133,-0.09544771164655687,-0.2652018070220947,-0.062397357076406486
4.659044742584229,-1.763439655303955,9.669188499450685,-0.10935095697641374,-0.22214366495609286,-0.07535956799983978
5.071908950805664,-2.1493432521820073,9.772711753845217,-0.08682714402675629,-0.23093225061893466,-0.05124007165431976
5.519574165344238,-0.8009634017944336,10.063860893249513,-0.11592798680067064,-0.19362366199493408,0.00047089625149965286
5.210392951965332,-0.9470610618591309,9.800364494323732,-0.17295376956462863,-0.12481783330440521,0.035850483924150474
4.813385486602784,-1.8384578227996826,9.48480224609375,-0.1840382367372513,-0.11444043368101121,0.052794285118579865
4.555642604827882,-1.6672313213348389,9.408321380615234,-0.1913546919822693,-0.10849773138761522,0.07021975517272949
3.9167010784149174,-2.259451389312744,9.090125083923342,-0.1707824617624283,-0.14116540551185608,0.033430568873882294
3.877819538116455,-2.853471279144287,8.93603038787842,-0.10032960772514343,-0.1942505389451981,-0.02193189412355423
3.9958946704864506,-2.897940874099732,8.997509002685547,-0.035320788621902466,-0.2338847517967224,-0.08214146643877031
4.165529251098633,-2.7989313602447514,9.164286613464357,0.0126783000305295,-0.2677202820777893,-0.1309243589639664
4.717246532440186,-2.4685385227203374,9.097268104553224,0.04171909019351006,-0.27054333686828613,-0.15159323811531067
4.685318946838379,-2.0023183822631836,9.041413307189943,0.059219151735305786,-0.25615224242210394,-0.16077271103858948
4.69157600402832,-1.9657909870147705,9.084278106689453,0.07408607751131059,-0.24135832488536837,-0.17793601751327515
4.996284008026124,-1.5594729185104372,9.316219329833984,0.06841535866260529,-0.22479827702045443,-0.1843005120754242
5.062892913818359,-1.2192368507385254,9.448541641235352,0.02865908853709698,-0.188289076089859,-0.17246422171592712
4.6217241287231445,-1.8349170684814453,8.91342544555664,0.01105060148984194,-0.18832692503929138,-0.1703930348157883
4.672362804412843,-1.9815304279327393,9.014780998229982,0.02073148638010025,-0.21009528636932373,-0.1859768480062485
4.721130847930909,-1.63181471824646,8.994219779968263,0.013497210107743742,-0.2094021737575531,-0.18816886842250827
4.155163764953613,-2.235674619674683,8.821808815002443,0.025708135217428207,-0.24450285732746127,-0.21680985391139987
4.763582229614258,-1.9433079957962038,9.1351318359375,0.04803914949297906,-0.29157179594039917,-0.22350151836872104
4.766557216644288,-1.489817261695862,9.11083507537842,0.041739851236343384,-0.3166504502296448,-0.2213772386312485
4.808809280395508,-1.6315094232559206,9.110592842102053,0.015404318459331991,-0.34174883365631104,-0.2275117784738541
4.831657409667969,-1.69789719581604,8.982449531555178,0.006535410415381194,-0.3664952516555786,-0.2357870638370514
5.00562858581543,-1.4837305545806885,8.979625701904297,-0.004594553727656604,-0.3864893317222595,-0.23524205386638644
5.022955894470215,-1.5211433172225954,8.922034263610842,-0.02938205376267433,-0.3901430368423462,-0.2287605553865433
4.623383045196534,-1.6404507160186768,9.002813339233398,-0.047082666307687766,-0.4325558543205261,-0.22352202236652377
4.54958200454712,-1.694047451019287,9.125956535339357,-0.06386084854602814,-0.4888539612293244,-0.26159301400184637
4.547541141510011,-2.0292732715606694,8.966129302978516,-0.05583162605762482,-0.5689314007759095,-0.30138885974884033
4.594237804412843,-2.3336195945739746,8.877448081970217,-0.04660702496767044,-0.664199948310852,-0.33793589472770696
4.514825344085694,-2.0387511253356934,8.819398880004883,-0.0635608583688736,-0.7829573750495912,-0.3540340065956116
4.947812080383301,-1.5808328390121462,8.802142143249513,-0.10787792503833771,-0.8815104365348817,-0.3396208584308625
4.856162071228027,-1.1575165987014773,9.518732070922852,-0.13497717678546908,-0.9953008890151978,-0.30999180674552923
4.734752655029297,-1.4710146188735964,10.120826721191406,-0.20321376621723178,-1.14594042301178,-0.28876084089279175
5.062164783477784,-1.6808233261108398,9.691795349121094,-0.2488146424293518,-1.3439816236495974,-0.2751479744911194
5.204658508300781,-1.1395885944366455,9.804484367370607,-0.24351978302001953,-1.53658664226532,-0.23431290686130526
5.488030910491944,-0.5760100483894349,10.01864528656006,-0.3189599812030793,-1.7458808422088623,-0.17636562883853915
5.547953128814698,-0.4609130620956421,9.925130844116211,-0.37412628531456,-2.0012109279632573,-0.06727835536003113
5.206604957580566,-0.3667075037956238,10.16231918334961,-0.4746700823307038,-2.327446937561035,0.04303870722651482
5.6640472412109375,-1.1492812633514404,10.000822067260742,-0.5416447520256044,-2.7163290977478027,0.1304687261581421
3.963214874267578,-0.9009248614311219,10.249992370605469,-0.5483157634735107,-3.2425391674041752,0.149034321308136
3.2649872303009038,-1.323375940322876,10.359535217285156,-0.6284983754158021,-3.9162361621856694,0.03685169667005539
2.760320901870728,-2.9632792472839355,9.95594120025635,-0.6406519412994385,-4.762589931488038,-0.15376806259155273
2.655268669128418,-3.955472469329834,9.83252811431885,-0.588173508644104,-5.818715572357179,-0.4049206674098969
3.195403337478638,-4.0293989181518555,9.716615676879883,-0.5000126957893373,-6.948687553405762,-0.6221397519111634
4.267860412597656,-1.5941234827041628,9.79895877838135,-0.563819408416748,-8.128934860229492,-0.6909764409065248
5.513840675354004,-2.7706487178802495,10.325388908386232,-0.6712743043899536,-9.265608787536623,-0.7869634628295898
8.105996131896974,-4.099697113037109,11.94344711303711,-0.7337703108787538,-10.364019393920898,-0.8667688369750977
15.144220352172852,-3.7318146228790288,14.313059806823732,-0.9142063856124878,-11.080761909484865,-1.0085620880126953
19.976905822753906,-5.913640499114991,13.06828022003174,-0.8237590789794922,-11.164379119873047,-1.3802789449691775
31.114061355590824,-5.484241485595703,13.12264633178711,-0.8325323462486268,-10.61233139038086,-1.5249754190444949
35.47477340698243,-5.986427307128906,14.881629943847656,-1.422293305397034,-9.801702499389648,-1.3278872966766357
25.28775215148926,-5.588812828063965,13.222283363342287,-1.8916088342666628,-8.936004638671875,-1.168941140174866
23.17645072937012,-11.643036842346193,13.157621383666992,-1.7087104320526123,-8.757024765014648,-1.6705971956253054
20.40032196044922,-8.831440925598146,15.418039321899414,-1.3612377643585205,-8.290553092956545,-1.9932465553283691
23.73369598388672,-8.869710922241211,23.062641143798828,-1.4437105655670166,-6.988024234771729,-1.7450822591781618
14.285871505737305,-9.234543800354006,18.113729476928714,-1.4510879516601562,-5.183204174041749,-1.4541115760803223
21.124097824096683,-5.434343814849854,19.409664154052734,-0.8975160121917725,-4.376326560974121,-2.04132628440857
33.687896728515625,-12.992775917053224,31.61602592468262,0.4888394176959992,-1.0732505321502686,-2.6431324481964116
13.358671188354492,-6.177628993988038,24.458145141601562,0.7118518948554994,1.8914625644683838,-1.985889196395874
10.618062019348146,-6.836604595184327,19.37761497497559,1.1138731241226199,3.789909839630127,-1.7838617563247683
6.663353443145753,-4.356761932373047,14.161305427551271,1.1659436225891113,5.058527946472168,-1.6277998685836794
2.674880743026734,-2.897258043289185,9.566176414489748,0.9861153364181519,5.573722362518311,-1.524596929550171
-1.8402932882308962,-2.6623072624206543,6.13425350189209,0.7316567301750184,5.622405052185059,-1.383556604385376
-3.6149659156799316,-2.9181611537933354,3.7963421344757085,0.5059027075767518,5.334985733032227,-1.26870334148407
-3.308948516845703,-2.999103546142578,3.1851730346679688,0.2902787625789643,4.933194637298585,-1.173065423965454
-0.9337283968925477,-2.613717555999756,4.655864715576172,0.04869630560278893,4.610576629638672,-1.020212531089783
2.769845485687256,-2.718815326690674,6.988217353820801,-0.23031754791736606,4.712285041809082,-0.7443815469741821
5.01401424407959,-3.537332534790039,8.673377037048342,-0.3523752689361572,5.222914218902589,-0.42578601837158203
5.383791446685792,-4.415399551391602,8.967469215393068,-0.27290648221969604,5.834952354431152,-0.12649868428707126
5.181879043579102,-4.655989646911621,8.17815685272217,-0.06223364546895028,6.316634178161621,0.12062989920377733
5.286284923553468,-3.7484378814697266,7.4189724922180185,0.09764009714126587,6.5975050926208505,0.3695357739925385
6.488483905792237,-2.2528834342956543,7.287160873413086,0.06494930386543274,6.78873109817505,0.6695111989974976
7.69797420501709,-1.4874441623687744,7.522222042083741,-0.15036064386367798,7.01168155670166,0.9981982111930848
8.27307987213135,-1.5560337305068972,7.683702945709229,-0.3646674454212189,7.238409042358398,1.2843543291091921
8.254476547241211,-2.0972082614898686,7.596471786499023,-0.44785141944885254,7.371307849884034,1.4842046499252322
8.395247459411623,-2.705608367919922,7.902041435241699,-0.39138054847717285,7.34816598892212,1.6029605865478516
9.634804725646974,-3.1307704448699956,8.795425415039062,-0.23672311007976535,7.2357754707336435,1.7180006504058838
11.288781166076662,-2.4021310806274414,9.625172615051271,-0.0466444455087185,7.136430740356445,1.8809243440628054
12.455101013183594,-0.5102676749229432,10.638918876647951,-0.053577177226543427,7.061322689056397,2.064921617507935
13.682249069213867,-0.056887298822402954,11.836609840393068,-0.24895495176315308,6.997206211090089,2.2040209770202637
15.195409774780273,-0.585558295249939,13.287607192993164,-0.3561235964298249,6.93626356124878,2.234189510345459
16.86796379089356,-1.0393881797790527,14.823439598083498,-0.29880571365356445,6.91448736190796,2.159745216369629
18.572696685791016,-1.1315914392471316,15.925134658813477,-0.17060379683971408,6.933009147644043,2.010910987854004
20.717559814453125,-0.9996050596237183,16.722694396972656,-0.0974966287612915,6.926892757415772,1.8788414001464844
23.086053848266605,-0.92460036277771,17.35073471069336,-0.12007541954517365,6.86247444152832,1.8101974725723269
25.255207061767578,-0.47325786948204046,17.04507827758789,-0.21431206166744235,6.75762939453125,1.7710410356521609
27.508695602416996,0.5113407373428345,15.990644454956055,-0.48136660456657415,6.578594207763672,1.716810941696167
30.194255828857422,0.5865050554275513,13.844453811645508,-0.917802095413208,6.366813182830811,1.6260418891906738
30.974842071533203,-1.012887716293335,10.247676849365234,-1.2596312761306765,6.117971897125245,1.4078495502471924
31.86988067626953,1.0317065715789795,4.924636363983155,-1.5056971311569216,5.733922958374023,1.0429118871688845
35.059410095214844,6.73182249069214,-3.227522373199463,-2.2716066837310795,5.4271392822265625,0.8934193849563599
40.76182556152344,7.838482856750488,-15.532539367675781,-3.3773477077484135,5.163317680358887,0.9157493710517884
43.071929931640625,0.7607658505439759,-28.86614036560059,-3.3917007446289062,4.426161766052246,0.9004237055778505
31.843441009521484,-0.599738359451294,-34.01788711547852,-2.1603891849517827,2.2124948501586914,0.47605702280998236
16.99648666381836,-1.4978556632995605,-26.753711700439453,-0.649688720703125,-0.8433153033256532,-0.42004248499870306
18.92995643615723,0.5275164842605591,-12.83082389831543,0.5089253783226014,-2.988304615020752,-1.512378811836243
9.12654781341553,-4.107393264770508,5.301085948944093,1.4424830675125124,-3.928670167922974,-1.8025097846984863
17.156473159790043,-5.096880435943604,10.448722839355469,3.446849584579468,-4.844592094421387,-1.8637405633926394
1.5240875482559206,6.713866710662843,14.23080062866211,2.201018810272217,-4.34617567062378,-1.4689108133316042
0.592575490474701,1.6241083145141602,17.628337860107422,0.6164406538009644,-4.581199169158936,-1.0873818397521973
15.231726646423342,0.9803828001022339,11.394670486450195,0.278416782617569,-5.412128925323487,-1.3379778861999512
29.392259597778324,3.62802529335022,18.8647632598877,0.06604740023612976,-5.011126995086671,-0.5276205539703369
28.18823051452637,2.3344004154205327,19.835330963134766,-0.2329317480325699,-3.8406500816345215,-0.07279650866985321
18.211193084716797,1.1049718856811523,16.105401992797855,-0.06113128364086151,-3.07874083518982,-0.5732901096343994
12.843022346496584,-3.5818867683410645,13.088013648986818,-0.0014722002670168877,-2.5961952209472656,-0.6947442889213563
8.248026847839357,-3.8818738460540776,10.264963150024414,0.14141148328781128,-2.2545330524444585,-0.6486860513687134
9.332059860229492,-1.718201518058777,10.211201667785646,0.4606422185897827,-1.97813618183136,-0.8104137778282167
11.881760597229006,-1.880943775177002,12.02379894256592,0.695931077003479,-1.4199703931808474,-1.0968337059020996
9.36578369140625,-1.8832093477249148,11.014159202575685,0.828773319721222,-0.8325837254524232,-1.0188369750976562
7.898899078369141,-1.8726419210433962,10.622717857360842,0.8698867559432983,-0.6003976464271547,-0.7350565195083618
6.836761951446534,0.4576935470104218,10.789478302001953,0.7142654657363892,-0.3635235726833344,-0.5726467967033387
6.16191053390503,-0.5724483728408813,10.176699638366701,0.5360917448997499,-0.24134612083435059,-0.4637224972248078
5.387027740478516,-1.8272552490234375,10.022589683532717,0.5062820911407471,-0.10465380549430847,-0.4423388540744782
4.7604827880859375,-1.159050464630127,10.163896560668945,0.507974922657013,-0.03933010995388031,-0.497248262166977
5.119256019592285,-1.7614998817443848,9.712400436401367,0.5015702843666078,-0.02663867548108101,-0.5310348272323608
4.668064117431641,-1.48177707195282,9.439261436462404,0.48007854819297796,-0.0430789589881897,-0.47544500231742864
4.406148910522461,-0.5359920859336854,9.931203842163086,0.4294237494468689,-0.12084601819515228,-0.40472534298896795
5.297990798950195,0.059039920568466187,10.076205253601076,0.3422146141529084,-0.1420716941356659,-0.3092316091060639
5.300885677337647,-0.07887198030948639,9.88899898529053,0.2460466176271439,-0.13482216000556946,-0.22008666396141052
5.222069263458253,0.4098629355430603,9.8906946182251,0.11695321649312974,-0.1330263614654541,-0.12480486184358598
5.190166473388672,0.35510408878326416,9.85909652709961,-0.01512509398162365,-0.13890942931175232,-0.02977794595062733
5.095948219299316,-0.3905966281890869,9.533805847167969,-0.07776833325624467,-0.13719424605369568,0.02408355660736561
4.639390468597413,-0.8688713312149048,9.11788082122803,-0.06331658363342285,-0.1303687542676926,0.010348738171160223
4.493385314941406,-1.4233766794204714,9.098502159118654,-0.02266531623899937,-0.1524980068206787,-0.036281336098909385
5.0011701583862305,-1.2831380367279053,9.133962631225586,0.014234515838325025,-0.15946055948734286,-0.06447361409664154
4.795750617980957,-1.459761619567871,8.999441146850586,0.02827361598610878,-0.13891299068927768,-0.07602418959140778
4.605206012725831,-1.7401829957962038,9.071508407592773,0.045363027602434165,-0.14338207244873047,-0.10219362378120422
4.7108001708984375,-1.5875062942504883,9.04942512512207,0.08338142931461334,-0.1474048048257828,-0.136159747838974
4.606993198394776,-1.0138459205627441,9.133356094360352,0.09525078535079956,-0.15400460362434387,-0.16158641874790194
4.926361083984375,-0.15020060539245605,9.37385368347168,0.07089804112911224,-0.17730303108692172,-0.16043582558631897
5.0997052192688,-0.022897914052009583,9.268017768859865,0.034157685935497284,-0.1766200512647629,-0.13447283208370212
4.955605506896973,0.12970957159996033,9.412494659423828,-0.02369631454348564,-0.2083975821733475,-0.09389603137969971
4.850004673004151,-0.023997604846954346,9.480225563049318,-0.09410425275564195,-0.23310004174709323,-0.06283408403396606
4.608690738677979,-0.390996515750885,9.48103141784668,-0.15171387791633606,-0.2729164063930512,-0.05489964783191681
4.300285816192628,-0.8802139759063721,9.351219177246094,-0.1810424029827118,-0.3243969380855561,-0.08636317402124406
4.748758316040039,-0.9617542624473573,9.450532913208008,-0.20505942404270175,-0.37793147563934326,-0.11104933172464372
4.739350318908691,-1.4169676303863525,9.04811763763428,-0.1820047050714493,-0.40886023640632635,-0.15838798880577087
4.710204601287843,-1.173626184463501,9.216604232788086,-0.13861897587776184,-0.45802715420722967,-0.22834885120391846
5.161396026611328,-1.0405224561691286,9.243067741394045,-0.10010261088609697,-0.4990857243537903,-0.23989805579185486
4.562417507171632,-1.338231921195984,9.30936908721924,-0.04108098521828652,-0.5888153314590454,-0.27597770094871527
4.928783416748047,-0.4637870788574219,9.627908706665039,-0.037647988647222526,-0.7274562716484071,-0.2743808627128601
4.834003925323487,0.022065550088882446,9.993163108825685,-0.08687692135572435,-0.896823525428772,-0.20803539454936984
4.399390697479249,0.20824562013149264,10.086309432983398,-0.1748856753110886,-1.115006446838379,-0.12284252047538757
3.7309358119964604,0.05665242671966553,10.538637161254883,-0.3034550845623017,-1.4305293560028076,-0.0495659001171589
3.85659122467041,0.1959456652402878,10.705162048339844,-0.43658813834190374,-1.8343130350112917,0.017191145569086075
3.8828072547912598,0.20739689469337463,10.625604629516602,-0.551745355129242,-2.265627861022949,0.05369186773896218
3.981821775436402,0.129556804895401,10.528704643249513,-0.6332318782806396,-2.730700254440308,0.07820247858762742
4.498276233673097,-0.13325250148773193,10.165727615356445,-0.6348848938941957,-3.223189353942871,0.09986688941717149
4.902780532836914,-0.3292573988437653,10.385611534118654,-0.5892304778099061,-3.700781583786011,0.07065930962562561
4.371137619018555,-1.225569486618042,10.79583263397217,-0.5806174278259277,-4.262272357940675,0.03954380750656128
2.481523036956787,-2.749818563461304,10.693188667297365,-0.574752688407898,-4.99702024459839,-0.07463768869638444
1.2062145471572878,-4.546230316162109,9.930439949035646,-0.39214956760406494,-6.096082210540772,-0.39921778440475464
1.8840893507003786,-5.068114280700684,10.101702690124513,-0.07183981686830522,-7.499987125396729,-0.7868963479995728
3.3115310668945312,-4.780535221099854,10.394298553466797,0.1797085404396057,-9.032444953918459,-1.0946991443634033
3.584811210632324,-3.367101430892945,10.960569381713867,0.23619244992733004,-10.650419235229492,-1.4322869777679443
8.764199256896974,-3.9286861419677734,11.735377311706545,0.06908614933490753,-12.080220222473146,-1.7872040271759033
19.40948295593262,-5.0960097312927255,14.73257827758789,-0.22811730206012729,-12.855092048645021,-1.975837230682373
30.521114349365234,-3.599128246307373,17.252674102783203,-0.232305184006691,-12.561468124389648,-2.2729918956756596
38.586997985839844,-1.2493903636932373,13.43643569946289,0.03518953174352646,-11.298584938049318,-2.4499981403350835
41.299476623535156,-5.041645526885987,14.871387481689453,-0.9513763189315796,-10.02942752838135,-1.6888258457183838
28.000745773315433,-10.817400932312013,16.271526336669922,-1.0661680698394775,-8.904045104980469,-1.885578751564026
19.322904586791996,-8.569149017333984,19.62066459655762,-1.0289927721023562,-8.383907318115234,-2.382001638412476
19.448856353759766,-6.823746204376222,25.135696411132812,-1.1343586444854736,-7.704217433929444,-2.3008377552032475
13.667959213256836,-7.83709478378296,17.029037475585938,-0.717652976512909,-6.510769844055176,-2.0520045757293706
25.497703552246094,-4.902267932891847,19.629362106323246,-0.4639908373355866,-5.007255077362061,-2.231639862060547
34.51868057250977,-13.29641342163086,34.88682937622071,-0.10571525990962982,-1.4379855394363406,-2.140009880065918
13.361988067626953,-8.960997581481935,24.437969207763672,0.4085274934768677,1.6867920160293581,-1.5514796972274782
10.296790122985842,-9.546493530273438,20.61417961120606,0.8789151906967163,3.659157514572144,-1.0504124164581299
6.737895488739015,-5.98103141784668,14.591088294982912,1.194361925125122,4.891838073730469,-0.7825979590415956
3.046703815460205,-3.734039783477783,10.864155769348146,1.1398738622665407,5.463083267211914,-0.5263935923576356
0.19215530157089233,-2.027207851409912,7.866533279418945,0.832629144191742,5.696440696716309,-0.24832689762115479
-1.4460527896881104,-1.697207570075989,5.611669063568116,0.34907233715057373,5.713295459747315,0.0692887157201767
-1.3417587280273438,-1.4715781211853027,4.922928333282472,-0.1504915952682495,5.587952613830566,0.33608230948448187
0.6425482630729676,-0.8255501985549927,5.7194275856018075,-0.6216003298759462,5.579750061035156,0.6525109410285951
2.7649261951446538,-1.2615711688995361,6.641807079315186,-1.0323240756988525,5.814996242523194,0.9530455470085145
3.2608320713043217,-2.9342875480651855,6.850706100463867,-1.1305755376815798,6.134243965148926,1.169645667076111
3.281243324279785,-4.082796573638917,6.644374370574952,-0.8194297552108765,6.365409851074219,1.298272490501404
3.7028183937072754,-3.8317635059356694,6.541115760803223,-0.35499402880668646,6.495208740234375,1.3390985727310183
4.9139418601989755,-2.379661321640015,6.835022449493409,-0.04682005196809769,6.577598094940186,1.382993817329407
6.367576122283936,-0.5774306058883667,7.359901905059815,-0.001222018152475357,6.7123684883117685,1.465951919555664
7.454399585723878,0.6893415451049805,7.821646690368652,-0.21611687541007996,6.908424377441406,1.5673352479934695
7.913012504577637,0.752069354057312,8.021142005920412,-0.516812801361084,7.103239536285401,1.6550993919372559
7.873998641967773,0.2018583118915558,8.065997123718263,-0.718181848526001,7.212332248687745,1.7069438695907595
8.301609992980959,-0.5835381150245668,8.32223415374756,-0.759347677230835,7.204456806182862,1.737382173538208
9.511083602905273,-0.7133875489234925,8.964343070983888,-0.67234605550766,7.12852430343628,1.7944860458374023
10.953064918518068,-0.40902644395828247,9.989148139953615,-0.6212137937545776,7.03768014907837,1.8895316123962402
12.22971820831299,-0.36333814263343817,11.229233741760256,-0.6077425479888916,6.941598415374757,2.007785558700562
13.7393798828125,-0.7324179410934448,12.635318756103516,-0.5761775970458984,6.859685420989991,2.1167283058166504
15.769340515136719,-1.3608160018920898,14.136613845825195,-0.479400634765625,6.8056745529174805,2.2176816463470463
17.927772521972656,-1.720774292945862,15.863443374633789,-0.3024386763572693,6.778306484222413,2.303985595703125
20.923324584960938,-2.126754522323609,17.721172332763672,-0.14461578428745273,6.83272647857666,2.3480734825134277
24.282543182373047,-2.9774777889251713,19.383033752441406,0.03296464681625366,6.995047092437745,2.3649139404296875
27.289945602416996,-3.4694461822509766,20.166728973388672,0.2378037124872208,7.210770130157472,2.3600058555603027
29.69775390625,-2.690398693084717,19.2282886505127,0.3580335080623627,7.355254173278809,2.3149907588958745
31.58788299560547,-1.3811919689178467,16.49374580383301,0.1921983510255814,7.34041690826416,2.195315361022949
31.29583549499512,-1.6873885393142702,12.148277282714844,-0.16980127990245822,7.118006706237793,1.8943766355514529
32.07601547241212,0.20788137614727023,5.288463592529297,-0.53011292219162,6.720278263092042,1.427964687347412
33.693065643310554,6.838898181915284,-3.9876425266265874,-1.3812218904495241,6.056273460388184,0.9965488314628602
39.0049171447754,12.868218421936037,-16.20986366271973,-3.1323287487030034,5.282665252685547,0.8141728639602661
46.70549774169922,5.723791122436523,-30.636095046997074,-4.203214645385742,4.407302379608155,1.078235149383545
38.681102752685554,-1.4258174896240234,-37.20400619506837,-3.0609803199768066,2.2417187690734863,1.0488866567611697
22.435855865478516,-2.654841899871826,-30.35882568359375,-1.020738124847412,-0.8545380234718324,0.18155357241630554
19.77683830261231,0.5120823979377748,-15.792408943176271,0.6374869942665101,-3.1879286766052246,-1.1561267375946045
17.222948074340824,-2.5081198215484624,3.923006057739258,1.2480133771896365,-4.038606643676758,-1.8374766111373904
15.325161933898928,-10.506549835205078,12.215212821960451,4.077990055084229,-5.3089051246643075,-1.9754211902618408
-6.817883491516113,5.419149398803711,12.394616127014162,3.020051240921021,-4.64896297454834,-1.8886829614639284
1.977311372756958,5.283725261688233,16.105234146118168,0.622307538986206,-5.326013088226319,-0.9647750258445741
17.228717803955078,0.7351572513580322,10.673800468444826,0.26849803328514105,-6.298956871032715,-1.034274220466614
36.63688278198243,8.409420967102053,22.036388397216797,0.25509148836135864,-5.777091979980469,-0.5501695275306703
33.33888244628906,3.9110074043273926,20.78681182861328,0.2860743999481201,-4.451236248016358,-0.918716549873352
18.97842788696289,-2.7792990207672124,14.823371887207031,0.5000490546226503,-3.627257823944092,-1.3437330722808838
14.215930938720703,-5.479139804840089,12.869486808776857,0.5846441984176636,-3.138633012771607,-1.144770860671997
13.291378021240234,0.022642940282821655,13.735674858093263,0.8600861430168153,-2.5447037220001225,-1.0998225212097168
15.651097297668459,6.248032093048097,15.690863609313967,0.8094819188117982,-1.4848482608795166,-1.1215175390243532
6.540154933929444,-2.734445571899414,8.387814521789553,0.8070946335792543,-0.6934757232666016,-1.108577013015747
9.484495162963867,-4.547981262207031,10.650667190551758,0.7751341462135316,-0.7116882801055908,-0.6060400605201722
7.592278003692628,2.7621762752532963,11.567005157470703,0.6094041466712953,-0.2741000950336457,-0.33757883310317993
6.646718502044679,-0.1989337354898453,10.558177947998047,0.39161795377731323,-0.08029276877641679,-0.36877816915512085
4.379845142364503,-1.410659432411194,9.617131233215334,0.21076714992523193,-0.06573506444692613,-0.2543169558048249
4.102446079254151,-1.1575112342834473,10.08147716522217,0.2153702676296234,-0.11333187669515611,-0.37345045804977417
6.047147750854492,-1.153388261795044,9.946859359741211,0.19643585383892062,-0.14155097305774691,-0.34381377696990967
5.276601791381836,-0.47871989011764526,9.778246879577638,0.14703169465065002,-0.12141574174165727,-0.30486631393432617
5.314691066741944,-0.9049327373504639,9.591345787048342,0.09422457963228227,-0.14901387691497803,-0.25426119565963745
5.485652923583984,-0.2487938851118088,9.72239875793457,0.06366799771785736,-0.15960489213466647,-0.18532785773277283
5.395506858825684,-0.3037673234939575,9.510826110839844,-0.0032414388842880726,-0.16224992275238037,-0.0939672812819481
5.484169483184815,0.16999913752079013,9.720622062683107,-0.10691273957490922,-0.17428278923034668,0.01809126697480679
4.986833095550538,-0.21361880004405978,9.65825939178467,-0.19480238854885104,-0.18067550659179688,0.07956841588020325
5.02408266067505,-0.46870577335357666,9.568857192993164,-0.2656491696834565,-0.212310791015625,0.11543186753988267
4.938257217407227,-1.0999493598937988,9.293040275573732,-0.3190949559211731,-0.2375885546207428,0.13658057153224948
4.78477668762207,-1.7470692396163943,9.05440425872803,-0.29105708003044134,-0.26646602153778076,0.0999097302556038
4.992810249328613,-1.7237327098846436,8.871655464172365,-0.228584885597229,-0.27772930264472967,0.05706786736845971
5.19995927810669,-1.407234072685242,8.854922294616701,-0.192582368850708,-0.26139953732490545,0.03748039901256561
5.18660831451416,-1.3248066902160645,8.792899131774904,-0.14841853082180026,-0.23449946939945224,0.00933901034295559
5.113452911376953,-1.3612008094787598,8.767282485961914,-0.09967438131570817,-0.20676559209823608,-0.030337227508425716
5.172397613525391,-1.3619774580001833,8.818607330322266,-0.05130168795585632,-0.1840380281209946,-0.06579411774873735
5.271680355072022,-1.178323745727539,8.913335800170898,-0.0064364694990217694,-0.16401490569114685,-0.08124076575040819
4.901555061340332,-1.326999068260193,8.702038764953615,0.04143213480710983,-0.14838746190071106,-0.11489554494619371
4.546538352966309,-1.6504725217819216,8.826184272766115,0.06953955441713335,-0.15767574310302734,-0.1588864475488663
4.32550048828125,-1.7119904756546023,9.07614040374756,0.08705566823482513,-0.20025779306888583,-0.23006378114223483
4.264525890350343,-1.6766912937164307,9.155144691467287,0.11013778299093248,-0.26448601484298706,-0.3116510212421418
4.194281578063965,-1.6954994201660156,9.296948432922365,0.1226080060005188,-0.34591853618621826,-0.3897009193897248
5.229851722717285,-0.5002303123474121,9.465868949890138,0.09559842199087144,-0.4280141592025757,-0.4065652787685395
5.450757503509522,-0.3167660534381867,9.205163955688477,0.03975272551178933,-0.4409745931625366,-0.35670334100723267
5.352968692779542,-0.32465592026710516,9.220692634582521,-0.017332112416625026,-0.4739837050437927,-0.3177038133144379
5.476689815521241,-0.0159309059381485,9.363861083984375,-0.08333227783441545,-0.5084130167961122,-0.27317357063293457
5.024676322937012,-0.14422887563705444,9.401233673095703,-0.08948665857315063,-0.5951282382011415,-0.21319299936294556
5.099941253662109,0.10916280746459961,9.565344810485842,-0.111181877553463,-0.7223067283630371,-0.14913707971572876
4.962320804595948,0.09975278377532959,9.657617568969727,-0.1479146331548691,-0.8728913068771362,-0.07164218276739122
4.344839096069336,-0.5179734230041504,9.756845474243164,-0.1527553349733353,-1.0961464643478396,-0.02533145621418953
4.152984619140625,-0.7238326072692871,9.845636367797852,-0.17005716264247897,-1.3646950721740723,-0.008771986700594427
4.179148197174073,-0.6523724198341371,10.12980842590332,-0.22908112406730652,-1.6957951784133913,-0.018733555451035503
4.384002685546875,-0.7233567237854004,10.17666530609131,-0.2882088124752045,-2.049193859100342,-0.024473929777741436
4.064459800720215,-0.7383527159690858,10.369966506958008,-0.3301508724689484,-2.438303709030152,-0.04159262776374817
4.852765560150147,-0.2597561478614807,10.145465850830078,-0.33006241917610174,-2.9171676635742188,-0.0246922392398119
5.10176944732666,-0.0810031145811081,10.087462425231935,-0.38864138722419744,-3.365274429321289,-0.0009072273969650269
5.343161582946777,-0.03982987999916077,10.299870491027834,-0.4459945559501648,-3.8939769268035893,-0.013873308897018433
3.768873691558838,-0.992912769317627,10.465263366699219,-0.4985032975673676,-4.55093812942505,-0.06564952433109283
1.3901753425598145,-3.1973221302032475,10.129383087158203,-0.4309422671794892,-5.533951759338379,-0.2791635692119599
1.707000732421875,-4.497683048248292,9.877692222595217,-0.19337883591651917,-6.829857349395753,-0.6087393164634706
3.110307931900025,-3.650314092636109,10.337251663208008,-0.05969950556755066,-8.298237800598146,-0.8307569026947021
2.950164318084717,-2.2879002094268803,10.654308319091797,0.0003194287710357458,-9.907872200012209,-1.0698754787445068
4.787893772125245,-2.6400980949401855,10.179476737976076,-0.06165983900427819,-11.579366683959961,-1.3511182069778445
14.230698585510256,-4.571195125579835,13.191431045532227,-0.45705190300941473,-12.835184097290039,-1.4444832801818848
23.35088348388672,-4.126387119293214,14.871658325195312,-0.7508656382560731,-13.187641143798828,-1.619524121284485
39.020545959472656,-2.1386475563049316,14.234825134277344,-0.7525303363800049,-12.034767150878906,-1.9582871198654177
42.898773193359375,-2.2760777473449707,14.697355270385742,-0.7976650595664979,-10.454366683959961,-1.8246024847030642
32.55536651611328,-8.6646728515625,12.676916122436523,-1.2145420312881472,-9.344161987304688,-1.450446605682373
25.391744613647464,-8.929116249084474,18.149433135986328,-1.4711668491363525,-8.65117931365967,-1.5649101734161377
19.653173446655277,-7.822515487670898,21.07757568359375,-1.3117725849151611,-7.793764114379883,-1.981828570365906
15.91517734527588,-6.19000005722046,19.17180633544922,-0.9362654685974121,-6.791857242584229,-2.0130410194396973
6.909423351287843,-3.2626416683197026,10.924168586730959,-0.212853416800499,-6.581718444824219,-2.4792227745056152
42.24510192871094,-8.37267589569092,26.767906188964844,0.005958313588052989,-4.828581809997559,-2.9617989063262944
23.44992446899414,-6.430381298065186,29.905641555786136,0.021635474637150768,-1.1009658575057986,-2.3733420372009277
14.903121948242188,-8.254127502441406,23.546110153198246,0.47002449631690985,1.5610063076019287,-1.8878353834152224
11.616851806640625,-6.559340476989746,18.861761093139652,0.7020727396011353,3.687182188034058,-1.2578307390213015
6.951241493225098,-5.326784133911133,13.647703170776367,0.7856107354164125,4.898042678833008,-0.8603557944297792
4.222465991973878,-4.0352540016174325,10.320676803588867,0.7677264809608461,5.6920228004455575,-0.5487076044082642
3.0275337696075444,-3.224271774291992,7.707393169403077,0.6553194522857666,6.081820964813233,-0.26571202278137207
0.15977592766284945,-2.345113754272461,5.4339356422424325,0.4226877689361572,6.141581058502198,0.027175532653927807
-1.3504241704940798,-2.3478903770446777,4.069252014160156,0.12639841437339783,5.99119520187378,0.2727500796318054
-0.16773791611194613,-1.9604603052139284,4.3018083572387695,-0.06566035002470018,5.797502040863038,0.43682795763015747
1.4025541543960574,-1.234776496887207,4.979792594909668,-0.2603313624858857,5.745759963989258,0.6153085827827455
2.585520505905152,-1.0124467611312868,5.575014591217042,-0.5035189986228944,5.834985733032227,0.8163886070251465
3.9609689712524414,-1.154768466949463,6.309874534606934,-0.63609778881073,6.015514850616456,1.0059821605682373
4.800844669342042,-1.2070451974868777,6.87473201751709,-0.6349974274635316,6.242387294769288,1.1494240760803223
6.339276313781738,-0.6973594427108765,7.562548160552979,-0.6060044765472412,6.490813732147218,1.2863283157348633
8.193591117858888,-0.12483024597167969,8.209672927856445,-0.5806574821472168,6.800663471221925,1.4123576879501345
8.958344459533693,0.09849049150943756,8.286789894104006,-0.5511174798011781,7.160843849182129,1.5051668882369997
8.683752059936523,0.40066826343536377,8.05569362640381,-0.5223243236541748,7.421817779541016,1.5753709077835085
8.618473052978516,0.4154476523399353,7.845568656921387,-0.48800981044769287,7.530527591705323,1.6296594142913818
9.223860740661623,0.1897982358932495,8.104543685913086,-0.4404721558094025,7.543448448181152,1.6793084144592285
10.430002212524414,0.010779887437820435,8.937612533569336,-0.34417554736137396,7.524480819702148,1.7393387556076052
11.881768226623537,0.413078248500824,10.17745113372803,-0.2743435204029084,7.485618114471436,1.8052945137023926
13.219218254089357,0.7368268966674805,11.547043800354006,-0.2962248921394348,7.456026554107667,1.864027500152588
14.563173294067383,0.4317732751369477,12.900897026062013,-0.3346970975399018,7.4340009689331055,1.8971984386444092
15.88266372680664,-0.3514427840709687,14.032280921936037,-0.2902446985244751,7.400137424468995,1.8933820724487305
17.719118118286136,-0.6854375600814819,15.187845230102539,-0.1506112515926361,7.319099426269531,1.9080597162246706
20.445734024047855,-0.8236044645309448,16.46578407287598,-0.017995094880461696,7.2379302978515625,1.94411838054657
23.087303161621094,-1.2791013717651367,17.753360748291016,0.12886784970760348,7.201801300048828,1.9458796977996826
25.734342575073246,-1.6724886894226074,18.928306579589844,0.2882883548736572,7.171852588653565,1.8829803466796875
29.920059204101562,-1.0897860527038574,18.965894699096683,0.3931550979614258,7.160099029541016,1.7809256315231325
33.51507186889649,0.2559033334255219,16.697355270385746,0.21687363088130954,7.175685882568359,1.628756880760193
34.10839462280274,1.4079973697662354,12.305996894836428,-0.30339497327804565,7.10937261581421,1.3412419557571413
35.164146423339844,6.104559898376465,5.358155250549316,-1.2343323230743408,6.862849712371827,0.9361395835876465
38.228065490722656,11.502564430236818,-3.9681224822998047,-2.9784188270568848,6.46462345123291,0.6324854493141175
43.874652862548835,10.719110488891602,-17.192541122436527,-4.52696180343628,6.0305328369140625,0.5911383032798768
47.797130584716804,1.6374073028564453,-33.16527557373047,-4.325536251068116,5.318909645080566,0.5881592035293579
38.888446807861335,-0.5245519280433656,-40.84597396850587,-2.3745574951171875,2.796754598617554,0.29534101486206055
17.698143005371094,-0.0009028315544128418,-32.46203994750977,-0.27230823040008545,-0.8786321878433228,-0.6465286612510682
18.06301498413086,3.4492628574371342,-16.010538101196293,0.9495798349380493,-3.4297058582305913,-1.9548158645629883
8.974767684936523,-0.15885505080223083,6.666049003601074,2.066805362701416,-5.345304012298585,-2.6170775890350346
2.7625029087066655,-4.165225982666016,12.221211433410646,2.5113272666931152,-4.819986820220948,-2.661221504211426
9.628843307495117,3.7083766460418706,21.463882446289062,0.8235767483711244,-5.270617008209229,-2.3435258865356445
7.610864639282227,-8.973280906677248,12.493954658508303,-0.31283557415008545,-5.5115113258361825,-1.7933986186981201
24.691591262817386,-4.273812770843507,13.403248786926271,0.09732139110565186,-6.020496845245362,-1.0543023347854616
36.79425430297852,0.4145917296409607,23.30139923095703,-0.11784602701663971,-4.9242262840271005,0.07652421295642853
29.918249130249027,1.4917131662368777,20.24077415466309,-0.014459640718996527,-3.650039911270142,-0.36350804567337036
16.47915267944336,-1.456392765045166,15.684530258178711,0.06959666311740875,-2.8248851299285893,-0.6063576936721802
10.29156494140625,-3.255026340484619,11.66017818450928,0.23585690557956698,-2.345344066619873,-0.6786102056503296
9.975103378295898,-0.5314425230026245,10.640983581542969,0.4178034961223603,-2.0060057640075684,-0.7411803603172303
9.7196741104126,-1.2063121795654297,10.74629306793213,0.6132500171661377,-1.5094010829925537,-0.8588469624519349
6.092640399932862,-2.8907501697540288,9.757254600524904,0.6748863458633423,-1.1698788404464724,-0.8116269111633301
7.356971263885499,-1.7229290008544922,10.70046138763428,0.615767538547516,-1.0014674663543701,-0.6239979267120361
7.1845364570617685,0.7014148235321045,11.686288833618164,0.49403005838394165,-0.6780791878700257,-0.640778660774231
5.2079434394836435,-2.6574242115020756,9.589529991149904,0.4056715071201325,-0.5302446484565736,-0.47839081287384033
7.111048221588136,-0.8806802630424501,9.60713291168213,0.2734471261501313,-0.43908268213272095,-0.4432331025600434
6.340900421142578,-0.43059372901916504,10.223608016967773,0.16955018043518066,-0.2988372743129731,-0.3583159148693085
6.468860149383546,-0.8106983304023744,10.23006820678711,0.08001017570495605,-0.19522194564342502,-0.2814057469367981
5.698064804077148,-0.37369933724403387,10.20062255859375,-0.028372958302497864,-0.20115482807159424,-0.17216922342777255
5.176141262054444,-1.0607215166091921,9.788545608520508,-0.10309579968452454,-0.21070541441440585,-0.13736462593078613
5.347308158874512,-0.9937918186187744,9.467096328735352,-0.1272043734788895,-0.24857839941978455,-0.11139412224292755
5.217524528503418,-0.7987312078475952,9.442901611328125,-0.1476964205503464,-0.2746124863624573,-0.07614747434854509
4.875342845916749,-0.9106438755989076,9.429959297180178,-0.19011650979518893,-0.30898317694664007,0.01197475753724575
5.071562767028809,-1.0790847539901736,9.467903137207031,-0.2315904349088669,-0.3329588770866394,0.031130960211157802
5.157768249511719,-1.5008181333541872,9.216366767883303,-0.25749075412750244,-0.37816265225410467,0.03832222148776055
5.138605117797852,-1.5110187530517578,9.19380855560303,-0.2802976369857788,-0.4096988737583161,0.020774375647306442
5.258718490600586,-1.4472690820693972,8.952571868896484,-0.2816274464130402,-0.43223014473915106,0.03581614047288895
5.333898544311523,-1.4199473857879639,8.898646354675295,-0.2794975936412812,-0.43087583780288696,0.0258737113326788
5.370165824890137,-1.656951665878296,8.97700595855713,-0.26687428355216986,-0.4365970492362976,0.03205998241901398
5.383399963378906,-1.1964356899261475,8.921838760375977,-0.2918204665184021,-0.44297716021537786,0.027248233556747437
5.328237533569336,-1.4837118387222292,8.795334815979006,-0.31920877099037176,-0.4286105334758759,0.03599734604358673
5.350669384002686,-1.7496628761291504,8.679046630859375,-0.3263382911682129,-0.41830131411552435,0.024906475096940994
5.476332187652589,-1.8390241861343386,8.50313949584961,-0.30275157094001776,-0.38931965827941895,0.014357002452015877
5.358267784118652,-2.2899196147918706,8.486670494079592,-0.2615690231323242,-0.3555727303028107,-0.008105983957648277
5.09185791015625,-2.634660959243775,8.442225456237795,-0.20076538622379306,-0.34374806284904486,-0.04673140496015549
5.1045732498168945,-2.630144834518433,8.409967422485352,-0.14812420308589938,-0.3355588912963867,-0.08685807138681413
5.1245694160461435,-2.6142108440399174,8.427021980285646,-0.09447450935840607,-0.35077264904975897,-0.11422833055257799
5.320915222167969,-2.563400030136109,8.40829086303711,-0.042520761489868164,-0.34398981928825384,-0.1579541563987732
5.50531816482544,-2.454495429992676,8.3378381729126,0.026711190119385723,-0.31425747275352484,-0.20985093712806702
5.48965883255005,-2.1796021461486816,8.448875427246094,0.07718595117330553,-0.2895622253417969,-0.24235169589519504
5.398185729980469,-2.043859243392945,8.64656734466553,0.11583267897367479,-0.2674093246459961,-0.2790549397468567
5.436458587646484,-1.936828374862671,8.607505798339844,0.13763178884983066,-0.28333795070648193,-0.2958869636058808
5.5318341255188,-1.290381669998169,8.798477172851562,0.12948794662952426,-0.3052822053432465,-0.28293365240097046
5.603938102722168,-0.7529456615447998,9.086071014404297,0.058863256126642234,-0.3702393174171448,-0.2418634742498398
5.498074531555176,-0.1999396234750748,9.076821327209474,-0.0487298108637333,-0.4639199376106262,-0.1654343605041504
4.913927555084229,-0.8544512987136841,9.319046020507812,-0.11178553104400635,-0.6042509675025941,-0.107966348528862
4.736913204193116,-1.0257954597473145,9.372116088867188,-0.14003726840019226,-0.814818263053894,-0.08328113704919816
4.6233181953430185,-1.3217899799346924,9.548771858215334,-0.15608547627925876,-1.0760066509246826,-0.08782570809125902
4.698586940765382,-0.8920948505401611,9.5684289932251,-0.187082439661026,-1.3634973764419558,-0.1099042519927025
4.823160648345948,-0.8820480704307557,9.856356620788576,-0.23559398949146274,-1.7058360576629639,-0.07636597007513048
4.6076250076293945,-1.2765660285949707,9.875476837158203,-0.2850019931793213,-2.0639572143554688,-0.04924035444855691
4.439133644104004,-1.4097251892089844,9.869087219238281,-0.31270891427993774,-2.4882957935333256,-0.03663593530654907
4.888284683227539,-0.8418046236038208,9.894322395324709,-0.3537775576114655,-2.9450087547302246,-0.0501423105597496
5.096224784851074,-0.9174025654792787,9.919916152954102,-0.36111357808113104,-3.4864697456359863,-0.09409842640161516
4.001008987426758,-2.1971592903137207,10.049937248229982,-0.38946488499641424,-4.152056217193604,-0.15828090906143188
3.035540342330933,-3.1832487583160405,10.055343627929688,-0.3617675602436066,-4.957034111022949,-0.28278270363807684
2.7775599956512456,-3.070200681686402,9.806940078735352,-0.3476022481918335,-6.0285658836364755,-0.4164025485515595
3.590945243835449,-2.2292716503143315,9.66445064544678,-0.3793270289897919,-7.221563339233398,-0.5513694882392884
4.324658393859863,-2.108619213104248,10.651072502136232,-0.46620529890060425,-8.533178329467773,-0.7131070494651796
6.299062252044679,-3.902401208877564,11.644068717956545,-0.4758445322513581,-9.90629768371582,-0.8627641797065736
10.478872299194336,-5.179177761077882,13.070600509643555,-0.4707746803760529,-10.958776473999023,-1.076528549194336
17.725072860717777,-5.349840641021729,14.505168914794922,-0.4373512268066406,-11.275116920471193,-1.373962163925171
27.767755508422855,-4.191701889038086,13.834805488586428,-0.321679949760437,-11.140068054199219,-1.759754776954651
35.69646072387696,-3.860273838043213,14.86489009857178,-0.7806657552719116,-10.426505088806154,-1.6552495956420898
33.311298370361335,-5.571586608886719,14.988451957702638,-1.3544976711273193,-9.429148674011232,-1.495045065879822
27.21640396118164,-13.704459190368654,15.992330551147461,-1.276550531387329,-8.8218469619751,-1.9302654266357422
21.966819763183594,-11.41915035247803,17.285629272460938,-0.6735016703605653,-8.34156131744385,-2.5404930114746094
21.97671127319336,-11.17506504058838,23.83740043640137,-0.17350585758686068,-7.632684707641602,-2.890629053115845
17.89002227783203,-10.340426445007326,18.92040824890137,0.21226929128170016,-5.713435173034668,-2.4956860542297363
13.884599685668945,-1.0719926357269287,20.923202514648438,0.3410009741783142,-4.537443637847901,-2.4203429222106934
39.83793258666993,-10.576398849487305,33.410724639892585,0.7921689748764038,-1.7402617931365967,-3.03771185874939
14.187073707580568,-5.584019660949707,25.954599380493168,0.5214361548423768,1.3515372276306152,-2.389098405838013
9.23115634918213,-7.679493427276612,20.460218429565433,0.718573808670044,3.168258905410767,-2.103969812393189
6.954618453979492,-5.447565078735352,15.66303825378418,0.8565329909324647,4.374336242675781,-1.7971452474594118
3.496248245239258,-4.165103912353516,11.543889999389648,0.7200263738632202,5.014801979064941,-1.4726728200912478
0.2798926830291748,-4.1420793533325195,8.146894454956055,0.5212748050689697,5.344895839691163,-1.1174352169036865
-1.0472084283828738,-4.379922389984132,5.855646133422852,0.3973102271556855,5.405516624450684,-0.8055567741394043
-1.710388422012329,-4.368203163146973,4.574106216430664,0.328710287809372,5.250714302062988,-0.5654973387718202
-1.1189059019088747,-4.1038174629211435,4.818097591400147,0.2929490804672241,5.052478790283203,-0.3833195865154267
1.6984559297561648,-3.4984774589538574,6.282169818878175,0.22245675325393677,5.058795452117921,-0.15461492538452148
3.956582307815552,-3.3479797840118413,7.550653934478761,0.12629739940166476,5.35897159576416,0.10820221900939941
4.851861000061035,-3.32818603515625,8.145308494567873,0.07730662822723389,5.807704448699952,0.3663105368614197
5.524365901947022,-2.947867631912232,8.120825767517092,0.01184232346713543,6.245340347290039,0.6017257571220399
6.066343784332276,-2.619515180587769,7.743230819702148,-0.06750147789716722,6.587991714477539,0.8297380805015565
7.2731289863586435,-2.2354788780212402,7.752043724060059,-0.17728836834430697,6.8631696701049805,1.0331807136535645
9.011628150939943,-2.3303835391998295,7.923825263977051,-0.2815795838832856,7.165066719055176,1.2186645269393923
9.217323303222656,-2.708117961883545,7.735764026641847,-0.2744826674461365,7.456053733825684,1.3492611646652224
