AccX,AccY,AccZ,GyrX,GyrY,GyrZ
0.003000782104209066,-0.00048474950017407537,0.005528174806386233,-6.494445642601932e-06,-2.6531597541179508e-05,-1.2217738003528213e-05
5.038339138031007,-0.7786379456520082,9.25811290740967,-0.009506955742835999,-0.03580724447965622,-0.01425339747220278
5.011992931365968,-0.7710941433906556,9.240979194641115,-0.013909458182752134,-0.02982385829091072,-0.010419749654829504
4.992469787597656,-0.840260684490204,9.25112533569336,-0.013310811482369901,-0.023580271750688553,-0.007198312319815159
4.953268051147461,-0.8674139976501465,9.234138488769531,-0.008671835996210577,-0.021053198724985123,-0.008781081996858122
4.945886611938477,-0.9123785495758057,9.238759994506836,-0.007658467162400485,-0.0219226460903883,-0.010745618492364883
4.962043762207031,-0.8550711274147035,9.257954597473146,-0.006218496710062027,-0.022486334666609768,-0.01239459402859211
4.953200817108155,-0.8420186638832093,9.275808334350586,-0.005795369856059551,-0.023424515500664714,-0.012868584133684637
4.926255702972413,-0.9016221761703491,9.239380836486818,-0.00633544521406293,-0.029309216886758804,-0.014369782991707327
4.975517749786378,-0.8449990749359131,9.237933158874513,-0.005029438063502312,-0.03163263946771622,-0.01726007275283337
4.978342056274414,-0.8809511065483094,9.266587257385256,0.002447596518322826,-0.0331406369805336,-0.02107537351548672
4.988831520080566,-0.8652017116546631,9.270360946655273,0.003960703033953906,-0.033259473741054535,-0.020685363560914993
5.007393836975098,-0.831431806087494,9.24362564086914,0.00418424978852272,-0.03455007448792458,-0.020424887537956238
4.971622943878175,-0.8495669364929199,9.263745307922365,0.0037069134414196014,-0.03278247267007828,-0.02204968221485615
4.981285572052003,-0.8219469785690308,9.287878990173342,0.004072937648743392,-0.03273218125104904,-0.02088655345141888
5.045909881591797,-0.7716015577316284,9.23762607574463,-0.0017611428629606962,-0.029239619150757793,-0.018836418166756633
4.998488426208496,-0.8342198133468628,9.220630645751953,-0.0034317555837333202,-0.022997947409749035,-0.015228468924760818
5.024877548217773,-0.8468018770217896,9.24127197265625,-0.005036673508584499,-0.02086770161986351,-0.015756653621792797
5.014565467834473,-0.8244382739067079,9.24444103240967,-0.003880864940583706,-0.01920687220990658,-0.012212064117193222
5.038700103759766,-0.845442533493042,9.221914291381836,-0.002205241704359651,-0.014547202736139297,-0.011520439758896828
5.017580032348633,-0.8541550636291504,9.229369163513185,-0.0020237136632204056,-0.011269961483776571,-0.008923539891839027
5.000430107116699,-0.8932946324348451,9.246865272521974,-0.001146731898188591,-0.009233281016349792,-0.010870237834751608
5.037137508392335,-0.8291361927986146,9.232893943786623,0.002230675192549825,-0.008559642359614372,-0.009324454702436926
5.009149074554444,-0.8267397880554199,9.237203598022461,0.001840305281803012,-0.0052568293176591405,-0.009822280146181585
5.003334045410156,-0.7971378564834595,9.302762031555178,0.00011423321120673792,-0.005798394791781902,-0.006211422849446536
4.963797092437745,-0.8180652856826782,9.259492874145508,-0.0020446316339075565,-0.0053454674780368805,-0.005045404192060233
4.970497131347656,-0.8530938625335693,9.254282951354982,3.738463055924513e-05,-0.007130788639187813,-0.0072048897854983815
4.997309684753418,-0.8572802543640137,9.24807643890381,0.001702060806564987,-0.007935542613267899,-0.006930823437869549
4.974279403686523,-0.8534343838691713,9.27590847015381,0.004271099343895912,-0.006328906398266555,-0.008295843377709389
4.983297348022461,-0.9096399545669556,9.261229515075685,0.00642691319808364,-0.007842262275516989,-0.010500891134142876
4.989542484283448,-0.8424848914146424,9.26095485687256,0.010114711709320547,-0.006472107954323292,-0.010643067769706251
4.961039066314698,-0.842364251613617,9.24257564544678,0.01004092860966921,-0.004412097856402397,-0.01131501980125904
4.963258743286133,-0.8627056479454042,9.262806892395021,0.007924300618469717,-0.00542060099542141,-0.012819736264646055
4.959902286529542,-0.7865546941757202,9.254838943481445,0.006899455096572638,-0.010345437563955786,-0.011317798867821693
4.959053039550781,-0.8034414052963257,9.26812267303467,0.0037525857333093886,-0.012661181390285492,-0.009090672247111799
4.955945014953613,-0.7915999889373779,9.251049041748047,0.0022454529535025363,-0.013298535719513893,-0.007931513711810112
4.931694984436035,-0.8559459447860718,9.23495864868164,0.0005640180315822363,-0.01341607701033354,-0.007813334465026855
4.921104907989503,-0.8491442799568177,9.285018920898438,0.00353545299731195,-0.018773781135678295,-0.011119551956653595
4.902547836303711,-0.9205498099327089,9.26983642578125,0.00487871514633298,-0.022992894053459167,-0.015614639036357405
4.954034805297852,-0.8607133626937866,9.278903007507326,0.0058177923783659935,-0.027897154912352565,-0.01773571036756039
4.956669807434082,-0.8654108047485352,9.257135391235352,0.005407785065472126,-0.030632378533482555,-0.018283970654010773
4.981369972229004,-0.86055588722229,9.264641761779787,0.006932898424565792,-0.032279498875141144,-0.02044589258730412
4.994834899902344,-0.8090505599975586,9.263336181640625,0.006796410772949458,-0.031377799808979034,-0.021645745262503627
5.012998580932617,-0.7839934825897217,9.276066780090334,0.0041921138763427734,-0.03205814585089684,-0.020628107711672786
4.966010093688965,-0.841425895690918,9.2779016494751,0.003488602116703987,-0.0317942537367344,-0.019342634826898575
5.010768890380859,-0.8071382641792298,9.259801864624023,0.0029371420387178664,-0.03383390977978707,-0.01971616968512535
4.999763011932374,-0.8165550231933594,9.23158073425293,-0.0006456013652496041,-0.03275611251592636,-0.019248517230153087
5.012434482574464,-0.8187953233718872,9.204154968261719,-8.027737203519791e-05,-0.030055722221732143,-0.0191976260393858
4.993644237518311,-0.8112633228302002,9.195981025695803,-0.003975870553404094,-0.03078468143939972,-0.013349796645343305
5.002599239349366,-0.8187338709831239,9.240982055664062,-0.005174801219254733,-0.0296857375651598,-0.013922790065407753
4.96335506439209,-0.8157826066017152,9.257603645324709,-0.005204552784562111,-0.029278712347149852,-0.012035626918077469
4.945722579956055,-0.8692796230316162,9.286365509033203,-0.0034580151550471783,-0.03321374580264092,-0.014397763647139074
5.00022029876709,-0.9544297456741333,9.246006965637209,0.00075425737304613,-0.03851095587015152,-0.02043387852609158
5.04301404953003,-0.8564365506172181,9.252306938171388,0.0034826481714844704,-0.03744005411863327,-0.02240206487476826
5.046341896057129,-0.862408220767975,9.224633216857912,0.003800450591370464,-0.034828439354896545,-0.023373680189251903
5.039981842041016,-0.8213073015213013,9.19717788696289,0.006537760607898235,-0.03022672794759274,-0.020660074427723888
5.0623517036438,-0.7837142348289491,9.198277473449709,0.006807160563766956,-0.024930046871304515,-0.018010254949331284
5.026391506195069,-0.8120012879371644,9.183583259582521,0.009064842946827413,-0.021688068285584453,-0.01836080104112625
5.036527633666992,-0.8275845050811768,9.210006713867188,0.007174680009484291,-0.01814798451960087,-0.01589532569050789
5.035789966583253,-0.8361763954162598,9.200003623962404,0.008124587126076223,-0.016120735555887222,-0.016149457544088364
5.022703170776367,-0.8020635247230531,9.206268310546875,0.006769748404622078,-0.015065849758684637,-0.015499059110879898
5.039725780487061,-0.8074733018875122,9.23991584777832,0.004805442411452533,-0.01333607640117407,-0.014619270339608192
5.032824516296387,-0.7838909029960633,9.261864662170412,0.004868155345320702,-0.01400547940284014,-0.011908113956451416
4.984368801116944,-0.7784321904182435,9.219912528991701,0.0014630350051447751,-0.016145266592502594,-0.010503757745027542
4.99780035018921,-0.8229349851608276,9.274364471435547,-0.005646743346005679,-0.018561016768217087,-0.008486197330057623
5.012846946716309,-0.8558180332183838,9.269936561584474,-0.0045018428936600685,-0.02216305211186409,-0.011085038073360922
5.000231266021729,-0.8108234405517578,9.268196105957031,-0.0034401814918965106,-0.02292787656188011,-0.012292033992707731
5.022790431976319,-0.8348506689071655,9.246543884277344,-0.002249293029308319,-0.02595397643744946,-0.014099407009780409
5.030678749084473,-0.8340323567390443,9.222297668457031,-1.2068951946275776e-05,-0.02700406312942505,-0.015521002002060415
5.028102397918702,-0.8042367100715638,9.215582847595217,0.000894423166755587,-0.024363463744521145,-0.013135433197021484
5.011684417724609,-0.8136827945709229,9.20487689971924,-0.001097180065698922,-0.024254612624645233,-0.01156080048531294
5.025262832641602,-0.8163961172103882,9.241090774536133,-0.000817584979813546,-0.02372155711054802,-0.013046257197856903
5.081528663635254,-0.8342121839523315,9.191839218139648,-1.6768673958722502e-05,-0.022858226671814922,-0.012267379090189934
5.040226459503175,-0.7753504514694214,9.23205089569092,-0.0019530362915247679,-0.020380783826112747,-0.012996745295822622
5.068186283111573,-0.7945401668548584,9.199167251586914,-0.003256081137806177,-0.01597426645457745,-0.010405926033854485
5.04348087310791,-0.7908076643943788,9.205299377441406,-0.0041150213219225415,-0.012605953961610794,-0.007872918620705605
5.022612571716309,-0.8563793301582338,9.237837791442873,-0.002752533415332437,-0.013783514499664307,-0.009875443764030935
5.018088340759277,-0.8444480299949647,9.239879608154297,-0.0028309463523328304,-0.014970585703849792,-0.010368890129029753
5.034414768218995,-0.8204999566078187,9.269434928894045,-0.002944663399830461,-0.015991337597370148,-0.009775490500032903
5.011775970458984,-0.7996003031730653,9.275041580200195,-0.005409458186477424,-0.01586013287305832,-0.009832629933953285
5.045921802520753,-0.8565977811813354,9.26072406768799,-0.0034242700785398483,-0.019012687727808956,-0.00875268317759037
5.036466598510742,-0.8054331541061401,9.22899913787842,-0.0011132477084174754,-0.019706817343831066,-0.011133961379528046
5.027814388275147,-0.8585351705551147,9.218006134033203,-0.0012716003693640232,-0.018371773883700374,-0.010294193401932716
5.07539176940918,-0.7847123146057129,9.225067138671875,0.0012002334697172048,-0.016601860523223877,-0.011647690087556839
4.9731507301330575,-0.943908989429474,9.22923469543457,0.0009301737300120295,-0.014839347451925278,-0.011960976757109167
5.045547008514405,-0.8123696446418763,9.192718505859375,0.006000001449137927,-0.012891604565083982,-0.013332247734069824
5.04803228378296,-0.8399555683135986,9.203020095825195,0.0042034415528178215,-0.011923999525606634,-0.011776955798268318
5.040490627288819,-0.7888439297676088,9.224334716796875,0.004593531135469676,-0.009164409711956978,-0.01200224831700325
5.052834987640382,-0.8235780000686646,9.221346855163576,0.0014637262793257835,-0.006165443919599056,-0.00893922243267298
5.0303664207458505,-0.8157591819763184,9.254601478576662,0.0032081336248666052,-0.005172010976821185,-0.0075646331533789635
5.041081428527832,-0.8226054906845093,9.224099159240724,0.00021076596749480816,-0.005654511973261833,-0.008392912335693838
5.017864704132081,-0.8508065938949585,9.240210533142092,0.0008910112665034832,-0.002614344470202923,-0.004705158062279224
5.003693103790284,-0.8118871450424194,9.224558830261232,0.001996693899855018,-0.004405382089316845,-0.004528824705630542
5.022919654846191,-0.8163008689880371,9.249980926513672,0.002029639668762684,-0.00543032493442297,-0.0049314149655401715
5.030338764190675,-0.8074402809143066,9.22452163696289,2.5041428671102043e-05,-0.00423086155205965,-0.0032705327030271296
4.992286205291749,-0.891727387905121,9.246350288391115,0.0031602059025317435,-0.001994373742491007,-0.005617363378405571
5.047783374786378,-0.8265652060508729,9.243519783020021,0.0052460841834545135,-0.0022828343790024523,-0.0068651605397462845
5.05534553527832,-0.7853386402130127,9.233273506164553,0.0015622953651472928,0.002517871325835586,-0.004040848463773727
5.018572807312012,-0.8087414503097534,9.21968746185303,-0.0018096817657351494,0.00595643324777484,-0.0030944878235459328
4.992386341094972,-0.821568787097931,9.241686820983888,-0.0014143578009679916,0.004090731963515282,-0.0015090254601091146
5.00617265701294,-0.8617895245552064,9.242849349975586,-0.0023966475855559115,0.0031863455660641193,-0.003212234238162637
4.982282161712647,-0.8163542151451112,9.218615531921388,-0.0007159634260460734,0.0012555269058793783,-0.0036291803698986773
4.970867633819581,-0.8151681423187256,9.282341003417969,-0.006109028588980437,-0.001550767570734024,-0.0028831160161644225
4.971852779388429,-0.818755030632019,9.268583297729492,-0.008771117776632309,-0.005452597979456187,-0.003490732749924064
4.9583635330200195,-0.8083901405334473,9.277473449707031,-0.01115943118929863,-0.012246078811585905,-0.00542744155973196
4.948598384857179,-0.8634299039840698,9.271760940551758,-0.012912896461784841,-0.017751680687069896,-0.007722080685198307
5.024676322937012,-0.8468383550643921,9.259943008422852,-0.011604298837482931,-0.02143264189362526,-0.011396703310310842
5.032657623291016,-0.811572015285492,9.252383232116701,-0.012376777827739716,-0.022751772776246074,-0.008807006292045118
5.0154829025268555,-0.8145431876182557,9.257955551147461,-0.01294000819325447,-0.020854333415627483,-0.0073631927371025085
5.006054878234863,-0.8621816635131836,9.223988533020021,-0.014763689599931242,-0.022525196895003322,-0.007072598673403263
5.038236141204835,-0.8507120609283447,9.22344970703125,-0.011386947706341743,-0.022453280165791515,-0.007230043411254883
5.02649736404419,-0.8639215230941772,9.210646629333498,-0.009987076744437218,-0.01781438104808331,-0.0070246909745037564
5.024011611938477,-0.8664044141769409,9.210373878479006,-0.008102720603346825,-0.019709454849362377,-0.008680151775479317
5.044279575347901,-0.8467316627502441,9.21635150909424,-0.004737319890409709,-0.014430466108024122,-0.007614348083734512
5.031319618225098,-0.8540300130844116,9.244911193847656,-0.004918507765978576,-0.013366824015974998,-0.006294748280197383
5.008479595184327,-0.8349276185035707,9.197977066040039,-0.004400916397571564,-0.009377210400998594,-0.007579852361232043
5.010187625885011,-0.8795165419578553,9.219728469848633,-0.00016630643222015354,-0.009897144511342049,-0.00741329649463296
4.975122928619386,-0.846081018447876,9.24258327484131,-0.0008341259672306479,-0.013229136355221273,-0.010516166687011719
4.997824668884277,-0.9231311082839966,9.241718292236328,0.002168728969991207,-0.015364999882876875,-0.01251959428191185
5.00507688522339,-0.8577570915222168,9.2099084854126,0.0017321546329185369,-0.01563803106546402,-0.01598403975367546
5.03903865814209,-0.8161352872848511,9.222721099853516,0.003593446221202612,-0.015244173817336561,-0.016536854207515717
5.071815490722656,-0.7797015309333802,9.227962493896484,0.002165254671126604,-0.01194443553686142,-0.013346577994525434
5.056632041931152,-0.8042689561843872,9.224579811096193,-0.0010434514842927456,-0.007119342219084502,-0.010754819959402084
5.063345909118652,-0.8252304196357728,9.234430313110352,0.0006728711887262763,-0.0028285691514611244,-0.007773351855576038
5.038355827331543,-0.8449331521987915,9.169180870056154,0.0023476844653487206,0.005024062003940345,-0.005629655905067921
5.001741886138917,-0.8626974821090698,9.267492294311523,0.00034314490039832895,0.0016556713962927463,-0.005458439700305462
4.996042728424073,-0.8895142674446107,9.21615219116211,-0.0007732597878202796,-0.0001613766798982397,-0.006255645304918289
4.991641044616699,-0.7702121138572694,9.271910667419435,-0.00034531505662016576,-0.0038275858387351036,-0.007421250455081463
4.993406772613526,-0.9184542894363403,9.284141540527344,0.0005060822586528958,-0.007536941207945347,-0.007262733299285174
4.97867250442505,-0.887689471244812,9.26313591003418,0.0029543773271143436,-0.012711629271507263,-0.011651308275759222
5.018859386444093,-0.843733847141266,9.230954170227053,0.004829535726457835,-0.015184957534074783,-0.014121823944151403
4.991381168365479,-0.811931848526001,9.261144638061523,0.00047608412569388747,-0.016487536951899532,-0.01342920493334532
5.004900932312012,-0.8527966737747192,9.245528221130373,0.001436807680875063,-0.01782793737947941,-0.013850715011358261
5.0305070877075195,-0.7872127294540405,9.244935035705568,0.0016656437655910852,-0.01738637872040272,-0.012803014367818832
5.0466718673706055,-0.8567752838134766,9.192258834838867,-0.0007832812261767686,-0.015175573527812958,-0.010843456722795965
5.063683986663819,-0.8743515610694886,9.191905021667482,0.0014816030161455276,-0.008727025240659714,-0.010413583368062973
5.055665016174316,-0.8527191281318666,9.189341545104982,0.005765581503510475,-0.0012102822074666621,-0.010442951694130898
5.066639423370362,-0.8263369202613832,9.215670585632326,0.006451145745813847,0.005095554515719414,-0.010966661386191847
5.0002760887146005,-0.8088737130165101,9.282514572143555,0.005626283120363952,0.005493258126080036,-0.009171457029879095
4.976985931396484,-0.8716987371444702,9.25679111480713,0.00372032867744565,0.0009507551440037788,-0.008317650295794012
4.962385654449464,-0.8657546043395996,9.277111053466797,0.003685483476147056,-0.004634253680706024,-0.010584914125502111
4.941476821899414,-0.8768164515495301,9.277992248535156,0.0015899072168394925,-0.008145115338265898,-0.01213623397052288
5.021996974945069,-0.8427505493164062,9.277055740356445,0.004069156013429165,-0.011458340100944044,-0.012194933369755745
5.023975849151612,-0.7854456901550293,9.222338676452638,0.0006234575412236155,-0.00902588665485382,-0.010210346430540085
4.989438056945801,-0.8549356460571289,9.186138153076172,-0.001753349555656314,-0.004310803953558207,-0.00935995951294899
5.0619707107543945,-0.8128891587257386,9.160226821899414,0.002820619847625494,0.0005889973836019635,-0.008796355687081816
5.068114757537843,-0.7421832084655762,9.155961990356445,0.0017177106346935034,0.011484905146062376,-0.004113486036658287
5.013876914978027,-0.8794417381286621,9.167176246643068,0.0031906401272863154,0.019390985369682312,0.0007388857193291187
4.966501235961914,-1.0228425264358523,9.206550598144531,0.016829535365104675,0.02425373159348965,-0.006923149339854717
5.013919830322266,-0.8468056917190552,9.192708015441896,0.022333774715662003,0.0326584130525589,-0.009639927186071874
5.055290699005128,-0.7674165964126587,9.242581367492678,0.021051166579127315,0.0378657728433609,-0.005802049767225982
5.06532907485962,-0.7425438761711122,9.278078079223633,0.023305008187890056,0.04393557459115982,0.0014913661871105433
4.979949951171875,-0.7775919437408447,9.284056663513185,0.0148011464625597,0.043553192168474204,0.006308294832706451
4.997757434844972,-0.8175285458564759,9.312726974487305,0.008983402512967588,0.04007706418633462,0.007375846616923809
4.93562126159668,-0.8638495206832886,9.319590568542482,0.008189946413040161,0.031792130321264274,0.006340524181723595
4.912396430969238,-0.7985902428627015,9.295629501342773,0.0021422463469207287,0.023748992010951046,0.005838000681251288
4.915812015533448,-0.8519828915596009,9.302342414855959,-1.404928116244264e-05,0.01935292221605778,0.003083997406065464
4.965868473052979,-0.8408151268959047,9.275767326354982,0.00022664909192826602,0.015695577487349514,-0.001086114440113306
4.96927547454834,-0.831349551677704,9.277018547058107,0.0056338198482990265,0.017313806340098385,-0.001853459281846881
4.914992809295655,-0.9152689576148988,9.277618408203125,0.010191415436565878,0.016478046774864197,-0.00665290467441082
4.919068336486816,-0.8762201666831971,9.288494110107422,0.017021028324961666,0.014670118689537048,-0.01173802185803652
4.965193271636964,-0.7903298139572144,9.272675514221193,0.018618555739521984,0.011633018963038923,-0.012214263901114464
4.9435133934021005,-0.7299299240112305,9.323831558227539,0.015348363667726517,0.010507772676646711,-0.010900862514972687
4.9460463523864755,-0.8521586656570435,9.352570533752443,0.007840965874493124,0.006803223863244057,-0.007365331053733826
4.914095401763917,-0.8730779290199281,9.328727722167969,0.0060072122141718864,0.003150782780721784,-0.006776902824640274
4.879007339477539,-0.8579364418983461,9.327752113342287,0.007732921745628119,-0.007414390798658133,-0.012794090434908867
4.8816375732421875,-0.9857606887817383,9.317256927490234,0.013127868063747885,-0.01566489040851593,-0.01937905885279179
4.889871120452882,-0.9537299871444702,9.28147602081299,0.02383603341877461,-0.021605856716632843,-0.027349989861249924
4.871793746948242,-0.8966222405433656,9.241137504577638,0.030124615877866745,-0.0236163754016161,-0.031642697751522064
4.852017879486085,-0.9396851062774658,9.260109901428224,0.033053189516067505,-0.03169580549001694,-0.03652587905526162
4.830456256866456,-0.9516196846961976,9.287052154541016,0.03711569309234619,-0.04013713076710702,-0.04341021925210953
4.911992073059082,-0.8356961011886597,9.278136253356935,0.041896376758813865,-0.044450484216213226,-0.050248146057128906
4.9941983222961435,-0.7759730815887451,9.271544456481935,0.040958113968372345,-0.04585521295666695,-0.0498398095369339
4.99416446685791,-0.6774522066116333,9.271143913269045,0.0352666974067688,-0.04051738977432251,-0.045954268425703056
5.007163047790527,-0.7174436450004579,9.244829177856445,0.02840624377131462,-0.03785269334912301,-0.039297789335250854
5.005410194396973,-0.7634121179580688,9.227792739868164,0.0289597250521183,-0.031703408807516105,-0.03880431130528451
5.007877826690675,-0.7231466770172119,9.233753204345703,0.029196538031101227,-0.023223755881190303,-0.0356779471039772
5.038783550262452,-0.7311411499977113,9.22330951690674,0.025075413286685944,-0.01729753613471985,-0.03443464264273644
4.965042591094972,-0.8105200529098511,9.21835708618164,0.026074850931763652,-0.011957656592130661,-0.030977273359894756
5.029372215270996,-0.7694377303123475,9.199753761291506,0.029327319934964183,-0.005196664482355118,-0.034745365381240845
5.098558902740479,-0.6097246408462524,9.162968635559084,0.030190996825695038,0.0061956080608069905,-0.030902601778507233
5.1232099533081055,-0.5813829302787782,9.176520347595217,0.021841540932655334,0.024059873074293137,-0.021843003109097484
5.135818958282472,-0.6260088682174683,9.210977554321289,0.01583676598966122,0.04278110712766647,-0.012938625179231169
4.962492942810059,-0.6016069650650024,9.279467582702638,-0.0011074987705796957,0.05654102936387063,-0.006424178835004569
4.924466609954835,-0.5074591040611268,9.228246688842773,-0.017399385571479797,0.05166540667414666,0.00102991983294487
4.859294414520265,-0.3118050694465637,9.158814430236818,-0.039570294320583344,0.045313455164432526,0.009505319409072401
4.741314411163331,-0.09521296620368958,9.45900630950928,-0.09387785941362382,0.021063916385173798,0.028672369197010997
4.7336578369140625,-0.42928898334503174,9.49678134918213,-0.14611515402793884,-0.00859274808317423,0.05881434306502343
4.784737586975098,-0.7467876672744751,9.437539100646974,-0.1709341257810593,-0.03617751598358154,0.07399154454469682
4.52277708053589,-1.10555636882782,9.38769054412842,-0.17827440798282626,-0.0673123672604561,0.07005462050437927
4.354525089263917,-1.1527917385101318,9.58126735687256,-0.18275803327560425,-0.1363753527402878,0.05128064006567001
4.42381477355957,-0.9677705764770508,9.576532363891602,-0.1975328475236893,-0.19875067472457886,0.03131972253322601
4.072392940521241,-0.9161216020584106,9.725693702697756,-0.24429194629192355,-0.2840344309806824,0.007853320799767973
4.254871845245362,-1.4845879077911377,9.88345241546631,-0.2665479779243469,-0.385733425617218,-0.039310935884714134
4.349970340728761,-1.7945593595504763,9.89767074584961,-0.25785964727401733,-0.49452719092369085,-0.09369765222072601
3.867724895477295,-1.5974700450897217,10.151348114013672,-0.24146297574043274,-0.6498791575431825,-0.15599031746387484
3.871260166168213,-1.2845233678817751,10.316219329833984,-0.23943220078945163,-0.9104815721511841,-0.22333849966526034
3.8034939765930176,0.7922242283821107,11.667481422424318,-0.5133970379829408,-1.147912383079529,-0.3193884491920471
2.4358139038085938,-3.4789609909057617,10.966751098632812,-0.4029711782932282,-1.6070985794067383,-0.37938120961189276
3.1703624725341797,-1.1465237140655518,12.00672721862793,-0.18994985520839694,-2.0986251831054688,-0.38691502809524536
3.5749819278717045,-1.9670066833496094,11.7905969619751,-0.07973062992095947,-2.5603468418121342,-0.47566235065460205
4.324211120605469,-2.6185574531555176,11.769032478332521,0.02187914960086346,-2.9692313671112065,-0.5876069068908691
6.074679851531983,-3.1496472358703613,12.482684135437013,0.09402401000261308,-3.2747182846069336,-0.7278457283973695
6.2626190185546875,-3.188506603240967,12.207094192504883,0.14019910991191867,-3.5068931579589844,-0.9111356735229492
6.166593074798585,-3.5798084735870366,11.362934112548828,0.1740800142288208,-3.6646654605865483,-1.1958935260772705
7.52076005935669,-4.440072536468507,11.611003875732422,0.23620109260082248,-3.7107312679290776,-1.4525561332702637
8.473347663879396,-4.219162464141847,11.340538024902344,0.3663100600242615,-3.7747151851654057,-1.6296684741973877
10.946737289428711,-3.4388914108276367,12.472687721252443,0.582027792930603,-3.6041829586029057,-1.7838288545608523
10.613639831542969,-2.6754591464996342,12.732694625854492,0.7021833658218384,-3.100239515304566,-1.7051572799682617
10.259221076965334,-3.9009857177734375,16.751014709472656,0.5975210070610047,-2.0453727245330815,-1.4926488399505615
4.561337471008301,-3.7013056278228764,15.862226486206055,0.6733769774436952,-1.151505947113037,-1.2872596979141238
4.265039443969727,-2.160078525543213,14.241020202636719,0.3922473192214966,-0.4670636951923371,-0.9332544207572938
0.8022255897521973,-2.8089590072631836,13.561281204223633,-0.09171070158481598,0.21354298293590548,-0.5816192626953125
-2.494337558746338,-3.5299291610717773,10.679801940917969,-0.22010166943073275,0.52762109041214,-0.40447235107421875
-3.5088820457458496,-2.8966283798217773,10.113521575927734,-0.1715504974126816,0.6762416362762451,-0.3380796611309052
-3.330795526504517,-2.0246124267578125,10.224432945251467,-0.2575796842575073,0.8321604132652284,-0.2758698165416718
-3.1262078285217285,-1.8522992134094238,10.534856796264648,-0.461527943611145,1.0563048124313357,-0.20451515913009644
-2.9865953922271733,-2.279829502105713,10.602070808410646,-0.6257728934288026,1.3095670938491824,-0.1321607232093811
-2.9795169830322266,-2.6845951080322266,10.64468002319336,-0.6778190732002259,1.539325475692749,-0.04507276788353921
-2.6279048919677734,-2.78589415550232,10.825775146484375,-0.6766633987426758,1.7327483892440798,0.045969162136316306
-2.0409021377563477,-2.655837059020996,11.071674346923828,-0.6724420785903931,1.9160267114639284,0.17189690470695496
-1.593599796295166,-2.5929388999938965,11.30096435546875,-0.682611644268036,2.0809137821197514,0.3517652750015259
-0.9212416410446167,-2.333276510238648,11.56539535522461,-0.6933642625808716,2.213917493820191,0.5700749158859253
-0.13066296279430392,-2.080580711364746,11.95162868499756,-0.7084748148918153,2.3326969146728516,0.8241865634918213
0.6655858755111694,-1.802361011505127,12.259392738342287,-0.7035512924194336,2.4613912105560307,1.0669810771942139
1.5319591760635378,-1.4142457246780398,12.64959239959717,-0.6769449710845947,2.583803653717041,1.2835963964462282
2.408414363861084,-0.933394193649292,13.095458984375,-0.6371880173683168,2.6994357109069824,1.452287554740906
3.317456483840943,-0.5825847387313843,13.554161071777344,-0.5826961398124696,2.8030781745910645,1.5736477375030518
4.305290699005128,-0.5249884128570557,13.818315505981445,-0.5045244097709657,2.8957505226135254,1.6390594244003298
5.3706984519958505,-0.6359777450561523,13.914412498474123,-0.3851538896560669,2.9714999198913574,1.648506283760071
6.343627452850343,-0.8528714179992676,13.913327217102053,-0.22665002942085266,3.037240266799927,1.601736307144165
6.948437690734863,-1.0097968578338623,13.562735557556154,-0.065407432615757,3.0818581581115723,1.507524013519287
7.301252365112305,-1.0416147708892822,13.00907611846924,0.06822701543569566,3.0605502128601074,1.3899532556533816
7.942311763763429,-1.2296102046966553,12.54160785675049,0.14978562295436862,2.9737598896026616,1.2814991474151611
8.569798469543459,-1.6295377016067507,11.98219108581543,0.21763069927692416,2.87479305267334,1.1899932622909548
9.21406650543213,-1.6120617389678955,11.665896415710451,0.27257269620895386,2.7702167034149174,1.1233154535293581
10.202518463134766,-1.2341570854187012,11.488632202148438,0.26155456900596624,2.692646026611328,1.0765196084976199
10.927653312683107,-0.428166925907135,11.1515588760376,0.1514164358377457,2.687604665756226,1.0859355926513672
11.250952720642092,0.14257831871509555,10.792915344238281,-0.034629102796316154,2.71500301361084,1.1369196176528933
11.06901741027832,0.4563118815422058,9.969928741455078,-0.19588229060173035,2.725113153457642,1.1802557706832888
10.84459972381592,0.8381154537200928,8.967164039611818,-0.2960958480834961,2.681531667709351,1.1957285404205322
10.560500144958498,0.6847200393676758,7.812747955322266,-0.31232577562332153,2.5804524421691895,1.1507061719894411
9.982667922973633,0.5262199640274048,6.547356128692628,-0.18964876234531405,2.3977508544921875,1.0269678831100466
9.664728164672852,0.6281273365020752,5.4554338455200195,-0.03643644601106644,2.1392400264739995,0.8725256323814393
10.024682044982912,0.8659111857414247,4.665165901184082,0.05481953173875809,1.842879891395569,0.7237151861190796
10.649344444274904,1.28607714176178,3.868283748626709,0.06383170932531358,1.575052618980408,0.6023141145706177
11.309759140014648,1.612688183784485,3.0916144847869877,-0.0059516653418540955,1.3419471979141238,0.4997447729110718
11.443161010742188,1.3179640769958496,2.1244354248046875,-0.05519106239080429,1.0971559286117556,0.39834043383598333
11.12759304046631,1.1475470066070557,1.1131278276443484,-0.003478053491562605,0.7713654637336732,0.2866280674934387
10.979855537414553,1.5182179212570193,0.5162456035614014,0.0681702196598053,0.39734911918640137,0.17963372170925143
10.819364547729492,1.5596959590911865,0.4600102007389069,0.10760793089866638,0.02479127608239651,0.08447478711605072
10.96324348449707,1.5715028047561648,0.9697982668876649,0.14462628960609436,-0.3534704744815827,-0.04220165684819222
11.836160659790039,2.068980932235718,2.0372376441955566,0.1126745715737343,-0.6855372190475464,-0.17472733557224276
12.928546905517578,2.486934900283814,3.0562949180603027,-0.01841704547405243,-0.871341347694397,-0.3036868870258332
13.67396354675293,2.4607164859771733,3.578366279602051,-0.20755742490291598,-0.9197758436203003,-0.4537550508975983
-0.8200225830078125,4.527839660644531,7.751391410827637,-0.44722107052803045,-1.3977725505828857,-0.620644211769104
-5.8853759765625,-2.128328800201416,9.448437690734865,-0.5203105211257935,-2.0866553783416752,-0.5737595558166504
-1.2400450706481934,-2.0429797172546387,14.36343002319336,-0.41695868968963623,-2.548611640930176,-1.3245531320571902
0.45433998107910156,-10.03132724761963,10.733589172363281,-0.36426827311515814,-2.8104472160339355,-1.310099244117737
8.250574111938477,-11.020371437072756,9.58282470703125,-0.2689547538757324,-3.018398523330689,-0.8446313738822938
10.004817962646484,-9.050886154174805,11.862839698791506,-0.19016632437705994,-2.9211452007293706,-0.20328092575073242
11.698460578918459,-4.199832439422608,14.562524795532227,0.0344596803188324,-2.6638660430908203,0.07799235731363298
12.90560054779053,1.9554541110992432,14.486025810241701,-0.049546703696250916,-2.253262281417847,0.06373977661132812
10.95773220062256,3.9937148094177246,13.120703697204592,-0.3326999247074128,-1.8375334739685059,0.03549281507730484
8.454066276550295,0.9691344499588013,11.790693283081055,-0.5227192640304565,-1.5493127107620241,0.0008086469024419785
6.3193116188049325,-3.399303436279297,10.592849731445312,-0.5364814400672914,-1.374667286872864,0.03777743875980377
5.2982754707336435,-4.915079116821289,9.441382408142092,-0.36752513051033026,-1.2914342880249023,0.01468991953879595
6.869949817657472,-4.3175201416015625,10.032383918762209,-0.12546406686306003,-1.1728639602661133,-0.06793276965618134
8.088000297546388,-2.8425014019012456,10.780561447143555,0.0894291326403618,-0.9421271085739136,-0.2191116958856583
6.864809513092042,-2.8956649303436284,10.336919784545898,0.24227893352508545,-0.694595456123352,-0.3118285238742829
5.2742414474487305,-3.300482749938965,9.695963859558107,0.3655776679515839,-0.5852140188217163,-0.3658874332904816
5.2254910469055185,-3.0547232627868652,9.972519874572756,0.46140390634536743,-0.528742015361786,-0.37378290295600897
5.704240798950195,-1.2703999280929568,10.495967864990234,0.5132190585136415,-0.4474089741706848,-0.35622081160545355
5.678675174713136,-0.2573325037956238,10.551701545715334,0.5040212273597718,-0.3588551580905915,-0.3346356749534607
5.388721466064453,-0.6964188218116761,10.30145263671875,0.42949113249778753,-0.2811776399612427,-0.285675197839737
4.89488172531128,-0.614096224308014,10.011202812194826,0.35036411881446844,-0.2504770755767822,-0.2192525565624237
4.551952838897706,-0.45301228761672974,9.956817626953125,0.25329458713531494,-0.2653896510601044,-0.14938855171203613
4.530092239379883,-0.051006466150283813,10.062616348266602,0.11359303444623949,-0.27567037940025335,-0.07258625328540802
4.712178707122804,0.04500414431095123,9.952052116394045,-0.0123308626934886,-0.2995947003364563,-0.04119222983717919
4.968963146209718,-0.42001575231552124,9.8944787979126,-0.10871490091085435,-0.2958964705467224,-0.004068269394338131
4.442622184753418,-1.0195696353912354,9.37626838684082,-0.1559368818998337,-0.2917429804801941,-0.004015521612018348
3.8668587207794194,-2.2053768634796147,9.122254371643068,-0.13705414533615112,-0.3392783999443054,-0.04187529161572457
4.681378841400147,-2.821341037750244,9.041434288024904,-0.08776776492595673,-0.36424914002418524,-0.07094942033290863
4.546764850616456,-2.871920585632324,8.501156806945803,0.00923950970172882,-0.3294778168201447,-0.093387208878994
3.463806629180908,-2.414836883544922,8.602315902709961,0.0790056437253952,-0.3737738430500031,-0.13184797763824463
4.115913391113281,-2.0259571075439453,9.392541885375977,0.09993580728769304,-0.44720122218132025,-0.18784663081169128
4.237802028656007,-1.5920937061309814,9.409455299377443,0.08443132042884827,-0.4849801361560822,-0.2003137767314911
5.008048057556152,-1.3363829851150515,9.839191436767578,0.069705568253994,-0.5211930274963379,-0.1946651041507721
5.593194961547852,-0.8178061246871948,9.880892753601076,0.042643811553716666,-0.4813798666000366,-0.18275691568851474
5.488857269287109,-0.6751956343650819,9.449475288391115,-0.009797969833016396,-0.4171658754348755,-0.16705878078937533
5.340278148651124,-0.7256171107292176,9.492351531982422,-0.06466592848300934,-0.3800552189350129,-0.13059398531913757
5.360360622406007,-0.8439270257949829,9.562528610229492,-0.14150041341781616,-0.3344008028507233,-0.10988248139619829
4.928958892822266,-1.4342758655548096,9.21047592163086,-0.19264452159404757,-0.3268433213233948,-0.10539070516824724
4.571868419647218,-1.797799825668335,9.216998100280763,-0.20381519198417664,-0.34930676221847534,-0.12809826433658603
4.860116004943848,-1.7967650890350342,9.134239196777344,-0.19138096272945407,-0.39274829626083374,-0.16264726221561435
4.74971866607666,-1.6951358318328857,9.038358688354492,-0.17603819072246554,-0.4226566553115845,-0.18872496485710144
4.723083019256593,-1.7963224649429324,9.21016025543213,-0.17486639320850375,-0.46695828437805176,-0.23633976280689242
4.933759689331055,-1.7924398183822634,9.011832237243654,-0.13731338083744052,-0.49405267834663397,-0.28528666496276855
5.020627975463867,-1.8532638549804688,8.853290557861328,-0.09367988258600236,-0.5200539827346802,-0.32724311947822576
5.0060439109802255,-2.0142908096313477,8.698240280151367,-0.03813892230391503,-0.5341286659240723,-0.38894927501678467
4.676180362701417,-2.902140378952027,8.71215343475342,0.07290319353342058,-0.5490010976791382,-0.5051705241203309
5.21439027786255,-2.4608750343322754,8.871053695678711,0.1399573236703873,-0.5883223414421083,-0.5649936199188232
5.8785138130188,-0.16715234518051147,9.31017589569092,0.08946160972118378,-0.6731861233711244,-0.45846056938171387
5.307501792907715,-0.9593083262443544,9.354513168334961,0.048343624919652946,-0.7839493751525879,-0.3509179353713989
4.610985279083253,-1.0259373188018799,9.739837646484375,0.02248078025877476,-0.9671370983123779,-0.3086232244968415
4.627581119537354,-0.9989563226699829,9.9824914932251,-0.02231528423726559,-1.212766766548157,-0.31400489807128906
4.113346576690675,-1.0948352813720703,10.262591361999513,-0.016615049913525585,-1.521254301071167,-0.33174136281013494
4.109975814819336,-0.2962323725223542,10.440922737121584,-0.04683955386281014,-1.9045641422271729,-0.31826549768447876
5.030012130737305,0.4808929860591889,10.409439086914062,-0.1521081775426865,-2.3119006156921387,-0.2184058874845505
4.635589122772218,0.2316456586122513,10.169576644897461,-0.28659188747406006,-2.6951541900634766,-0.11481451243162157
4.6762542724609375,0.02162770926952362,10.277504920959474,-0.3574886023998261,-3.1494274139404297,-0.0754540041089058
5.091779232025147,-0.6089764237403871,10.397738456726076,-0.4167263209819794,-3.6505985260009766,-0.08509017527103424
2.9698967933654785,-2.1537878513336186,10.069537162780763,-0.35204932093620306,-4.355533599853516,-0.20658798515796664
2.2386267185211186,-3.9180529117584233,9.7178955078125,-0.20328721404075623,-5.273998260498047,-0.44866803288459783
2.8645153045654297,-4.10280466079712,9.600799560546875,0.003208248177543283,-6.371626853942871,-0.7165153622627259
3.449703454971314,-4.049319267272949,9.966204643249513,0.22094266116619113,-7.542411804199219,-0.9306645393371582
5.1516618728637695,-3.279179573059082,10.334901809692383,0.3824077248573303,-8.856022834777834,-1.143453598022461
5.905217647552491,-3.2706775665283203,10.216027259826662,0.42929184436798096,-10.076826095581055,-1.4090245962142947
10.575947761535646,-2.0730700492858887,12.03064823150635,0.14437879621982577,-11.154153823852539,-1.5596474409103396
18.837530136108402,-3.079550981521607,13.744390487670898,-0.21716555953025818,-11.756672859191896,-1.5133115053176882
28.628646850585938,-2.732898235321045,15.556807518005373,-0.5274906754493714,-11.345710754394531,-1.5395933389663699
36.9322853088379,-1.62349271774292,13.032847404479982,-0.9862632155418397,-10.259730339050295,-1.2588820457458496
34.65312957763672,-3.173692226409912,16.338096618652344,-1.9842079877853396,-9.130203247070312,-0.8508493304252626
24.010086059570312,-10.559211730957031,13.841319084167482,-1.883094072341919,-8.131407737731935,-1.4047886133193972
19.532394409179688,-8.47409439086914,15.995900154113771,-1.121718764305115,-7.823328018188477,-2.0580236911773686
18.3612232208252,-8.069164276123047,21.319520950317386,-0.8346441984176636,-7.1268415451049805,-2.327992677688599
14.895791053771974,-7.0211195945739755,19.0937671661377,-0.5757201910018921,-5.495213985443116,-1.9541168212890625
13.076077461242678,-4.022720813751222,19.89094734191895,-0.35098546743392944,-4.217568874359132,-1.788699507713318
34.62346649169922,-11.1898193359375,31.99996376037598,0.352455198764801,-1.4374717473983767,-2.2723870277404785
12.731205940246584,-6.578031063079835,26.152730941772464,0.41253066062927246,1.7105822563171387,-1.61334502696991
10.505471229553224,-7.54099178314209,20.555570602416996,0.8417017459869385,3.676625490188599,-1.3615431785583496
7.4360671043396005,-4.69886350631714,15.616265296936037,0.8508394360542298,5.097460746765137,-1.007253885269165
3.600405693054199,-3.104605913162232,11.062633514404297,0.5855677127838135,5.871028423309327,-0.7395282983779907
1.1078312397003174,-2.5971922874450684,7.806973934173585,0.15917667746543884,6.305218696594238,-0.42927864193916326
0.08860671520233154,-2.6504158973693848,5.198554515838624,-0.22623181343078613,6.479405879974366,-0.12966376543045044
-0.8549331426620483,-2.4107446670532227,3.7470998764038086,-0.5506375432014466,6.413066864013672,0.19865918159484863
-0.5443163514137269,-2.524157285690308,3.885189294815064,-0.7392536401748657,6.259236812591554,0.5561755895614624
0.5937322974205018,-2.731455564498902,4.814227581024171,-0.7022640109062196,6.138487339019776,0.8532150983810425
2.527962923049927,-2.645008087158203,6.312532424926758,-0.5452402830123901,6.156558513641358,1.1067445278167725
4.514267444610597,-2.3844637870788574,7.40726375579834,-0.3544939160346985,6.379517078399659,1.3677588701248171
5.217747688293457,-1.7139935493469238,7.68390989303589,-0.15086938440799716,6.651597023010254,1.5624760389328005
5.278655052185059,-0.30379718542099,7.205683708190918,-0.06519981473684312,6.833104610443116,1.7494864463806152
5.05880069732666,1.1400204896926882,6.5624542236328125,-0.13313128054142,6.855696678161621,1.901792883872986
5.251079082489015,2.108388900756836,6.478372573852539,-0.33258360624313354,6.747482776641847,2.00378966331482
6.368271350860597,2.2031109333038335,7.264094829559327,-0.5640819668769838,6.6154680252075195,2.0359122753143315
8.232353210449219,1.5950390100479128,8.859116554260256,-0.6673299074172974,6.547377586364746,1.997195363044739
10.215756416320803,0.880002796649933,10.647525787353516,-0.5627564191818237,6.578895092010499,1.8937437534332275
11.481668472290039,0.8451604247093202,12.034617424011232,-0.30480504035949707,6.680743694305421,1.751376271247864
12.330124855041506,1.2822631597518923,12.741719245910646,-0.06025024503469467,6.790209293365479,1.6381514072418213
12.860524177551271,1.4945439100265505,12.929119110107422,0.1304922103881836,6.829233169555664,1.5832186937332156
13.427436828613281,1.257019281387329,12.923355102539062,0.30106225609779363,6.757314682006836,1.5718592405319216
13.979070663452148,0.8661184310913086,13.150981903076172,0.5009502172470093,6.577824115753175,1.5524407625198366
14.671210289001467,0.7010847926139833,13.728112220764162,0.6695538759231567,6.344811916351319,1.4803123474121094
15.748724937438967,0.1346745789051056,14.613101959228516,0.7741418480873109,6.085478305816651,1.3590240478515625
17.53378677368164,-0.9485796689987183,15.856279373168945,0.8652567267417909,5.812615394592285,1.2138532400131228
20.439825057983402,-2.299715995788574,17.392892837524418,1.0012432336807253,5.5755815505981445,1.042423963546753
24.40099906921387,-2.786610364913941,18.248069763183594,1.1441807746887207,5.498948574066163,0.8677150011062622
27.041229248046875,-2.1297132968902592,17.157604217529297,1.0617309808731081,5.5929913520813,0.697521448135376
26.600765228271484,-1.6149774789810183,14.067546844482422,0.6316187977790834,5.675981521606445,0.5161650776863099
25.59927558898926,1.3244760036468506,10.009617805480959,-0.15375655889511108,5.494681835174561,0.2942592799663544
26.897960662841797,6.891350746154785,4.059234619140625,-1.6932109594345095,5.157782554626465,0.19717840850353244
26.26400184631348,11.020997047424318,-3.057046175003052,-3.739202737808228,4.662866115570069,0.2771817445755005
29.83245086669922,8.481009483337404,-11.446763038635256,-5.330495357513429,4.086333274841309,0.6772050261497499
35.861156463623054,-2.139658689498902,-20.367610931396484,-4.757509231567383,3.3258359432220463,1.259580969810486
32.99321746826172,-8.676659584045412,-24.695272445678714,-1.8857043981552126,1.7673652172088623,1.4059087038040163
20.545185089111328,-3.496639490127564,-22.03791046142578,1.1268494129180908,-0.44917935132980347,0.694091022014618
16.46370887756348,5.407641887664796,-13.791482925415039,2.417898178100586,-2.3416960239410405,-0.45949792861938477
20.51605224609375,9.267201423645021,-2.934935331344605,1.7294849157333376,-3.1751365661621094,-1.4090299606323242
23.94605255126953,7.081361770629883,5.834753036499023,0.31425383687019354,-2.8830056190490723,-1.8093839883804324
12.523411750793459,-4.165750980377198,11.666857719421388,0.5321803092956543,-3.671064853668213,-1.6013342142105105
-13.006305694580078,-2.4611458778381348,6.203730106353761,0.5302501916885376,-3.4411451816558842,-1.9885179996490479
2.506896495819092,-4.7932753562927255,15.401690483093263,-0.21350684762001038,-4.531410694122315,-1.8253301382064822
11.03407096862793,-15.536457061767578,13.249983787536623,-0.3213304877281189,-5.042079448699952,-1.6839654445648193
26.328531265258793,-7.641354560852051,16.245519638061527,0.19826619327068332,-4.735701084136964,-0.7897595167160034
25.042058944702152,-1.1422269344329834,18.25945854187012,0.1982483118772507,-3.815098762512207,0.045479673892259605
20.61594963073731,5.203960895538331,17.206430435180668,0.21133646368980408,-3.0811436176300053,-0.3108018338680268
14.498337745666506,4.289906024932862,14.450633049011232,0.0686435177922249,-2.4659557342529297,-0.6727676987648011
8.944355964660646,-0.8051149249076844,11.028409004211428,-0.05671567097306252,-2.102436780929566,-0.6424391269683838
7.68781852722168,-2.8870570659637456,9.865242004394531,0.01378544606268406,-1.9238282442092898,-0.579018235206604
11.041012763977053,-3.056543588638306,10.944672584533693,0.2609627544879914,-1.5733518600463867,-0.6947659254074097
10.846134185791016,-3.236001491546631,11.063705444335938,0.5096061825752259,-1.0157699584960938,-0.7348133921623231
8.506721496582031,-2.436870336532593,10.768775939941406,0.5743788480758667,-0.6513563394546509,-0.5303550362586976
6.936246871948242,0.37970218062400823,11.071945190429688,0.4711727499961853,-0.4397610723972321,-0.36489856243133545
4.307525634765625,-0.44626158475875854,9.357864379882812,0.3684982657432556,-0.3137183487415314,-0.3398484885692597
2.7186169624328613,-2.255083799362183,9.7788782119751,0.21672083437442782,-0.4184877276420593,-0.32732114195823675
5.218043327331543,-0.9959012269973755,10.599679946899414,0.21091166138648987,-0.4808811545372009,-0.31224450469017034
5.669467449188233,-1.6980648040771484,10.039867401123047,0.3192420303821564,-0.4157957434654236,-0.329024225473404
5.899846076965332,-0.41701799631118774,10.124352455139162,0.30898860096931463,-0.36490631103515625,-0.3062542676925659
5.500338554382324,0.2802622318267822,10.322241783142092,0.21130795776844027,-0.30643659830093384,-0.26825216412544256
5.729058265686035,-0.4771372675895691,9.920962333679201,0.12247405201196672,-0.2912379205226899,-0.13654351234436035
5.64327096939087,-0.25290480256080633,9.800407409667969,0.006723053753376007,-0.31484481692314154,-0.02873380482196808
5.761103630065918,0.0010544806718826294,9.749098777770998,-0.11193994432687761,-0.30946338176727295,0.010047277435660362
5.374772071838379,-0.5313410758972168,9.503680229187013,-0.19874034821987155,-0.2788847088813782,0.09390702098608018
5.117202281951905,-1.3656928539276123,9.341763496398928,-0.2119196802377701,-0.2864124476909638,0.06586585938930511
5.204742908477784,-1.6446708440780642,9.155570983886719,-0.18688528239727023,-0.2845926880836487,0.04619416221976281
5.0322723388671875,-1.69905960559845,8.815277099609375,-0.15130169689655307,-0.2666413187980652,0.010871415957808495
5.083773612976074,-1.9189355373382568,8.723590850830078,-0.1063160225749016,-0.23808398842811584,-0.03917942568659783
4.981204032897949,-2.034041404724121,8.528941154479982,-0.04734902083873749,-0.19250649213790894,-0.09463483840227128
4.335084915161133,-2.087907314300537,8.728913307189943,0.009390976279973984,-0.1582611054182053,-0.16655191779136658
4.493857383728027,-2.006636619567871,8.980114936828615,0.05811476334929467,-0.15693527460098267,-0.2595071792602539
4.814225673675538,-1.7371528148651123,8.991122245788576,0.09812140464782715,-0.15913744270801547,-0.321402370929718
5.009220600128175,-0.9661097526550293,9.14457893371582,0.09268688410520555,-0.1545868664979935,-0.33515870571136475
5.191093921661378,-0.9224604368209839,9.236870765686037,0.048783935606479645,-0.16869916021823886,-0.33300459384918213
5.192361831665039,-0.8738772869110107,9.244014739990234,0.02490685693919659,-0.1803337037563324,-0.3384097218513489
5.327686786651612,-0.580918848514557,9.29763412475586,-0.011820897459983826,-0.18189005553722384,-0.3324972987174988
5.235877513885499,-0.4112563729286194,9.35568141937256,-0.0725739598274231,-0.18853071331977844,-0.30386140942573553
5.325982093811035,-0.6208913326263428,9.200448989868164,-0.1236976683139801,-0.19835884869098666,-0.29490095376968384
5.255611419677734,-0.8205972909927368,8.983349800109865,-0.15149135887622836,-0.2031959593296051,-0.2849958539009094
4.970780849456788,-1.165042042732239,8.823475837707521,-0.15076364576816562,-0.20535650849342346,-0.297793060541153
4.968236446380616,-1.4438886642456055,8.820439338684084,-0.11305140703916551,-0.21187628805637362,-0.3294033408164978
5.268624782562257,-1.2779552936553955,8.947872161865234,-0.1037617400288582,-0.22573715448379517,-0.34604993462562567
5.536480426788331,-0.9973536133766175,8.961189270019531,-0.09114652127027513,-0.23822090029716492,-0.3351742625236511
5.381341934204102,-0.5735678076744081,9.135459899902344,-0.10430034250020982,-0.28222358226776123,-0.28807291388511663
5.428146839141847,-0.13317927718162537,9.44949245452881,-0.1644651144742966,-0.36265441775321966,-0.22689852118492126
5.401404857635499,-0.05882503092288971,9.412751197814943,-0.2267558425664902,-0.4597182869911194,-0.15002511441707614
5.191710948944093,0.18547253310680392,9.586499214172365,-0.2828702628612519,-0.5994529724121094,-0.06071597337722778
5.0073089599609375,0.39543715119361883,9.777009963989258,-0.37714916467666626,-0.7628038525581361,0.044306427240371704
4.099605560302734,-0.44013744592666626,9.808104515075685,-0.4597132503986359,-0.9844521880149842,0.10787181556224823
3.3550729751586914,-1.4671449661254883,10.175683021545412,-0.44291523098945623,-1.3261141777038574,0.08709555119276048
3.74465823173523,-1.2658523321151736,10.415227890014648,-0.4525555968284607,-1.7117801904678347,0.04565579816699029
4.091456413269043,-0.7321879863739014,10.301754951477053,-0.4960825145244599,-2.1212339401245117,0.036704149097204215
4.0984845161438,-0.8053132891654969,10.292381286621094,-0.5583435297012329,-2.563661575317383,0.06542394310235979
4.324829578399659,-0.7796657085418701,10.124133110046388,-0.5600560307502748,-3.0520477294921875,0.07589939981698991
4.478871822357179,-1.0631492137908936,10.02842426300049,-0.6001980304718018,-3.5415112972259526,0.048331562429666526
4.406329631805421,-2.227513313293457,10.003210067749023,-0.5915580987930298,-4.1342740058898935,-0.06767533719539642
3.562844514846802,-2.1089868545532227,9.924619674682617,-0.542624831199646,-4.890649795532227,-0.2647244036197663
1.9266254901885986,-2.954657316207886,9.884988784790039,-0.47751924395561224,-5.844667434692383,-0.3848928511142731
2.763015508651734,-3.0853357315063477,9.741383552551271,-0.37513405084609985,-7.033547878265382,-0.5504775643348695
3.5339925289154057,-2.8915755748748784,10.098664283752443,-0.30578434467315674,-8.344922065734865,-0.6407877206802368
3.8324837684631348,-2.5578842163085938,10.018512725830078,-0.2778835594654084,-9.885619163513185,-0.8429182767868042
7.3900113105773935,-4.050677299499512,11.500406265258789,-0.38088715076446533,-11.266266822814943,-1.0862030982971191
16.430919647216797,-5.400066375732422,14.524205207824709,-0.5529622435569764,-12.089988708496094,-1.3515405654907227
26.732091903686527,-5.314539909362793,15.48701286315918,-0.5130088329315186,-11.939188957214357,-1.6254856586456299
35.72713851928712,-4.91443681716919,13.046346664428711,-0.40361025929450994,-10.727070808410646,-1.7815375328063965
36.22913360595703,-2.4067103862762456,14.74763584136963,-0.9658166766166688,-9.468530654907227,-1.4015051126480105
24.981630325317386,-8.142086029052734,13.564520835876467,-1.5029715299606325,-8.665098190307617,-1.477872371673584
20.038743972778324,-10.511144638061523,14.321238517761232,-1.0076545476913454,-8.31312370300293,-2.0303981304168706
19.698707580566406,-8.482487678527834,18.816967010498047,-0.6865136027336122,-7.559869289398194,-2.221111297607422
15.464243888854982,-8.799992561340334,19.03609848022461,-0.5675745010375977,-6.133348941802979,-2.351284980773926
9.61485481262207,-3.001728773117066,18.588592529296875,-0.7213011384010316,-4.97053337097168,-1.9727511405944824
43.138832092285156,-9.005180358886719,30.103475570678714,-0.47847256064414984,-2.6174325942993164,-2.3849017620086674
22.820928573608402,-12.442766189575195,31.609214782714844,0.05492230877280236,1.5665999650955202,-1.7584724426269531
11.664566040039062,-10.649486541748047,21.528888702392578,1.0223805904388428,4.363622188568116,-1.4151029586791992
8.73794460296631,-9.221105575561523,15.73559093475342,1.7576167583465576,6.0656447410583505,-1.2765539884567263
3.5003235340118413,-5.802655220031738,9.00496578216553,2.1145751476287846,6.627950668334961,-1.3760446310043337
-2.968751668930054,-4.081616878509522,4.443657875061035,1.9981080293655398,6.5189223289489755,-1.461620569229126
-4.75102186203003,-2.9434297084808354,1.8362176418304443,1.6031004190444949,6.083703994750977,-1.4055765867233279
-4.065767765045167,-1.9596813917160036,1.369458079338074,1.06856107711792,5.537893772125245,-1.2760869264602663
-2.084616184234619,-1.698134422302246,2.724568605422974,0.39983186125755316,5.162081718444824,-0.9318285584449769
0.22357028722763062,-2.932618856430054,4.871132850646973,-0.2057628333568573,5.0922040939331055,-0.508555829524994
2.4634382724761967,-5.090641498565675,6.741929531097413,-0.4533408284187317,5.3418850898742685,-0.12300167977809906
4.034895896911621,-7.090466499328613,7.663193702697754,-0.18285712599754333,5.751395702362061,0.15556298196315768
5.129213333129883,-7.09183406829834,7.884807109832765,0.313302218914032,6.1525282859802255,0.37412071228027344
6.147771835327148,-5.120323657989503,7.604759216308594,0.5922365188598633,6.479520797729492,0.6531605124473573
6.472217082977296,-3.288929700851441,6.897912979125977,0.5417904257774354,6.7509765625,0.9950068593025209
6.605778217315675,-2.577412366867066,6.405025005340577,0.26101276278495794,6.8721160888671875,1.3707544803619385
7.174936771392823,-3.426430940628052,6.340808391571046,0.04884357005357742,6.88642168045044,1.7056834697723389
7.98384714126587,-4.207547664642335,6.653301239013672,0.06423399597406389,6.824489116668702,1.9255974292755127
9.180461883544922,-3.488785743713379,7.3278913497924805,0.18329837918281555,6.693742275238038,2.073202610015869
10.483169555664062,-1.98883056640625,8.176809310913086,0.16008354723453525,6.544189453125,2.208620071411133
11.89619541168213,-1.4320957660675049,9.112554550170898,0.0001447722315788269,6.431965351104737,2.2977747917175293
12.788165092468263,-2.3173658847808842,9.73856830596924,-0.07613141089677812,6.335163593292237,2.322159767150879
13.612874984741211,-3.079695701599121,10.57794189453125,0.04304634407162667,6.178835868835449,2.29017186164856
14.970700263977053,-3.175293445587158,11.73329830169678,0.25731921195983887,6.016139507293702,2.2480800151824956
16.354932785034183,-2.6786334514617924,13.177504539489748,0.4060428440570832,5.922122001647949,2.2141001224517827
17.880355834960938,-2.097565174102783,14.814621925354006,0.39149066805839544,5.88963270187378,2.1914448738098145
19.906009674072266,-2.1865954399108887,16.297742843627933,0.24864242970943454,5.94796085357666,2.1722891330719
21.894702911376953,-2.910694837570191,16.89047431945801,0.0813063234090805,6.066125392913819,2.1482126712799077
22.83598136901856,-3.2821137905120854,16.186532974243168,-0.049265965819358826,6.151857852935792,2.1066627502441406
23.882583618164062,-3.184236526489258,14.837559700012209,-0.220651775598526,6.120246887207031,2.0152137279510502
25.04697036743164,-2.793503761291504,12.662429809570312,-0.48383656144142156,5.985766410827637,1.8418284654617312
24.78495597839356,-2.1845281124114995,9.878055572509766,-0.8490718007087709,5.774779319763184,1.5566143989562988
24.048646926879886,-0.15263697504997253,6.853509426116944,-1.3367681503295898,5.463565349578858,1.1648674011230469
24.961318969726562,5.636321544647218,2.7956132888793945,-2.2563881874084473,5.063859939575195,0.8270196318626405
25.617080688476562,9.238964080810547,-2.534496784210205,-3.7445747852325444,4.606078147888184,0.8210526108741761
28.81067657470703,5.091806411743164,-10.495542526245117,-4.669061660766602,4.024583339691163,1.0310531854629519
33.51997375488281,-3.402700424194336,-19.538377761840824,-3.7874326705932617,3.2468245029449467,1.0359258651733398
32.97584533691406,-4.653159141540527,-24.191740036010746,-1.5624668598175049,1.8198041915893555,0.6324693560600282
21.168376922607422,-0.32577234506607056,-21.56679725646973,0.32971274852752686,-0.298892229795456,-0.09309414029121399
17.14524650573731,4.281105995178223,-13.125813484191896,0.9273805022239686,-2.0077996253967285,-0.9965547323226929
19.527469635009766,4.88654899597168,-2.921753406524658,0.46368420124053955,-2.759330034255982,-1.5580403804779053
10.98844623565674,-14.028104782104492,3.261122703552246,2.806638717651367,-4.716891288757324,-1.7856200933456423
-9.982006072998047,6.945107460021973,4.920663833618164,3.031540155410767,-4.48846435546875,-2.2609627246856694
7.979188919067383,9.6016321182251,18.485536575317386,0.707407295703888,-5.185302734375,-1.1883842945098877
11.969067573547365,-2.68149995803833,14.292280197143555,-0.052544936537742615,-5.743797779083253,-1.25191330909729
27.866470336914062,0.921505331993103,16.79949188232422,0.19012416899204257,-5.648534297943116,-1.1431820392608643
28.624120712280277,1.1049761772155762,17.9225025177002,0.06359340995550157,-4.626726150512695,-0.7605338692665101
21.17999076843262,-1.6311795711517334,15.185183525085451,0.32231119275093084,-3.865950107574463,-1.1208558082580566
19.175453186035156,-5.320104598999023,14.676272392272951,0.4158779978752136,-3.088335275650025,-0.9731370210647583
11.055714607238771,-2.9113821983337402,11.800761222839357,0.5546907186508179,-2.488698959350586,-0.796998679637909
13.214861869812013,-0.879766583442688,13.779008865356445,0.6677436828613281,-1.844224810600281,-0.8599250316619873
9.389750480651857,3.4301509857177734,10.787548065185547,0.7601408362388612,-0.94050133228302,-1.031644582748413
6.829442977905273,-4.36422061920166,8.882936477661133,0.8397998213768006,-0.7438833713531494,-0.8554347157478334
11.111319541931154,-0.28969421982765203,11.375259399414062,0.8046024441719056,-0.29027643799781805,-0.5861613750457764
7.144609928131104,0.14431925117969516,10.682884216308594,0.6479730606079102,0.0004687747277785093,-0.5098057985305786
5.681194782257081,-0.9774678945541382,9.97971820831299,0.478962242603302,0.09187596291303636,-0.44949051737785345
5.271047592163086,-0.620917797088623,10.019442558288576,0.3918306827545166,0.08973663300275804,-0.4226508140563965
5.02094602584839,-1.0390229225158691,9.953418731689453,0.35297077894210815,0.04956717789173126,-0.40831699967384344
5.245986461639405,-0.11611436307430267,9.788220405578615,0.2952211201190949,-0.010736437514424324,-0.3461721241474152
5.357820987701417,0.4262990057468415,9.792625427246094,0.1830407679080963,-0.07566712051630022,-0.21783028542995456
4.961145401000977,0.08979558944702148,9.922045707702638,0.07589872181415558,-0.1226324960589409,-0.11996842920780182
4.887328147888184,-0.36938709020614624,9.744060516357422,0.020351871848106384,-0.163723886013031,-0.07572633773088457
5.116850852966309,-0.05490103363990784,9.517557144165039,-0.03261518850922585,-0.1866791844367981,-0.030080934986472133
5.220672130584718,-0.5983739495277406,9.393790245056154,-0.09157019853591919,-0.17939318716526034,0.000637702934909612
4.883920192718507,-1.0487002134323122,9.275043487548828,-0.1108282059431076,-0.17959971725940707,0.012315796688199043
4.52583122253418,-1.4467595815658572,9.277900695800781,-0.10089469701051713,-0.21126420795917514,-0.011476466432213783
4.855639457702637,-1.7030986547470095,9.102859497070312,-0.07455675303936005,-0.25218251347541815,-0.05736856162548065
4.891626834869386,-2.0332841873168945,8.901421546936037,-0.02124911919236183,-0.2622669637203217,-0.10121298581361772
4.6936235427856445,-1.9496965408325195,8.945079803466797,0.04267024248838425,-0.28643974661827093,-0.1428849995136261
5.041452407836914,-1.413680672645569,9.034051895141602,0.08132466673851013,-0.3060784935951233,-0.17168448865413669
5.197635173797608,-1.0579813718795779,9.02707290649414,0.08927499502897264,-0.3093978762626648,-0.17043016850948337
5.182918071746827,-0.7877967953681947,9.106957435607912,0.07227916270494462,-0.3094276189804077,-0.16684231162071228
5.31248426437378,-0.8877373933792114,9.110528945922852,0.06669246405363084,-0.3079313635826111,-0.1683105379343033
5.103553295135499,-1.005331873893738,9.114962577819826,0.11943739652633667,-0.3089127540588379,-0.1750873774290085
5.165249824523926,-0.5023126602172852,9.154726028442383,0.13002249598503113,-0.30320718884468084,-0.16791445016860962
5.24971628189087,-0.39876493811607366,9.137554168701172,0.12346508353948595,-0.29620206356048584,-0.1504858136177063
5.119347095489503,-0.7062718868255615,9.046616554260256,0.11238469183444977,-0.3006983697414399,-0.13954782485961914
4.884766578674316,-1.1810319423675537,9.15523910522461,0.1482364535331726,-0.3176489472389221,-0.1500603407621384
5.211255073547363,-1.1849687099456787,9.146328926086428,0.21446754038333896,-0.34243685007095337,-0.16422058641910556
5.123987197875977,-0.941841721534729,9.183104515075685,0.31318026781082153,-0.38584318757057195,-0.14595948159694674
5.202488899230957,-0.7007077932357788,9.194602966308594,0.3618704676628113,-0.4478701055049897,-0.1330639123916626
5.5990800857543945,0.01776127517223358,9.141261100769045,0.24958187341690063,-0.49139320850372314,-0.1413068622350693
5.254168033599854,-0.7855177521705629,9.150095939636232,0.19094307720661166,-0.5384539365768433,-0.1473105996847153
5.4989333152771005,-0.4415668249130249,9.028435707092287,0.16353182494640353,-0.594003438949585,-0.1499011218547821
5.404844284057617,-0.532892405986786,9.025980949401857,0.12527665495872498,-0.6424883008003236,-0.1491726040840149
5.4845685958862305,-0.5813484191894531,8.907172203063967,0.10575240850448608,-0.691237211227417,-0.1458980888128281
4.880930423736573,-0.9335307478904725,9.13698482513428,0.1079978346824646,-0.7670825123786927,-0.17358240485191345
5.078693389892578,-0.9908369183540345,9.238556861877443,0.11209672689437866,-0.8853567242622377,-0.21167524158954623
4.899347782135011,-1.0427610874176025,9.30667018890381,0.11276530474424364,-1.0282702445983887,-0.26830092072486883
4.658284664154054,-1.4854137897491455,9.472272872924805,0.1311231702566147,-1.2125996351242068,-0.3593284487724304
5.206132888793945,-1.644974708557129,9.278188705444336,0.1645644158124924,-1.4102087020874023,-0.4615980684757233
5.887653827667237,-1.1893465518951416,9.067889213562013,0.16243326663970947,-1.5648590326309206,-0.5689130425453187
5.842825412750245,-0.8826346993446351,9.192903518676758,0.12935853004455566,-1.721842408180237,-0.6519856452941895
5.751311779022218,-0.8573970794677734,9.660951614379883,0.10253020375967027,-1.9241584539413454,-0.7309931516647339
6.085757732391358,-1.7915563583374023,9.806231498718263,0.08962375670671464,-2.135723114013672,-0.8859511017799379
6.9263653755188,-1.3432322740554812,9.516358375549318,0.081180140376091,-2.343189954757691,-1.0714873075485232
6.891031742095948,-0.4520572125911713,8.525424003601076,-0.017673570662736893,-2.5101506710052495,-1.2132551670074463
6.305843353271484,-0.6604793071746826,8.273685455322266,-0.1850605607032776,-2.6671948432922363,-1.3688298463821413
5.431989669799805,-1.1644093990325928,8.550711631774904,-0.23091551661491394,-2.9448878765106206,-1.498382329940796
6.213571071624757,-0.6148210167884828,9.661270141601562,-0.22131566703319552,-3.369797706604004,-1.6059939861297607
5.546356201171875,-1.1569703817367556,10.260711669921875,-0.2417205572128296,-3.947910070419312,-1.7569241523742676
5.518657684326172,-2.8885931968688965,11.101394653320312,-0.27381339669227606,-4.596021175384522,-2.0848731994628906
7.152928352355957,-3.254146814346314,11.666452407836914,-0.17481561005115512,-5.400053977966309,-2.6281363964080815
9.522435188293459,-2.30850100517273,14.287367820739748,-0.33181765675544744,-6.354454040527344,-3.206338405609131
11.785730361938477,-4.042981147766113,16.305622100830078,-0.6156542897224427,-7.10772705078125,-3.6239511966705327
16.266685485839844,-2.7033874988555913,17.483875274658203,-1.2665818929672243,-7.633987903594972,-3.70432710647583
25.83974647521973,-5.542384147644043,20.755086898803714,-1.7964787483215332,-7.286991596221925,-4.023702621459961
26.829462051391605,-3.987142562866211,17.571886062622074,-1.7976821660995486,-6.518393516540527,-4.614873886108398
18.50890159606934,-4.083226680755616,13.848030090332031,-1.4882783889770508,-5.705381870269776,-5.2384443283081055
14.16926670074463,3.619879484176636,17.415166854858402,-2.186044692993164,-4.773497581481934,-5.303131580352784
10.311856269836428,4.771574497222901,20.494522094726562,-4.357836246490479,-3.4663596153259277,-4.978470325469972
3.2991132736206055,-5.6184844970703125,11.994274139404297,-5.993502140045167,-2.8687100410461426,-4.792217254638672
8.822360038757326,-12.863037109375,13.913885116577148,-5.626320362091065,-2.2031798362731934,-3.993621110916138
-0.10742983222007751,-11.497385025024414,9.452629089355469,-5.233253002166749,-1.6244407892227175,-2.9590673446655273
0.6489351391792298,-8.54934310913086,9.468988418579102,-5.154630661010742,-1.3481658697128298,-1.741966962814331
-0.3490825295448303,-7.447752475738526,10.084422111511232,-5.366889953613281,-0.8536216616630555,-0.5233765244483949
-1.8908164501190186,-5.276956081390382,10.93697738647461,-5.309828758239746,-0.4251568019390107,0.4624791145324707
-2.868490219116211,-1.2705395221710205,11.907550811767578,-5.232329368591309,-0.10965920984745026,1.165236830711365
-2.9833569526672363,3.129252195358277,13.333473205566406,-5.380915164947511,0.18323123455047607,1.5595127344131472
-2.482715129852295,6.098585605621339,14.46881103515625,-5.665447235107422,0.5180875658988954,1.656901001930237
-2.20045804977417,8.356362342834474,14.85110378265381,-5.940482616424561,0.8883732557296753,1.5403491258621218
-2.5674507617950444,11.324982643127443,14.781407356262209,-6.235238552093507,1.2186220884323122,1.3869786262512207
-3.392774343490601,12.52389907836914,14.740739822387695,-6.522645950317383,1.4429720640182497,1.218770980834961
-3.1630928516387944,13.445815086364748,15.235045433044435,-6.647776126861573,1.5952363014221191,1.0068178176879883
-2.7955322265625,14.549674034118654,15.855975151062013,-6.674158096313477,1.7562152147293093,0.8010765314102173
-2.133127927780152,15.031543731689453,16.64712905883789,-6.580111980438233,1.9032684564590456,0.5687556266784668
-1.2874988317489626,14.922197341918945,17.26980018615723,-6.352216243743897,2.0625553131103516,0.246261402964592
-0.3122832179069519,15.255720138549805,17.192729949951172,-6.071906089782715,2.251350641250611,-0.19099350273609164
0.25807943940162664,15.93117427825928,16.511842727661136,-5.901662349700929,2.4321956634521484,-0.6355645060539247
0.16383208334445956,15.57363796234131,15.984346389770508,-5.797750473022461,2.565735340118408,-0.9528382420539857
0.7634661793708802,14.154613494873047,16.470672607421875,-5.549782276153565,2.6456069946289062,-1.1580172777175906
1.7352458238601687,13.019399642944336,17.297653198242188,-5.045603275299073,2.799196720123291,-1.2810838222503662
2.263400077819824,12.933952331542969,17.57144355773926,-4.606746196746827,3.031735897064209,-1.30107057094574
2.5980794429779057,12.932648658752443,17.283424377441406,-4.27167558670044,3.2707068920135502,-1.297696590423584
3.011059999465943,12.147070884704592,16.6821460723877,-4.058595657348633,3.4734737873077397,-1.3113961219787598
3.4063751697540288,10.910760879516602,15.83932399749756,-3.8399271965026855,3.5988323688507085,-1.360657572746277
3.7292644977569585,9.739604949951172,14.974124908447266,-3.645121335983277,3.623539924621582,-1.3956638574600222
4.396547317504883,8.38908100128174,14.339245796203615,-3.4962227344512944,3.5656783580780034,-1.3535447120666504
5.290204524993897,6.798084259033203,13.790216445922852,-3.355158090591431,3.4678592681884766,-1.2015062570571902
5.792912006378175,5.0748796463012695,12.619279861450195,-3.226025104522705,3.3375709056854252,-0.9371905922889711
6.920783996582031,2.1656186580657963,11.955194473266602,-3.0165038108825684,3.116899728775025,-0.6163330078125
9.235857009887695,0.4834359288215637,12.888412475585938,-2.627172231674195,2.892880201339722,-0.2812361717224121
11.015954971313477,-0.05494105815887451,13.844216346740724,-2.182367086410523,2.8652310371398926,0.05302283540368081
12.162759780883789,1.041164040565491,14.121152877807617,-1.8590551614761355,2.9983081817626953,0.3810510039329529
12.645485877990724,1.1330298185348513,13.120031356811523,-1.6848262548446657,3.198302745819092,0.6744126677513124
11.509651184082031,0.4385278522968293,11.130020141601562,-1.4001466035842898,3.3388183116912846,0.8590697050094604
10.244237899780273,-0.13494116067886353,8.907342910766602,-0.9900415539741517,3.260377883911133,0.9280632138252259
9.355960845947266,-0.68463134765625,7.016361236572266,-0.5453069806098939,2.9944400787353516,0.9458200931549072
9.010937690734865,-0.9417744874954224,5.671968460083008,-0.1593303829431534,2.63850736618042,0.9812714457511903
9.140480041503906,-0.6541932821273804,4.882181167602539,0.06307543069124223,2.2540023326873784,1.0706360340118408
9.515799522399904,-0.4715192914009094,4.306003093719483,0.12613946199417114,1.8982437849044802,1.2038240432739258
9.655948638916016,-0.050906714051961906,3.981244325637818,0.09285466372966766,1.5975340604782107,1.3254548311233523
9.601805686950685,0.43080204725265503,3.6944150924682617,0.01974695920944214,1.312979578971863,1.4108147621154785
9.506645202636719,1.0899169445037842,3.6234145164489746,-0.017552470788359645,1.061050057411194,1.4446663856506348
9.645674705505373,1.8090085983276367,3.8544361591339116,0.006168718449771404,0.8527147173881532,1.4442448616027832
9.562924385070803,2.8782866001129155,3.823532342910767,0.09922203421592712,0.6782683730125428,1.4124170541763308
9.949538230895998,3.4711706638336186,4.041824817657472,0.2296476662158966,0.47847542166709905,1.373105525970459
11.138702392578125,3.221653938293457,4.547986507415772,0.46853831410408026,0.2838094532489777,1.2966904640197754
12.104682922363281,3.491654396057129,4.573822021484375,0.7877489328384399,0.12811176478862765,1.162571907043457
13.098146438598633,-1.1744700670242312,-0.5830833315849305,1.990199327468872,-0.6450650095939637,0.7327407002449037
12.886388778686523,8.52801513671875,-10.949329376220703,3.0097348690032963,-2.0281434059143066,-0.5818676352500917
13.981773376464844,17.180997848510746,-5.351025104522706,2.3220350742340092,-3.2340767383575444,-1.3704652786254883
12.040358543395998,12.85713863372803,12.52267074584961,1.1182219982147217,-3.2788980007171635,-1.1710190773010254
16.603677749633793,9.726600646972656,22.060131072998047,0.2805675268173218,-2.406901597976685,-1.1511186361312868
6.7080278396606445,-0.5523762702941895,15.029786109924318,-0.14963726699352267,-1.9402120113372803,-1.0964683294296267
5.606307029724121,-9.253232955932617,11.407826423645021,-0.1641373783349991,-2.3283760547637944,-0.7155733108520508
12.652233123779297,-12.797544479370117,14.167451858520508,0.01221177075058222,-2.250460147857666,-0.2469962388277054
11.83977794647217,-10.381940841674805,14.157124519348146,0.1728249937295914,-1.6979103088378906,0.10054336488246918
8.053647041320803,-1.0681018829345703,10.544396400451662,0.1363333761692047,-1.2104941606521609,0.23163855075836182
6.374128818511964,5.283758163452148,7.5699005126953125,-0.08514285087585449,-0.9251295328140259,0.2854565083980561
8.327954292297365,4.151641845703125,9.738079071044922,-0.17855350673198703,-0.7330920696258545,-0.05735751613974572
9.817405700683594,-2.6767492294311523,11.565996170043945,-0.08735486119985582,-0.3387349247932434,-0.29584115743637085
7.787862777709961,-5.143051624298097,10.520954132080078,0.019835261628031734,-0.04423399269580841,-0.1161845549941063
5.087810516357422,-0.39989709854125977,9.864250183105469,0.023492254316806793,0.01342003233730793,0.04114839807152749
2.953557014465332,1.7902657985687256,9.364981651306154,-0.025545988231897354,-0.03681739047169686,-0.07992513477802277
3.092683553695679,-1.6456060409545898,10.048789978027344,-0.0372786931693554,-0.2163865566253662,-0.23508891463279724
4.476982116699219,-1.7280873060226443,10.662764549255373,-0.06224767863750458,-0.38332793116569525,-0.2761564254760742
6.265151023864746,-0.005803629755973816,10.294769287109375,-0.08961053192615509,-0.38373076915740967,-0.2542130053043366
5.534907817840577,-1.4493670463562012,9.369139671325685,-0.1111680492758751,-0.3490692973136902,-0.18765275180339816
4.47758436203003,-2.53572940826416,8.692132949829102,-0.03895119205117226,-0.3976043462753296,-0.15804553031921387
3.999032974243164,-2.390466451644898,8.723154067993164,0.10023042559623718,-0.48910954594612127,-0.21332108974456787
5.519296646118164,-1.9360233545303347,10.468193054199219,0.13095355033874512,-0.526972770690918,-0.2441584020853043
6.404698848724366,-0.5842372179031372,10.3035364151001,0.028843902051448822,-0.3852665722370148,-0.15556105971336365
6.0021710395813,-1.074127793312073,9.737854957580568,-0.07829655706882477,-0.26629522442817694,-0.0778724029660225
5.657907962799073,-1.4665223360061648,9.376557350158693,-0.10410423576831818,-0.176147535443306,-0.025429468601942062
4.965590953826905,-1.867538094520569,9.248144149780273,-0.08683016896247864,-0.13803300261497498,-0.02631667070090771
4.963877201080323,-1.7212302684783936,9.254142761230469,-0.06638576090335846,-0.134596660733223,-0.03875860571861267
4.964801311492921,-1.5974304676055908,9.134025573730469,-0.049089670181274414,-0.13281263411045077,-0.044569235295057304
4.583264827728272,-1.6224242448806765,8.958505630493164,-0.03190118074417114,-0.15079002082347873,-0.0442744642496109
4.3854336738586435,-1.7841894626617432,8.986204147338867,-0.0077726515009999275,-0.19778284430503845,-0.06788336485624315
4.497450351715089,-1.8711467981338503,8.897562980651857,0.036754209548234947,-0.2545485496520996,-0.09625189751386644
4.718576908111573,-1.9221969842910769,9.01047134399414,0.07630016654729845,-0.28950679302215576,-0.1239374577999115
5.398669242858887,-1.5889472961425781,9.36915683746338,0.06503722816705705,-0.2798875570297241,-0.1257399767637253
4.9611268043518075,-1.7367728948593142,8.77607822418213,0.06176170334219933,-0.2438297122716904,-0.12002904713153839
4.65047311782837,-2.3092517852783203,8.47569465637207,0.09650397300720215,-0.24055521190166476,-0.1444149613380432
4.5219435691833505,-2.1650772094726562,8.430897712707521,0.1777533143758774,-0.2555655837059021,-0.20571574568748474
4.320611953735352,-2.75167179107666,8.273043632507326,0.275498241186142,-0.27128082513809204,-0.296666830778122
4.073152542114258,-3.2547969818115234,8.143057823181154,0.41728609800338745,-0.30035269260406494,-0.42783442139625555
4.405486583709718,-2.522164106369019,8.58167839050293,0.5555629134178163,-0.37656646966934204,-0.5036148428916932
6.240185737609863,0.5589228868484497,9.983495712280273,0.48463055491447454,-0.40947186946868896,-0.40424853563308716
5.163306713104249,0.0994606763124466,9.776196479797365,0.3554155230522156,-0.3405738174915314,-0.361656129360199
4.202943801879883,-1.6839190721511843,9.660309791564943,0.2766223251819611,-0.4164284765720368,-0.3892994523048401
5.315958023071289,-1.039806604385376,9.695725440979006,0.2600731551647187,-0.4619494080543518,-0.43577572703361517
5.922291278839112,0.10215045511722565,9.659465789794922,0.2067365050315857,-0.48960635066032415,-0.3971636593341828
5.487835884094238,0.19019964337348938,9.367389678955078,0.12508423626422885,-0.5353741645812988,-0.32327106595039373
5.369239330291749,0.00544506311416626,9.395924568176271,0.04138607531785965,-0.6256387233734131,-0.2547683417797089
4.864504814147949,-0.8985069394111634,9.416008949279787,0.01694186963140965,-0.7390470504760742,-0.25452074408531195
4.4270830154418945,-1.025261402130127,9.653773307800295,0.04227914288640023,-0.9087784290313721,-0.2553359866142273
4.519268035888672,-0.5738688707351685,9.749284744262695,0.056012727320194244,-1.1559575796127322,-0.23777979612350464
4.610679626464844,-0.42899781465530396,9.884396553039553,0.019273923709988598,-1.4312785863876345,-0.18111589550971985
4.555746078491211,0.011509448289871216,10.043759346008303,-0.08311727643013,-1.7215131521224978,-0.12790051102638245
4.441722869873047,-0.2844650149345398,10.111024856567383,-0.15586331486701965,-2.0497720241546635,-0.0892167314887047
4.917230606079102,-0.23040328919887546,10.154214859008789,-0.214420422911644,-2.423574924468994,-0.08149095624685289
4.944602489471436,-0.3715454339981079,10.118906974792482,-0.24989289045333862,-2.7772936820983887,-0.09015264362096788
4.825456142425538,-0.15925683081150058,10.286309242248537,-0.2861759066581726,-3.1639707088470463,-0.12091180682182312
4.724596977233887,-0.5059362649917603,10.324582099914553,-0.31233298778533936,-3.695771932601929,-0.12547387182712558
3.6400034427642827,-1.0656191110610964,10.314355850219727,-0.3317132592201233,-4.299883365631104,-0.17583680152893066
2.854566335678101,-3.0463116168975835,9.408058166503906,-0.21221697330474854,-5.162501335144043,-0.3995336592197419
2.450807571411133,-4.421939373016358,9.279655456542969,0.036987867206335075,-6.30145263671875,-0.7349631190299989
3.5701870918273926,-4.329971790313722,9.752957344055178,0.29335841536521917,-7.55593204498291,-1.0095033645629883
3.5199522972106934,-3.144578456878662,9.821428298950195,0.5864235162734985,-9.071900367736818,-1.2757525444030762
4.566881656646729,-2.3642959594726562,10.566747665405273,0.6815297007560731,-10.561259269714357,-1.6060800552368164
10.540028572082521,-2.0797212123870854,11.907042503356935,0.32681980729103094,-11.80859375,-1.706668257713318
18.127887725830078,-2.2182955741882324,12.850466728210451,-0.027299389243125916,-12.678626060485842,-1.752984166145325
27.24813270568848,-1.7588117122650146,14.001650810241701,-0.19335654377937317,-12.550326347351076,-1.9028754234313965
39.68583297729493,-2.3985216617584233,12.000078201293945,-0.3795208632946015,-11.32045078277588,-1.7206621170043945
38.150665283203125,-0.44037532806396484,13.091328620910646,-1.1558294296264648,-10.338736534118654,-1.0635840892791748
29.453479766845703,-7.852307796478272,14.73686408996582,-1.8357225656509402,-9.544713973999023,-1.1401615142822266
29.74136543273926,-10.910101890563967,20.338014602661136,-1.5141860246658327,-8.845870971679688,-1.6473673582077029
32.11455535888672,-9.332884788513185,26.436868667602543,-1.1500035524368288,-7.224640369415284,-1.8598847389221191
25.40575218200684,-10.797248840332031,23.879074096679688,-0.4740601181983948,-4.213801860809327,-1.5526351928710938
17.529745101928714,-10.456768035888672,23.798248291015625,0.248113289475441,-1.9798657894134521,-1.2358965873718262
42.14033508300781,-17.635730743408203,36.28110122680665,1.555274486541748,1.4248815774917605,-1.4337725639343262
8.274224281311037,-9.473921775817873,23.067092895507812,2.1457114219665527,4.0592193603515625,-1.2705096006393435
3.4441275596618652,-5.988210201263429,16.040061950683594,2.5658483505249023,4.934553623199464,-1.4812371730804443
0.10117735713720323,-1.5999083518981934,11.01536273956299,2.178003072738648,5.277440071105957,-1.4512760639190674
-3.523275375366211,-0.017924681305885315,7.322301864624023,1.1584339141845703,5.159555912017823,-1.2309627532958984
-4.3048720359802255,-0.1271165907382965,5.773532390594483,0.11466635018587114,4.990867137908936,-0.944231390953064
-2.8561007976531987,-0.2646419703960419,5.806357383728027,-0.7755944728851318,4.866382122039796,-0.572262167930603
-0.6445826292037964,-0.7549600601196289,6.990152359008789,-1.544412612915039,4.934542179107667,-0.10016784816980363
1.814061999320984,-2.0873973369598393,8.329243659973146,-1.9408824443817139,5.280547618865968,0.381051242351532
3.349623680114746,-3.749052047729492,8.942209243774414,-1.8459655046463015,5.798360347747804,0.775337815284729
4.060694217681886,-4.193520545959473,8.844697952270508,-1.3587292432785036,6.271388053894043,1.0603593587875368
4.288677215576172,-2.8230133056640625,8.455077171325685,-0.8296203017234803,6.612842559814453,1.249530553817749
5.032480716705323,-0.3400375247001648,8.04493522644043,-0.56102454662323,6.850517749786378,1.490393877029419
5.491131782531738,1.485093593597412,7.70457649230957,-0.5993050932884217,7.036945819854737,1.7389521598815918
5.759589195251465,2.170423984527588,7.468329429626465,-0.765915334224701,7.130913734436035,1.9545069932937624
6.452613830566406,2.0231230258941655,7.682889461517335,-0.863749623298645,7.1233887672424325,2.0679185390472417
7.386630535125733,1.5041098594665527,8.440859794616701,-0.8039404153823853,7.088879108428956,2.1003785133361816
8.859606742858888,1.474199414253235,9.491241455078125,-0.6023203730583192,7.084488391876222,2.039198398590088
10.549036979675295,1.8011418581008913,10.695779800415039,-0.404318630695343,7.147480487823487,1.9461584091186523
11.715695381164553,2.12823486328125,11.667335510253906,-0.29833552241325384,7.264936447143555,1.8476438522338867
12.550729751586914,2.2785840034484863,12.317756652832031,-0.23429377377033236,7.351494789123535,1.7935711145401003
13.207443237304688,1.727638363838196,12.76872444152832,-0.17711420357227328,7.359892368316651,1.7711758613586426
14.251266479492188,0.894438922405243,13.384054183959961,-0.04762672260403634,7.264056205749512,1.755697846412659
16.09956550598145,0.22832897305488586,14.559099197387695,0.15200945734977722,7.110370159149171,1.774323105812073
18.42139434814453,-0.16165098547935486,15.80409049987793,0.3462383449077607,6.979243278503418,1.8399320840835574
21.162504196166996,-0.8530073761940004,17.1042652130127,0.5281615853309632,6.884317874908448,1.9554979801177979
24.519384384155277,-2.4394156932830815,18.056133270263672,0.8140822649002075,6.782827854156495,2.0917038917541504
28.003238677978516,-3.6146950721740723,17.928670883178714,1.2484068870544434,6.650738239288331,2.1683113574981694
31.37703132629395,-3.9048919677734375,16.05888938903809,1.5924261808395388,6.48625373840332,2.0663521289825444
34.03318405151368,-5.616054534912109,12.191271781921388,1.7130334377288818,6.270756721496582,1.7403677701950075
34.88947296142578,-5.301286697387695,6.464465618133546,1.668213725090027,5.96507453918457,1.1521862745285036
37.258583068847656,3.186884880065918,-3.6282989978790288,0.7552226781845093,5.558570384979249,0.6984750628471376
39.39067840576172,12.321962356567383,-14.640872001647951,-1.7646842002868652,4.98792314529419,0.5304762125015259
43.48327255249024,8.05117416381836,-27.642889022827152,-4.289958953857422,4.339694976806641,1.1761070489883425
37.42997741699219,-2.8091111183166504,-34.67486190795899,-4.130387783050538,2.7688441276550293,1.8462218046188357
24.401329040527344,-7.3611464500427255,-30.376819610595703,-1.7648152112960818,-0.08020886778831482,1.5387029647827148
18.275133132934574,-3.394996881484986,-19.238758087158203,0.7940170168876649,-2.640261173248291,0.29584440588951116
24.798328399658203,2.639932632446289,-5.478441715240479,1.7242546081542969,-3.8596138954162598,-0.9270166754722596
8.826749801635742,11.033668518066406,11.948129653930664,0.8269989490509033,-4.621286869049073,-1.2953743934631348
0.2353721559047699,0.775593936443329,10.55420780181885,-0.4521546959877014,-4.015612125396729,-1.0052133798599245
7.277863025665284,-2.8736705780029297,20.078615188598636,-1.2613304853439333,-4.853935241699219,-1.631587862968445
16.253253936767578,-15.610841751098633,14.833102226257326,-1.3967456817626953,-4.857665061950684,-1.5769103765487673
27.642269134521484,-9.34246826171875,15.032082557678224,-0.49296003580093384,-5.002960681915284,-0.4364948868751526
27.689447402954105,-4.143016815185547,20.236209869384766,-0.5198938846588135,-4.227816104888917,0.5816820263862611
23.481426239013672,4.153340816497804,19.46017646789551,-0.09346678107976915,-3.37460994720459,-0.3198635280132294
15.38391971588135,5.657981872558594,15.109755516052248,-0.2724633812904358,-2.4859933853149414,-0.6348840594291688
11.484891891479492,-0.07697919011116028,12.26394271850586,-0.2969627678394318,-1.9409589767456055,-0.741666615009308
9.822375297546388,-5.423765182495117,10.582237243652344,-0.0022602837998420004,-1.542609453201294,-0.7908567190170288
8.877181053161623,-7.006332874298097,8.98532485961914,0.2666594982147217,-1.1719676256179812,-0.7457156181335449
9.483246803283693,-2.907306671142578,10.786977767944336,0.4003502130508423,-0.9077466726303101,-0.5811056494712831
7.91298770904541,-0.2926127314567566,11.7046594619751,0.4510394334793091,-0.561478078365326,-0.46699267625808716
6.14289426803589,-1.7163934707641602,10.237545013427734,0.41752171516418457,-0.37966027855873113,-0.36291846632957464
5.302088737487793,-2.5656483173370366,9.451395034790039,0.3072502613067627,-0.28572300076484686,-0.2650302052497864
4.23689079284668,-1.3457069396972656,9.90006732940674,0.23100414872169495,-0.30052632093429565,-0.22785340249538424
4.732020378112793,-1.8617619276046755,10.17271614074707,0.2332551330327988,-0.32746344804763794,-0.23285420238971713
4.5125579833984375,-1.70400607585907,9.598132133483888,0.2354455292224884,-0.3796007335186005,-0.20657359063625338
4.751152038574219,-1.0252441167831423,9.759608268737795,0.22919073700904846,-0.4112988412380219,-0.18125173449516296
4.81890869140625,-0.29243701696395874,10.40666389465332,0.22559429705142978,-0.41814455389976507,-0.16408908367156982
5.454839229583741,0.050741732120513916,10.736134529113771,0.08398351073265076,-0.3928471505641938,-0.07149755954742432
5.637329578399659,-0.11439736187458038,10.332460403442383,-0.10558760166168213,-0.34663251042366033,-0.00018593297863844785
5.393387794494629,-0.9698233008384706,10.078892707824709,-0.2454994767904282,-0.3299071788787842,0.029480455443263057
5.564651966094972,-0.5248376131057739,9.945398330688477,-0.4082994163036347,-0.2887038886547089,0.0716886967420578
4.785299301147461,-1.062216401100159,9.429203033447266,-0.4922975599765778,-0.24881699681282043,0.09926076978445054
4.657343864440918,-1.889599919319153,9.284952163696289,-0.4748776853084565,-0.26881492137908936,0.10727432370185852
4.461159229278565,-1.7887290716171267,9.145469665527344,-0.40099745988845825,-0.2865981757640839,0.04812117666006088
4.2862138748168945,-1.7839020490646365,9.10682010650635,-0.3287050724029541,-0.34128278493881226,8.664979395689444e-05
4.569897174835206,-1.8122466802597048,8.827404975891115,-0.2823458015918732,-0.3882768750190735,-0.050683062523603446
5.060292720794679,-1.931272029876709,8.6063928604126,-0.2952773869037629,-0.38334357738494873,-0.061464279890060425
4.405667781829835,-2.139341354370117,8.367421150207521,-0.2881182730197907,-0.3947029113769531,-0.059959102421998985
4.911167144775391,-1.9395594596862793,8.849795341491701,-0.30292755365371704,-0.421239972114563,-0.08662641793489458
5.110820293426515,-1.717671036720276,8.659314155578615,-0.3145434856414795,-0.38952466845512396,-0.11992819607257843
4.6983137130737305,-2.3591222763061523,8.393702507019045,-0.28285655379295355,-0.36955755949020386,-0.1499759554862976
4.734512805938722,-2.6324243545532227,8.658967018127443,-0.25682750344276434,-0.3725041151046753,-0.24129466712474826
4.632294178009034,-2.4896106719970703,8.539037704467773,-0.21147382259368896,-0.37900400161743164,-0.3386311829090119
4.817887306213379,-2.466715574264527,8.392909049987795,-0.15562610328197482,-0.37842655181884766,-0.4039855301380158
4.806085586547852,-2.4575712680816655,8.346691131591797,-0.10045753419399261,-0.399513453245163,-0.4512584507465363
4.962706565856934,-2.6427865028381348,8.14015865325928,-0.015639895573258403,-0.43565863370895386,-0.4740793406963349
5.179311752319336,-2.0141818523406987,8.433881759643555,0.052155535668134696,-0.47148159146308904,-0.44645029306411743
5.078518867492676,-1.9606972932815554,8.658934593200685,0.11974969506263733,-0.5121816992759706,-0.4537241458892822
5.226380348205566,-2.152910947799683,8.846175193786623,0.17570096254348755,-0.5526371598243714,-0.4657650291919709
5.048433303833008,-1.2643249034881592,9.301959991455078,0.182130441069603,-0.6192412376403809,-0.43157646059989935
5.173216342926026,-0.578295648097992,9.560359954833984,0.166263610124588,-0.746936559677124,-0.3789969980716706
5.023529529571534,-1.1369310617446902,9.650096893310547,0.11198440939188005,-0.9470714330673218,-0.3211136162281037
4.973013877868652,-0.9792121052742006,10.061093330383303,0.04188871383666992,-1.1710571050643923,-0.2732124030590058
4.558229446411133,-0.8938410878181459,9.994111061096193,0.02823541685938835,-1.4412962198257449,-0.27491122484207153
5.01564645767212,-0.4751874804496765,10.274599075317383,-0.01692222617566586,-1.756078600883484,-0.26069897413253784
4.691144466400147,-0.2669042646884919,10.41956424713135,-0.09266126900911333,-2.140810966491699,-0.17662353813648227
4.676194667816163,-0.6004241704940796,10.802032470703125,-0.18057787418365479,-2.63801121711731,-0.08255117386579515
4.759269237518311,-0.291165441274643,11.033648490905763,-0.2730046212673188,-3.177748680114746,-0.00011522323620738463
5.042879104614258,-0.690828800201416,10.940175056457521,-0.43145290017127996,-3.784615278244019,0.017170242965221405
3.8027825355529785,-2.492443561553955,10.959615707397461,-0.45826107263565063,-4.57408094406128,-0.02939135581254959
1.399896025657654,-3.9293460845947266,10.743267059326172,-0.2921772599220276,-5.646410465240479,-0.3004963696002961
1.1487555503845215,-4.427828788757324,10.388439178466797,-0.11390973627567291,-6.956224918365479,-0.6816308498382568
2.6272919178009038,-3.1036834716796875,9.79373073577881,-0.0076104700565338135,-8.503419876098633,-1.0427490472793581
3.397966623306275,-2.9713869094848633,10.012328147888185,-0.07440299540758134,-10.125530242919922,-1.2871073484420779
6.097087383270265,-2.6768784523010254,10.683235168457031,-0.11377338320016862,-11.611194610595703,-1.5376474857330322
15.097321510314943,-3.9388997554779057,13.412482261657717,-0.4196137487888337,-12.746715545654297,-1.6742666959762575
22.029916763305668,-5.481555938720703,15.477842330932617,-0.45205566287040716,-12.89977550506592,-1.9084491729736328
35.91376495361328,-4.595588207244874,13.4273157119751,-0.3458413183689118,-12.062437057495117,-2.2428753376007085
43.74076843261719,-4.645119667053223,14.994377136230469,-1.0486086606979372,-10.848505020141602,-1.8590900897979736
33.92052841186524,-3.9888010025024414,14.792141914367678,-1.8636962175369265,-9.619586944580078,-1.4463924169540407
26.855979919433594,-9.776191711425781,17.34389877319336,-1.9136463403701784,-8.6537561416626,-1.8978772163391113
24.619403839111328,-12.122428894042969,20.623119354248047,-1.1035503149032595,-7.676662445068359,-2.5899822711944585
16.680538177490234,-10.69161891937256,20.24612808227539,-0.28765890002250677,-6.5473527908325195,-2.9986186027526855
3.7846498489379883,-3.7136466503143315,12.12453365325928,-0.00869210809469223,-6.130828380584718,-2.838703155517578
47.624542236328125,-9.452272415161133,29.52804946899414,0.6771071553230287,-4.627104282379151,-3.6172943115234375
21.60936546325684,-5.053166389465332,31.515863418579105,0.639514684677124,-1.0648182630538943,-3.082918643951416
14.806020736694336,-7.009610176086426,25.72994613647461,0.7882699370384217,1.656473159790039,-2.6628875732421875
12.680474281311037,-5.979239940643311,21.285745620727543,0.7497559785842896,3.964211702346802,-2.0621089935302734
7.072396755218507,-5.39395809173584,15.362231254577638,0.6153410077095033,5.38615369796753,-1.682744026184082
3.4379479885101323,-4.871543407440186,11.194066047668459,0.4466824531555176,6.228069782257081,-1.3400280475616455
1.3266680240631104,-4.448778629302979,7.630461692810059,0.29855877161026,6.493296146392823,-1.036697030067444
-1.057871460914612,-4.136020183563233,5.139233112335206,0.0403103493154049,6.428099632263184,-0.6828157305717469
-1.439002275466919,-3.6469862461090092,4.404082775115968,-0.2577928006649018,6.217907428741456,-0.3420426845550537
0.5238394737243652,-3.2268786430358887,4.754324913024902,-0.514891803264618,6.08050537109375,-0.004775166977196933
2.8342173099517827,-2.965716123580933,5.738818168640137,-0.8204737901687622,6.131549358367921,0.37382802367210394
3.982923269271851,-3.6972682476043706,6.370542526245117,-1.0466071367263796,6.364659309387207,0.7325957417488099
5.347669124603272,-4.307006359100343,6.870878219604492,-1.0445165634155273,6.625049591064453,1.068535923957825
6.494852066040039,-4.32911252975464,7.212299346923828,-0.8877167105674745,6.895627021789551,1.3564635515213015
7.539891242980957,-3.6201162338256836,7.409939765930176,-0.724062442779541,7.1359925270080575,1.6141232252120974
8.660873413085938,-2.4809160232543945,7.514377117156983,-0.665985405445099,7.339996337890625,1.8534444570541384
9.483121871948242,-1.8622832298278809,7.471396446228027,-0.7444688677787782,7.540452480316163,2.0990023612976074
9.973339080810547,-2.28466796875,7.470607757568359,-0.8074894547462464,7.656027793884277,2.3182370662689213
11.212657928466797,-2.5872242450714116,7.911990165710449,-0.7590637803077699,7.72496223449707,2.534236431121826
12.44777584075928,-2.288772821426392,8.000072479248047,-0.5975442528724672,7.805324554443359,2.787991285324097
12.624776840209961,-0.9823394417762757,8.172386169433594,-0.4801020622253418,7.782885551452637,3.0251953601837163
13.375222206115724,-0.00361613929271698,8.661815643310547,-0.5406547784805298,7.643661975860597,3.207170009613037
14.629849433898928,-0.1280764937400818,9.426401138305664,-0.6171438694000244,7.473562717437745,3.3398206233978276
15.818827629089357,-1.1519981622695925,10.690885543823242,-0.5276658535003662,7.3003506660461435,3.3608455657958984
17.36159896850586,-2.1345348358154297,12.37957763671875,-0.2330183982849121,7.129642486572266,3.2580807209014897
18.984197616577152,-3.034411907196045,14.070743560791016,0.19524030387401584,7.003684997558594,3.052843809127808
21.02047920227051,-3.5526657104492188,15.461871147155763,0.655866265296936,6.919211864471436,2.7967202663421635
22.89150428771973,-2.9928491115570073,16.501527786254886,0.9870421886444092,6.812873363494874,2.540925979614258
24.77054023742676,-1.1685099601745605,17.09864044189453,0.9806846976280214,6.6802077293396005,2.3021745681762695
27.354412078857422,0.12888145446777344,17.028890609741214,0.5485361218452455,6.569493293762207,2.0437829494476323
29.84534454345703,-0.4359056353569031,15.199604988098146,-0.09030285477638245,6.521201610565186,1.6943751573562624
31.665538787841797,-1.7381162643432617,11.085163116455078,-0.6512069106101991,6.480412483215332,1.1984769105911257
32.13255310058594,-0.49854576587677,4.5411176681518555,-1.1679306030273438,6.373836517333984,0.622208058834076
32.34847640991212,5.512388706207276,-3.4480593204498295,-1.9999477863311768,5.94460153579712,0.14326626062393188
36.537609100341804,10.104285240173342,-14.506847381591797,-3.5036749839782715,5.329289913177491,0.12780584394931796
38.9404640197754,2.5782456398010254,-27.20976829528809,-4.00769853591919,4.34097957611084,0.4413844048976899
34.29289627075196,-2.9023871421813965,-32.998252868652344,-2.5875217914581303,2.134775876998902,0.30797284841537476
21.980714797973636,-2.5323901176452637,-26.59765434265137,-0.4864418208599091,-0.8170791864395142,-0.41832509636878973
22.301132202148438,1.8954172134399414,-13.151561737060547,0.6567259430885316,-2.799466133117676,-1.3953065872192383
28.100452423095703,3.5032355785369877,0.2021692395210266,0.5112784504890443,-3.2760872840881348,-1.934725880622864
8.666773796081545,-5.78962516784668,15.40334987640381,0.6575827002525331,-2.8918111324310307,-1.6816627979278564
7.4485182762146005,-14.781129837036133,9.822868347167969,4.202509880065918,-4.195102214813233,-1.7244281768798828
-13.226244926452638,10.242443084716797,12.580839157104492,2.416454076766968,-4.538753509521484,-1.6795017719268799
0.41559112071990967,2.5240647792816167,15.143047332763672,0.5841079354286195,-5.667398452758789,-1.1935812234878542
26.566059112548828,2.7667741775512695,14.575864791870117,0.2631037533283234,-6.445683956146241,-1.111959457397461
38.87351608276368,6.304568290710449,23.256671905517578,0.035190064460039146,-5.165338516235352,-0.27223613858222967
27.518487930297855,2.871800422668457,20.33378410339356,0.07084336876869202,-3.9325144290924077,-0.6316623091697694
18.136514663696293,-0.7122461795806885,16.51944351196289,0.23614907264709473,-3.2291548252105717,-0.9422338008880615
11.592948913574219,-2.1464545726776127,12.59451198577881,0.15505006909370422,-2.6539463996887207,-0.79644912481308
9.239212036132812,0.8447517156600952,10.647113800048828,0.2142200469970703,-2.310460805892945,-0.6644384860992432
11.600505828857422,-0.9099587202072144,11.744091987609865,0.4129512012004853,-1.7802369594573975,-1.0715358257293701
11.202046394348146,-5.379180431365968,10.83060932159424,0.6220681667327881,-1.1287881135940554,-0.9832879304885864
8.05267333984375,-4.582779884338379,9.810095787048342,0.6986185312271118,-0.8478025197982788,-0.5840147137641908
6.9296722412109375,2.2206311225891113,11.61733913421631,0.487768292427063,-0.6515410542488099,-0.3720892071723938
6.549517154693604,-0.19479867815971375,10.529280662536623,0.31629779934883123,-0.3819076418876648,-0.3901776671409607
5.130735397338867,-3.2010080814361577,9.339732170104982,0.16441826522350314,-0.313757061958313,-0.23418755829334262
4.849612236022949,-0.7752391695976258,10.195062637329102,0.10779932141304016,-0.3530423045158386,-0.14750202000141147
5.680882930755616,-0.8018094897270204,10.540094375610352,0.059998553246259696,-0.3416091799736023,-0.132586345076561
4.785225868225098,-1.4533603191375732,9.855383872985842,0.0392778143286705,-0.3530529439449311,-0.12743134796619418
5.221854209899902,-0.4429916739463806,9.901917457580568,0.021487724035978317,-0.37885227799415594,-0.11920982599258423
5.567232131958008,-0.5823518633842469,9.826678276062013,0.0035397128667682414,-0.33775088191032415,-0.07641313970088959
5.106400966644288,-1.0193612575531006,9.621090888977053,-0.02654336392879486,-0.2760735452175141,-0.00710127130150795
5.573624134063722,-0.6388063430786133,9.686083793640138,-0.07747975736856462,-0.26366907358169556,0.03629478067159653
5.387720108032227,-0.9645481109619141,9.501169204711914,-0.11045727133750916,-0.2891432940959931,0.05482897162437439
5.071111679077148,-1.6142033338546755,9.223753929138185,-0.13954938948154452,-0.28237506747245794,0.05188395082950592
4.855645179748535,-2.2231574058532715,8.998258590698242,-0.11582268029451372,-0.2834974527359009,0.009849895723164083
4.794718265533448,-2.339086771011353,8.782800674438477,-0.045230090618133545,-0.2985763251781464,-0.05683748796582223
4.797235012054444,-2.202136516571045,8.728114128112795,0.02525186911225319,-0.30105617642402654,-0.11903639137744904
4.654560565948487,-2.2123332023620605,8.59805679321289,0.06638922542333604,-0.28411743044853216,-0.16226276755332947
4.742550849914551,-2.307356357574463,8.579294204711914,0.115891233086586,-0.26904806494712835,-0.218674898147583
4.742748737335206,-2.0938496589660645,8.66281032562256,0.153814435005188,-0.2565408051013947,-0.27608743309974676
4.810773372650147,-1.45565402507782,8.861563682556154,0.15617963671684265,-0.27514508366584783,-0.3093947768211365
5.130371570587159,-0.8926789164543153,9.100976943969727,0.1436778157949448,-0.27794179320335394,-0.3176730275154114
5.068971633911133,-1.1119033098220827,8.902780532836914,0.1293175667524338,-0.2666686177253723,-0.33047536015510565
4.952252388000488,-0.9674025774002075,9.032525062561037,0.12066912651062012,-0.2738912403583527,-0.35452267527580267
5.227253437042237,-0.37756097316741943,9.341429710388185,0.08246401697397233,-0.3031982183456421,-0.3354088962078095
5.025822639465332,-0.6006064414978027,9.34219264984131,0.04101049154996872,-0.3218384385108948,-0.31842449307441717
4.751284599304199,-0.48701953887939453,9.397875785827638,-0.01590554788708687,-0.382501631975174,-0.30705732107162476
5.403409957885742,-0.34325954318046575,9.42776393890381,-0.10315507650375366,-0.4512705504894257,-0.27757361531257635
5.325495243072511,-0.5825365781784058,9.058185577392578,-0.12629787623882296,-0.507635235786438,-0.23973385989665988
5.25318193435669,-0.9133412241935731,9.101377487182617,-0.08080690354108812,-0.5910163521766664,-0.24735647439956665
5.448111534118652,-1.2648184299468994,8.823315620422365,-0.048265233635902405,-0.657123625278473,-0.24301281571388245
5.3333754539489755,-0.6470425128936768,9.230199813842773,-0.03723044320940972,-0.7665990591049194,-0.19374975562095642
5.128015995025636,-0.6477712988853456,9.217519760131836,-0.06226148828864098,-0.8973922729492188,-0.13467131555080417
4.295804023742676,-0.8713452816009521,9.543407440185547,-0.0665249601006508,-1.1045383214950564,-0.11164909601211548
4.030966758728027,-1.1524555683135986,9.900513648986818,-0.10186958312988281,-1.3772948980331423,-0.12829893827438354
4.0064239501953125,-0.5988206267356874,10.298276901245117,-0.17511399090290072,-1.7204999923706055,-0.1533757448196411
4.6299805641174325,0.034993529319763184,10.522016525268555,-0.2854653596878052,-2.1143829822540288,-0.11821934580802917
4.478570938110352,-0.08205954730510712,10.564478874206545,-0.3828776478767395,-2.565577983856201,-0.05077056959271432
4.3986220359802255,-0.4975656270980835,10.55355453491211,-0.42958998680114746,-3.0968630313873295,-0.008531514555215836
4.814224720001222,-0.9285541772842407,10.628000259399414,-0.36531111598014837,-3.7399282455444336,-0.08444124460220337
4.31945562362671,-1.5118505954742432,10.910767555236818,-0.4078159630298615,-4.427432060241699,-0.18773464858531955
1.8068583011627197,-2.83254885673523,10.915016174316406,-0.4347478151321411,-5.361413955688477,-0.379555493593216
1.204043507575989,-4.00697135925293,10.162951469421388,-0.2847052216529846,-6.5049452781677255,-0.716747522354126
2.681431293487549,-4.651750564575195,10.066898345947266,-0.06536334007978441,-7.9373016357421875,-1.0176658630371094
2.5272247791290288,-2.6547243595123295,9.931938171386719,0.00399231305345893,-9.561201095581055,-1.2396849393844607
3.8136253356933594,-1.5196635723114014,9.839638710021974,0.034562375396490104,-11.317889213562013,-1.583343505859375
10.46626377105713,-2.5061008930206303,11.682350158691406,-0.2989720106124878,-12.967242240905763,-1.5932679176330566
21.102193832397464,-2.676311254501343,15.816143035888672,-0.7523385882377626,-13.719392776489258,-1.4083619117736816
32.803375244140625,-3.63248085975647,14.643328666687013,-0.7661342024803163,-12.975189208984375,-1.591736674308777
45.287792205810554,-0.7951884269714355,12.975213050842287,-1.0514174699783327,-11.435212135314943,-1.5512292385101318
38.67132186889649,-3.958454847335816,13.18966293334961,-2.1795639991760254,-10.024207115173342,-0.8619812726974487
30.11374282836914,-9.683841705322266,17.699544906616214,-2.318626880645752,-8.959309577941896,-1.1635409593582156
20.95629692077637,-9.984342575073242,20.277704238891605,-1.8926872014999392,-7.964879989624023,-1.8271757364273074
18.683656692504886,-10.11805820465088,20.415868759155277,-1.1695940494537354,-6.990826606750488,-2.3134958744049077
3.9019753932952885,-6.795833587646484,12.058815002441406,-0.09913481771945953,-6.5811476707458505,-2.7662553787231445
39.080543518066406,-8.202816009521484,23.125675201416016,0.6555120944976807,-5.916620731353761,-3.55174994468689
28.336069107055668,-5.260526180267335,33.93442153930665,0.8756129741668701,-2.2796537876129155,-3.3428568840026855
16.34929466247559,-6.045033931732179,26.60111808776856,0.9601216912269593,0.8081703782081605,-2.906961441040039
14.534670829772951,-4.7487993240356445,22.679397583007812,0.7554606795310975,3.520885944366455,-2.1711685657501225
8.14714241027832,-4.18358039855957,16.080371856689453,0.3367018699645996,5.1866774559021005,-1.651069760322571
4.65102481842041,-3.847887754440308,11.685055732727053,-0.09321437776088715,6.20295286178589,-1.2142305374145508
3.933333396911621,-3.9269914627075195,8.770362854003906,-0.38161966204643255,6.770990848541261,-0.8381725549697876
3.002877473831177,-3.7001538276672363,6.565367698669434,-0.6541895866394043,6.966985225677491,-0.3924519419670105
2.1151881217956543,-3.97432279586792,5.289201259613038,-0.8638807535171509,7.05625867843628,0.03169151023030282
2.1935782432556152,-4.39198112487793,4.639561653137207,-0.8894606828689575,7.114890575408936,0.37192636728286743
2.2325742244720463,-4.278522014617921,4.1748414039611825,-0.767695426940918,7.038389205932617,0.6722173094749452
2.2440278530120854,-4.039515972137452,4.252795219421387,-0.6315430402755737,6.88617753982544,0.920444130897522
3.5109386444091797,-2.984511375427246,4.741864681243897,-0.5265336036682129,6.760263919830323,1.142670512199402
4.943593502044679,-1.7804441452026367,5.533648490905762,-0.5461033582687378,6.751857280731202,1.3934094905853271
6.073609352111816,-0.9712573885917665,6.324484825134277,-0.6888988614082338,6.808353900909425,1.645097017288208
8.041234970092773,-0.509385347366333,7.501690387725831,-0.882226824760437,6.928865909576417,1.8471744060516357
10.0602502822876,-0.3241013288497925,8.458544731140138,-1.015735387802124,7.176523685455323,1.989512085914612
10.932422637939453,-0.6052805185317993,8.972146034240724,-1.054997205734253,7.476541042327882,2.057023525238037
10.96902847290039,-0.8010419607162476,8.739977836608888,-0.9536136984825135,7.740824222564698,2.093435764312744
10.658966064453125,-0.2579607367515564,8.141018867492678,-0.7932537198066713,7.84113883972168,2.1350071430206303
11.008955001831055,1.0457360744476318,8.213203430175781,-0.750616192817688,7.7842984199523935,2.2499597072601323
12.159842491149904,1.7043349742889404,9.165506362915039,-0.8839191794395448,7.662917137145996,2.366803407669068
13.689105987548828,1.2268426418304443,10.654796600341797,-1.009284496307373,7.567105293273926,2.4491298198699956
14.97409439086914,0.07243666052818298,12.3402099609375,-0.9617727994918823,7.488059520721436,2.4591732025146484
16.654546737670902,-0.7054188251495361,14.176287651062013,-0.72603440284729,7.404268741607667,2.423378229141236
18.51033973693848,-1.0402162075042725,16.051832199096683,-0.44533681869506836,7.348135471343995,2.3747334480285645
20.67647933959961,-1.567164421081543,17.518550872802734,-0.18133258819580078,7.316337585449219,2.32721495628357
23.221817016601562,-1.7152564525604248,18.041017532348636,0.08546549081802368,7.24845838546753,2.330721378326416
26.18877220153809,-0.5356540679931641,18.07662582397461,0.2146033197641373,7.095447540283203,2.3858752250671387
29.733558654785156,0.7263959646224976,17.640691757202152,0.038446050137281425,6.912413597106934,2.3784368038177495
32.236114501953125,-0.142286479473114,15.37507438659668,-0.33308818936347967,6.78882932662964,2.2123360633850098
33.15282821655274,-1.5870945453643799,11.323905944824219,-0.5728713274002075,6.676154613494874,1.7076356410980225
35.46171188354493,2.582969427108765,2.7305114269256596,-0.9913354516029359,6.545405387878418,1.054060697555542
36.2392578125,10.686512947082521,-8.232864379882812,-2.330090045928955,6.095335483551026,0.43497323989868164
41.703510284423835,11.70083522796631,-22.985963821411136,-4.399806022644043,5.409637451171875,0.34818258881568914
41.60267639160156,1.9616169929504395,-34.45686340332031,-4.759891033172608,3.988284111022949,0.4423250257968903
32.54087829589844,-4.030479431152344,-34.3741455078125,-3.0536363124847417,1.0819041728973389,0.016761280596256256
19.06124496459961,-4.5728044509887695,-22.344633102416996,-0.3042243421077729,-1.903461217880249,-1.0515736341476443
24.219623565673828,0.6963794827461244,-7.058781147003175,1.134357571601868,-3.470509767532349,-1.95143723487854
9.139106750488281,-6.922690391540527,9.83213996887207,2.5104055404663086,-4.210734844207765,-1.7430298328399658
11.334085464477539,-7.358069896697999,9.943520545959474,4.454828739166261,-4.467110633850098,-1.916893482208252
-0.4217202663421631,10.115262031555178,16.448223114013672,2.5967869758605957,-4.932937145233155,-1.57920503616333
0.8849799633026123,3.3464424610137944,15.760805130004883,0.6628724932670594,-5.507133007049561,-1.011704921722412
23.95806694030762,4.787402153015137,13.544753074645998,0.2201858311891556,-6.152432441711426,-0.7397504448890687
34.43534851074219,9.072799682617188,22.647436141967777,-0.15168118476867676,-5.325701236724854,-0.06628230959177019
28.799066543579105,3.663478374481201,20.887535095214844,-0.15732097625732422,-4.122875690460206,-0.5796889066696167
18.363513946533203,-3.8271176815032963,15.819327354431154,0.029720041900873184,-3.2775635719299316,-0.900645673274994
11.38646984100342,-6.064580917358398,11.628941535949709,0.2521973550319672,-2.709113121032715,-0.7839402556419374
11.046967506408693,-0.1438313126564026,11.311481475830078,0.5367228388786317,-2.3136658668518066,-0.8052104711532593
12.993515014648438,0.6853593587875366,12.131956100463867,0.6161790490150453,-1.6407792568206787,-1.0677970647811892
11.002449035644531,-2.7922840118408203,10.921571731567383,0.6200682520866395,-1.0039519071578982,-0.8726462125778198
6.57105588912964,-4.484127998352051,9.461393356323242,0.683387577533722,-0.7530534267425537,-0.5027250647544862
4.9983534812927255,0.9328073859214784,11.217111587524414,0.48196992278099066,-0.6656663417816162,-0.37602049112319946
6.490960597991944,-0.9404603838920594,10.608860969543459,0.282099187374115,-0.48882278800010687,-0.33971142768859863
5.410154342651367,-2.8592035770416264,9.471536636352539,0.22819699347019198,-0.41094031929969793,-0.32687777280807495
5.719415187835694,-0.8348947763442993,10.262454032897951,0.17697224020957947,-0.40130153298377996,-0.27686607837677
5.638502597808839,-1.496794104576111,10.07905673980713,0.17429147660732272,-0.3538166284561157,-0.26008713245391846
5.607085704803468,-0.47580456733703613,10.177862167358398,0.1556264013051987,-0.33940112590789795,-0.22058363258838656
5.895462989807129,-0.5187735557556152,9.9544677734375,0.12114003300666809,-0.2923012375831604,-0.17542998492717746
5.7300262451171875,-0.4717774987220764,9.896725654602053,0.06855458766222002,-0.23585471510887146,-0.102867029607296
5.000840663909913,-0.025257721543312073,9.839318275451662,-0.016190344467759136,-0.20654600858688354,0.0007842089980840683
5.5855913162231445,-0.30287006497383123,9.946665763854982,-0.1109244152903557,-0.2312336564064026,0.08683096617460252
4.901828765869141,-0.9683696627616883,9.793402671813967,-0.20377692580223083,-0.2753934860229492,0.11054184287786485
4.8046631813049325,-1.6808767318725586,9.501989364624023,-0.2422587424516678,-0.34816932678222656,0.09766639024019243
4.817322254180909,-1.7333904504776003,9.304959297180178,-0.24907250702381137,-0.38647639751434326,0.059686340391635895
4.811868190765382,-1.4352822303771973,9.242537498474123,-0.27676427364349365,-0.43613031506538397,0.027450628578662872
4.862576961517335,-1.3803107738494873,8.93526840209961,-0.2860572338104248,-0.46786952018737793,0.015445630066096784
5.23529863357544,-1.6511878967285156,8.80654048919678,-0.2815725803375244,-0.4944768846035004,0.0004292912781238556
5.033082008361816,-1.63371479511261,8.61032485961914,-0.2709322273731232,-0.4890534281730652,0.014193922281265259
5.322909832000733,-1.6340229511260986,8.590025901794435,-0.2630250751972199,-0.47265952825546265,0.014628442935645582
5.2283596992492685,-1.8441805839538574,8.557231903076172,-0.2561088800430298,-0.42958199977874756,0.007457711268216372
4.964797496795655,-1.997727394104004,8.453986167907717,-0.2551964521408081,-0.38568142056465154,0.00567757710814476
4.860456943511964,-2.665573358535767,8.343755722045898,-0.22986885905265808,-0.339438408613205,-0.042335052043199546
4.7932095527648935,-2.9983427524566655,8.33394527435303,-0.16751147806644442,-0.3237723708152771,-0.1198423132300377
4.971478939056397,-3.0228943824768066,8.281178474426271,-0.09731409698724748,-0.28923186659812933,-0.22117078304290771
4.698474884033203,-3.296409368515015,8.204587936401367,0.001286619110032916,-0.23844392597675326,-0.3556945323944092
4.578908920288086,-2.8646655082702637,8.271644592285156,0.11553950607776642,-0.23015497624874118,-0.5000527501106263
4.516596317291261,-2.7319552898406987,8.208594322204592,0.24432556331157687,-0.23403450846672058,-0.6245811581611634
5.086718559265137,-2.116504669189453,8.542991638183594,0.29902675747871404,-0.2728405892848969,-0.6623712778091431
5.664268016815186,-0.6504551768302919,8.8109130859375,0.27014932036399847,-0.28328800201416016,-0.6396010518074037
5.508110523223878,-0.9442395567893983,9.030871391296388,0.2886658608913422,-0.2920265793800354,-0.6288385391235352
5.350507259368897,-0.9146464467048646,9.283658981323242,0.27063331007957464,-0.37617796659469604,-0.5978659987449647
6.286726951599121,-0.01049591600894928,9.57708740234375,0.1969974935054779,-0.4674152731895447,-0.5300766825675965
5.326111793518066,-0.14487408101558688,9.477109909057617,0.1418030560016632,-0.6089150309562684,-0.4163174033164978
4.24997615814209,-0.35947379469871527,9.877747535705568,0.13221319019794467,-0.8739886283874512,-0.3374680280685425
4.339355945587159,-0.34583091735839844,10.163008689880373,0.09655873477458954,-1.1997176408767702,-0.27917391061782837
3.881742477416992,-0.8240498900413514,10.482548713684084,0.07259207218885423,-1.579785227775574,-0.25228410959243774
4.339921474456788,-0.23911727964878085,10.771127700805664,0.019822960719466213,-2.020169734954834,-0.22583992779254916
4.537653446197511,0.058475956320762634,10.770477294921875,-0.07716135680675507,-2.4821126461029057,-0.15881581604480746
4.869591236114503,0.04476854205131531,10.674003601074219,-0.15633109211921692,-2.998532056808472,-0.0719795972108841
5.006946563720703,-0.2775031328201294,10.776522636413576,-0.2435014843940735,-3.533176898956299,-0.04907489195466042
4.542289257049561,-1.3714334964752197,10.88380241394043,-0.278836727142334,-4.265379428863526,-0.19720318913459778
2.0195794105529785,-2.586275100708008,11.260583877563477,-0.33814522624015814,-5.114733695983887,-0.4115946888923645
1.0508651733398438,-4.2154860496521005,10.66792106628418,-0.1934128701686859,-6.2715115547180185,-0.7285903692245483
2.1866564750671387,-4.1726746559143075,10.500798225402834,0.03411800414323807,-7.7092485427856445,-1.0948654413223269
3.08568549156189,-3.1605951786041264,10.572183609008789,0.21906119585037231,-9.35793972015381,-1.3886284828186035
2.9673609733581543,-1.8405843973159792,10.073822975158693,0.3133770227432251,-11.11021137237549,-1.749024271965027
9.140026092529297,-3.5482013225555424,11.716876029968263,0.07848824560642242,-12.67043209075928,-2.05863618850708
20.324422836303714,-4.269071102142335,14.547452926635742,-0.2914325892925263,-13.641085624694826,-2.1138601303100586
32.03167343139649,-5.296029090881348,15.509640693664553,-0.3584499955177307,-13.108899116516115,-2.497004508972168
45.349021911621094,-4.031044483184815,13.349157333374023,-0.3209298253059387,-11.402392387390138,-2.6664807796478276
41.57082748413087,-1.235591173171997,13.53547477722168,-1.2336952686309814,-9.88115978240967,-1.9508273601531982
27.948211669921875,-6.728959560394288,17.06822776794434,-1.7441539764404297,-8.758352279663086,-1.842222332954407
21.59845733642578,-9.696210861206055,20.48696517944336,-1.782433271408081,-7.929021358489991,-2.122889995574951
17.80990982055664,-8.831955909729006,20.711997985839844,-1.2877693176269531,-6.852866649627686,-2.676301240921021
2.100136041641236,-6.489871025085449,11.644411087036133,-0.3865256905555725,-6.7521681785583505,-3.0403342247009277
40.18113327026368,-7.337462902069093,21.440048217773438,-0.15295574069023132,-6.114485740661621,-3.0405294895172124
30.33213615417481,-9.125444412231445,32.859519958496094,0.47295957803726196,-2.410892248153687,-3.032310962677002
17.1065845489502,-8.2056360244751,26.759620666503906,1.0659035444259646,0.7987945079803467,-2.584990978240967
16.21548843383789,-5.196695327758789,23.4072265625,1.1155465841293337,3.532667636871338,-1.7704862356185915
9.31686019897461,-4.195194721221925,16.305433273315433,0.7143779993057251,5.248376846313477,-1.0696972608566286
5.320873260498047,-3.97092866897583,11.58663558959961,0.2671975195407868,6.277219772338867,-0.5352967381477357
3.5676815509796147,-4.256641864776612,8.091939926147461,0.06036265939474106,6.727792263031007,-0.12366699427366258
-0.11139312386512756,-3.9810495376586914,4.94228219985962,-0.07613670080900194,6.676041603088379,0.23485426604747775
-2.3628752231597905,-3.932902097702027,3.440094470977783,-0.258215218782425,6.313629627227784,0.5339450836181641
-0.5220615863800049,-2.642780303955078,3.8403172492980957,-0.41727390885353094,5.953929901123047,0.8144090771675111
2.2072050571441655,-1.372706651687622,5.200491428375245,-0.661433517932892,5.845579147338867,1.1544702053070068
3.274027585983277,-1.1286182403564453,5.965921401977539,-0.981357514858246,5.937359809875488,1.4918106794357302
4.429912567138672,-1.2328743934631348,6.786629676818848,-1.1557512283325195,6.117802619934082,1.7832750082015993
5.438884258270265,-1.4282608032226562,7.322837829589844,-1.1160117387771609,6.3428802490234375,1.9644855260849001
6.687273025512695,-1.033348560333252,7.722784042358398,-0.9774746298789979,6.552596092224121,2.043637752532959
8.866205215454102,-0.18481977283954623,8.373344421386719,-0.8879830241203309,6.786226272583008,2.071811437606812
11.043925285339357,0.631017029285431,8.968823432922365,-0.9151043891906738,7.143994331359863,2.101944208145142
11.488203048706055,0.8131660223007202,8.946273803710938,-0.9980394840240479,7.5415101051330575,2.124455451965332
11.143984794616701,0.22469870746135714,8.295635223388672,-1.0544955730438232,7.842528820037843,2.1613814830780034
10.57143306732178,0.8411120772361756,7.694512844085694,-0.9383019208908081,7.959505558013917,2.2120118141174316
10.850221633911133,1.1849768161773682,7.33719301223755,-0.9523508548736572,7.925993919372559,2.3433787822723393
11.356781959533693,1.685131907463074,7.54223394393921,-1.0285128355026247,7.768253326416016,2.4766280651092534
12.665376663208008,1.4551285505294802,8.661758422851562,-1.1031169891357422,7.554288387298585,2.5891582965850835
14.27407741546631,0.8040499687194824,10.285314559936523,-1.0927323102951052,7.363773345947266,2.6407477855682377
15.983975410461428,-0.2964251637458801,12.011172294616701,-0.9606393575668335,7.207653045654297,2.63795018196106
18.006200790405277,-1.2394378185272217,13.787874221801758,-0.6726360917091371,7.0694074630737305,2.615432977676392
20.728460311889652,-1.6853630542755127,15.79778575897217,-0.34185653924942017,6.968732357025147,2.5634977817535405
23.766185760498047,-1.8203901052474978,17.615106582641605,-0.06957291811704637,6.936713218688965,2.4896104335784917
27.186840057373047,-0.663992166519165,19.085094451904297,0.03344474732875824,6.968338966369629,2.4126164913177495
31.35523223876953,0.8546375036239624,19.152425765991214,-0.1722163408994675,7.140422821044922,2.3362729549407963
33.721824645996094,1.1231491565704346,15.879588127136232,-0.5565950870513916,7.365128993988038,2.2194797992706303
32.2801513671875,-1.1006085872650146,10.291854858398438,-0.8022632002830506,7.381163597106934,1.9427434206008913
31.280975341796875,-2.6945762634277344,2.130079746246338,-0.6414289474487305,6.957940101623535,1.351114630699158
