AccX,AccY,AccZ,GyrX,GyrY,GyrZ
4.3001651647500694e-05,-1.3925380699220113e-05,0.00010892892169067637,-4.737398029419637e-08,-1.1534030619486658e-07,-1.2004228722162227e-07
3.861326217651367,-1.2530858516693115,9.780240058898928,-0.004729980602860451,-0.009329055435955526,-0.0075826747342944145
3.8720395565032963,-1.270024061203003,9.783124923706055,-0.0031756386160850525,-0.007628900930285454,-0.00915783178061247
3.8721201419830327,-1.256038308143616,9.758720397949219,-0.0020743107888847594,-0.008283581584692001,-0.010095103643834593
3.8530910015106206,-1.2633546590805056,9.794021606445312,-0.0005268465611152352,-0.006420818157494068,-0.009216055274009705
3.8405225276947026,-1.2655470371246338,9.789675712585451,0.0007466753595508636,-0.007710972800850868,-0.011615362949669363
3.8689434528350835,-1.2323397397994997,9.77529048919678,-0.0008980206912383437,-0.011580707505345345,-0.010245292447507383
3.8676502704620366,-1.2549763917922976,9.792620658874513,0.000592194322962314,-0.01120063103735447,-0.010525752790272238
3.8884589672088627,-1.2350890636444092,9.794950485229492,-6.563071656273679e-05,-0.010335145518183708,-0.010702690109610558
3.858291387557984,-1.2543201446533203,9.758883476257326,-0.00135763140860945,-0.010222302749752998,-0.011038451455533506
3.8697762489318848,-1.2402414083480837,9.754129409790039,-0.0019448378589004278,-0.011819621548056602,-0.00971296150237322
3.8817980289459233,-1.2448418140411377,9.787487983703615,-0.0023572593927383423,-0.011668990366160871,-0.010923188179731369
3.880889415740967,-1.2468311786651611,9.784525871276857,-0.0012793251080438497,-0.011152254417538643,-0.010494405403733253
3.867799758911133,-1.2433295249938965,9.80287837982178,-0.0011949911713600159,-0.009136500768363478,-0.00903283804655075
3.870552301406861,-1.2592597007751465,9.777009963989258,6.920149462530391e-05,-0.009109414182603361,-0.009585754945874214
3.865121841430664,-1.243321418762207,9.805138587951662,-0.0008088967297226191,-0.00993998069316149,-0.009010307490825653
3.8743078708648686,-1.2484647035598757,9.80238151550293,-0.0010485770180821419,-0.009593582712113859,-0.009369631297886373
3.876477479934693,-1.26947295665741,9.75847911834717,-0.0004218811227474362,-0.010834380984306335,-0.010340952314436437
3.8532030582427983,-1.2672193050384521,9.789395332336428,0.0006726900464855136,-0.010798743925988676,-0.011047489941120148
3.8544764518737793,-1.2402360439300537,9.815701484680178,-0.0010971879819408061,-0.010972434654831886,-0.009844698943197729
3.8565659523010254,-1.2409478425979616,9.789929389953615,-0.0006591609562747182,-0.012669669464230537,-0.011848781257867813
3.869210481643677,-1.258460521697998,9.79233169555664,-0.002222748938947916,-0.012784938327968122,-0.008367082104086876
3.8775463104248047,-1.246747136116028,9.741250038146974,-0.0023960920516401534,-0.014043250121176245,-0.011188486590981483
3.8581545352935795,-1.2544230222702029,9.802085876464844,-0.001076317275874317,-0.014016959816217422,-0.009004873223602773
3.870515823364258,-1.2314612865447998,9.77198886871338,-0.0032969783060252666,-0.014650520868599417,-0.008852890692651274
3.887117385864258,-1.2528750896453857,9.767819404602053,-0.003706146962940693,-0.012260830961167814,-0.00975096970796585
3.874032974243164,-1.2794677019119265,9.754832267761232,-0.0036511144135147337,-0.01478277985006571,-0.010689441114664078
3.87153959274292,-1.2904400825500488,9.793274879455568,-0.002901448635384441,-0.01288691908121109,-0.008954885415732862
3.891337156295777,-1.2608864307403564,9.786047935485842,-0.0016002120682969692,-0.014334827661514282,-0.009322760626673698
3.8643198013305664,-1.2620931863784792,9.768531799316406,-0.002871046541258693,-0.013629620894789696,-0.012059650383889677
3.882676601409912,-1.273135304450989,9.75459098815918,-0.0008197171264328064,-0.01465337071567774,-0.009776007384061813
3.8780088424682617,-1.257576107978821,9.754187583923342,-0.0014588674530386925,-0.013396172784268858,-0.011350037530064583
3.868105411529541,-1.2692240476608279,9.781482696533203,-0.0007751838420517744,-0.012233037501573563,-0.011762669309973717
3.8536720275878906,-1.2575359344482422,9.759636878967287,0.0007586442516185344,-0.011137247085571289,-0.010810810141265394
3.868044376373291,-1.2738401889801025,9.787628173828125,0.001571995089761913,-0.01312034670263529,-0.013331685215234756
3.8760194778442383,-1.2452805042266846,9.784318923950195,0.0007888177642598748,-0.01341077405959368,-0.013143368065357208
3.8656387329101562,-1.2428345680236816,9.79885482788086,0.002350100548937917,-0.011377491056919098,-0.013419505208730698
3.870387554168701,-1.2432004213333132,9.795705795288086,0.002719043754041195,-0.012684351764619352,-0.011233236640691757
3.8756434917449956,-1.2665176391601562,9.812497138977053,0.00039362796815112233,-0.01385141909122467,-0.013229521922767164
3.869988441467285,-1.2512227296829226,9.794346809387209,0.00018973399710375818,-0.01218976080417633,-0.011517043225467207
3.8810606002807617,-1.257411241531372,9.773413658142092,0.0007108155987225474,-0.014053955674171448,-0.012496771290898323
3.8569900989532475,-1.2708370685577393,9.753786087036133,0.0011615504045039415,-0.01396059710532427,-0.012857021763920784
3.8763988018035893,-1.2337714433670046,9.796008110046388,0.0011149300262331963,-0.015047755092382431,-0.013325720094144346
3.8935208320617676,-1.2759010791778564,9.798868179321289,-8.299296314362437e-05,-0.013419772498309614,-0.012560922652482986
3.8855457305908203,-1.2546428442001345,9.784770011901857,0.002123752841725946,-0.012290595099329948,-0.011170811951160431
3.8946776390075684,-1.2471891641616824,9.80831050872803,0.001577782793901861,-0.011625628918409348,-0.011418680660426618
3.87762999534607,-1.2469726800918581,9.772122383117678,0.003671194426715374,-0.009871968999505043,-0.010255566798150541
3.8674619197845463,-1.267366647720337,9.782435417175295,0.005821304861456157,-0.008780499920248985,-0.010936432518064977
3.8618416786193848,-1.2726433277130127,9.765481948852539,0.003356378059834242,-0.010681527666747572,-0.014545134268701078
3.8861434459686284,-1.241927146911621,9.78176784515381,0.004120558965951205,-0.011900341138243675,-0.014639842323958875
3.863071918487549,-1.2658835649490359,9.799251556396484,0.0022357702255249023,-0.011840760707855225,-0.012427656911313536
3.8981800079345703,-1.2519569396972656,9.74886989593506,0.003101533744484186,-0.012758609838783743,-0.013835307210683823
3.8776128292083745,-1.2339003086090088,9.779185295104982,0.003847357584163547,-0.01237228512763977,-0.013170039281249046
3.8731722831726074,-1.2364716529846191,9.780596733093263,0.0029132491908967495,-0.012870692647993566,-0.013262946158647537
3.8914871215820312,-1.2396881580352783,9.788777351379396,0.003618325805291534,-0.009595136158168318,-0.014544757083058357
3.8849129676818848,-1.2279925346374512,9.790765762329102,0.0012712457682937384,-0.01149407494813204,-0.010797189548611641
3.891068935394287,-1.2275694608688357,9.759538650512695,0.000938521814532578,-0.01057057920843363,-0.011822811327874662
3.8911960124969487,-1.2607016563415527,9.772844314575195,0.0004985930863767862,-0.011979282833635809,-0.012563306838274002
3.86829686164856,-1.2521014213562012,9.79476547241211,0.00020476135250646624,-0.012862308882176878,-0.01190267689526081
3.8846747875213627,-1.2439916133880615,9.790008544921875,0.0010100264335051181,-0.012398451566696167,-0.011470082215964796
3.8535056114196777,-1.2675915956497195,9.787501335144045,0.0012969537638127804,-0.01381011586636305,-0.01118909288197756
3.870341062545777,-1.2698309421539307,9.796107292175295,0.003074903506785631,-0.01620048098266125,-0.012276893481612206
3.8680913448333745,-1.2354297637939453,9.796448707580568,0.0019497061148285866,-0.015452688559889793,-0.014960321597754957
3.872070789337158,-1.2566156387329102,9.762374877929688,0.0018551779212430122,-0.014031616970896721,-0.014674815349280836
3.881392478942871,-1.2229087352752686,9.790203094482422,0.0012903878232464196,-0.016635559499263763,-0.013943340629339218
3.8933510780334473,-1.2578796148300173,9.786868095397951,0.0021245558746159077,-0.011609011329710485,-0.010878706350922585
3.8897254467010502,-1.246323823928833,9.796282768249513,0.0018098218133673074,-0.010231426917016508,-0.010434482246637344
3.8982162475585938,-1.2545691728591921,9.738876342773438,0.0030047334730625153,-0.009253564290702345,-0.011629894375801086
3.8734085559844975,-1.2524676322937012,9.750153541564943,0.005118384025990963,-0.006315557751804591,-0.010442254133522512
3.8655421733856206,-1.2557919025421143,9.787630081176758,0.004863439127802849,-0.008582872338593008,-0.010875590145587921
3.85801362991333,-1.278559684753418,9.774518966674805,0.0057132900692522534,-0.009600606746971609,-0.013751737773418427
3.8793420791625977,-1.2393567562103271,9.784845352172852,0.0068115051835775375,-0.011651431210339071,-0.013669367879629135
3.8542752265930176,-1.2124876976013184,9.773355484008789,0.006130038760602474,-0.012238298542797567,-0.015067410655319692
3.871909856796265,-1.2433037757873535,9.801184654235842,0.0024518202990293503,-0.015243587084114553,-0.014818834140896797
3.8904924392700195,-1.2253749370574951,9.77474117279053,0.0035293812397867446,-0.014263796620070936,-0.014371450990438461
3.878835678100586,-1.2121148109436035,9.753031730651857,0.0012694682227447631,-0.013879416510462761,-0.014141931198537351
3.877242088317871,-1.2499362230300906,9.752828598022461,0.0014669511001557112,-0.014537918381392958,-0.012024152092635633
3.907096147537232,-1.252063274383545,9.756898880004883,0.002561412286013365,-0.014332220889627935,-0.011719347909092903
3.8951544761657715,-1.2533746957778933,9.764876365661623,0.0031201080419123173,-0.011599693447351456,-0.012755983509123327
3.8936131000518803,-1.2542026042938232,9.75911617279053,0.0036443017888814215,-0.010547785088419914,-0.013785106129944326
3.8969399929046635,-1.2525140047073366,9.757649421691896,0.0032027151901274924,-0.010493852198123932,-0.013731712475419044
3.879989385604859,-1.2341642379760742,9.752761840820312,0.005040185060352088,-0.010452333837747574,-0.013928788714110853
3.8753550052642827,-1.2365829944610596,9.79156017303467,0.0031241152901202445,-0.01079410780221224,-0.014980826526880264
3.888607740402222,-1.2502665519714355,9.76895046234131,0.002700436394661665,-0.011594013310968878,-0.013321734964847565
3.880070209503174,-1.2415140867233279,9.764049530029297,0.002036884892731905,-0.012401160784065725,-0.013486902229487898
3.886707305908203,-1.2371220588684082,9.786335945129396,0.0026053541805595164,-0.01424037478864193,-0.01241095829755068
3.908403635025025,-1.2427911758422852,9.771277427673342,0.0019938016775995497,-0.01452158857136965,-0.01262175664305687
3.8697645664215092,-1.252284049987793,9.785147666931154,0.0016687775496393442,-0.014288530685007574,-0.01288861408829689
3.8906264305114746,-1.218032479286194,9.786401748657227,0.0032154393848031764,-0.013576706871390343,-0.013672979548573494
3.8934495449066167,-1.220796823501587,9.776887893676758,0.0008266945951618255,-0.01255357638001442,-0.010985541157424452
3.8938081264495854,-1.2381242513656618,9.81131362915039,0.0005565374158322811,-0.011054113507270813,-0.009363331831991674
3.8846259117126465,-1.2379021644592285,9.765921592712404,0.0002443592238705606,-0.011531854048371315,-0.009695994667708875
3.8976347446441655,-1.2190622091293337,9.792797088623047,-0.0016214146744459867,-0.00922160502523184,-0.009246348403394224
3.868146181106568,-1.2370758056640625,9.802149772644045,-0.0014979474944993856,-0.011623160913586617,-0.011254572309553625
3.881940126419068,-1.2615952491760254,9.807746887207031,-0.0009652028093114495,-0.013632960617542267,-0.010829356499016287
3.886044979095459,-1.2454090118408203,9.823951721191406,-0.0013940557837486267,-0.014147588051855566,-0.011574981734156609
3.893764734268189,-1.2426570653915407,9.767508506774904,-0.0012823228025808933,-0.013829771429300308,-0.01092437468469143
3.905704259872437,-1.2450400590896609,9.768801689147951,-0.002289107535034418,-0.012616996653378012,-0.012025715783238411
3.8751766681671147,-1.2414138317108154,9.772925376892092,0.0007168906158767642,-0.011045145802199842,-0.011390291154384613
3.8910303115844727,-1.2575955390930176,9.802863121032717,0.001843772130087018,-0.011938068084418775,-0.012503279373049736
3.9009947776794434,-1.2183456420898438,9.806413650512695,-0.000303492764942348,-0.010146345011889936,-0.009506353177130224
3.9076671600341797,-1.2362284660339355,9.796912193298342,0.0014642503811046483,-0.008414873853325844,-0.010330940596759321
3.8690743446350098,-1.2334656715393066,9.778914451599123,0.000619811995420605,-0.009269759990274908,-0.010243624448776245
3.877092599868775,-1.24042284488678,9.775536537170412,0.0007961771916598082,-0.01047888118773699,-0.011786002665758133
3.8715004920959473,-1.2300025224685671,9.7879638671875,-0.0005407828721217812,-0.01076565682888031,-0.010175103321671486
3.913137435913086,-1.242523431777954,9.796977996826172,0.0012501579476520421,-0.010299788787961006,-0.010826961137354376
3.879708051681519,-1.2344744205474854,9.808382987976076,0.00014094228390604258,-0.011110756546258926,-0.012225049547851087
3.902490377426148,-1.2341396808624268,9.777791976928711,0.0003907570790033788,-0.011038834229111671,-0.011059748940169813
3.9024536609649663,-1.2340106964111328,9.783178329467773,0.0003187399124726653,-0.011187137104570867,-0.010206754319369795
3.8731422424316406,-1.240856647491455,9.783037185668945,0.00021495246619451794,-0.010762123391032219,-0.010086349211633207
3.8718481063842773,-1.2354363203048708,9.779654502868654,-0.0022706985473632812,-0.01296144723892212,-0.01106660906225443
3.8989918231964116,-1.235455393791199,9.778560638427734,-0.0023893979378044605,-0.01188065391033888,-0.011804839596152306
3.885442972183228,-1.2223639488220215,9.770917892456055,-0.002212626161053777,-0.012726448476314545,-0.009054293856024742
3.8680543899536133,-1.230544686317444,9.780495643615724,-0.0036971883382648234,-0.013476364314556122,-0.009265013970434667
3.8796439170837402,-1.2535034418106081,9.776833534240724,-0.005505360662937164,-0.014433545991778374,-0.00928016845136881
3.8814113140106206,-1.2706838846206667,9.766735076904297,-0.0030182101763784885,-0.01558820251375437,-0.008961809799075127
3.8634593486785893,-1.2517881393432617,9.766911506652834,-0.003997116815298797,-0.01601124182343483,-0.012529218569397926
3.8667969703674316,-1.252244234085083,9.774650573730469,-0.003591278335079551,-0.016796737909317017,-0.012824050150811674
3.886810779571533,-1.2728821039199831,9.780620574951172,-0.0037704920396208763,-0.017641037702560425,-0.012189327739179136
3.883218765258789,-1.2480442523956299,9.80152702331543,-0.0009532098192721605,-0.015932841226458553,-0.011124400421977043
3.878422260284424,-1.2374413013458252,9.791372299194336,-0.00215938943438232,-0.01672898232936859,-0.015288140624761581
3.8947193622589116,-1.2371493577957156,9.788707733154297,-0.002219810616225004,-0.015645315870642666,-0.013686586171388626
3.92389988899231,-1.2529449462890625,9.789618492126467,-0.0015726997517049313,-0.015943247824907303,-0.012870724312961103
3.903841018676758,-1.2667412757873535,9.791460037231445,-0.0007189807947725058,-0.0124304061755538,-0.012400025501847267
3.921431064605713,-1.2399396896362305,9.79020881652832,0.001355752698145807,-0.011226700618863106,-0.011080756783485413
3.9107651710510254,-1.2559938430786133,9.773694038391115,0.0009550279355607928,-0.011523149907588959,-0.010791066102683546
3.8766949176788335,-1.2185015678405762,9.788165092468263,0.0025190610904246573,-0.010976686142385008,-0.009921958670020103
3.8870799541473393,-1.285644292831421,9.770874977111818,0.000499169691465795,-0.010143832303583624,-0.009288037195801735
3.8855450153350835,-1.252580761909485,9.75845718383789,0.0017248488729819658,-0.012287136167287827,-0.011928046122193336
3.891111373901367,-1.2266842126846316,9.778100967407227,0.002770125633105636,-0.011457618325948715,-0.013246498070657255
3.873554229736328,-1.2514050006866455,9.801809310913086,0.002384950174018741,-0.011421504430472853,-0.01238342933356762
3.8586626052856445,-1.267966151237488,9.757135391235352,0.0028014078270643954,-0.01343279704451561,-0.013863001950085165
3.8795671463012695,-1.2082417011260986,9.777647018432617,0.0027421978302299976,-0.015034080483019354,-0.015950934961438182
3.890581369400025,-1.232936143875122,9.802871704101562,-0.0003039097937289626,-0.015578551217913628,-0.01379979681223631
3.893523693084717,-1.2077159881591797,9.76405429840088,-0.0038748097140342,-0.017606949433684353,-0.01213274709880352
3.887148380279541,-1.2466754913330078,9.783146858215334,-0.003973549697548152,-0.018517304211854935,-0.011722289957106115
3.885718822479248,-1.2466336488723757,9.769755363464357,-0.00405379943549633,-0.018746072426438335,-0.012065169401466848
3.889563322067261,-1.243906378746033,9.759331703186037,-0.003976864740252495,-0.018097033724188808,-0.011067384853959084
3.8869230747222905,-1.2692435979843142,9.770548820495607,-0.003443097928538919,-0.017490776255726818,-0.012867184355854988
3.8932342529296875,-1.2482534646987917,9.772681236267092,-0.0033426580484956507,-0.017902560532093048,-0.01384552847594023
3.887384653091431,-1.2249078750610352,9.77688503265381,-0.0037054172717034817,-0.01844805292785168,-0.012438411824405195
3.9087634086608887,-1.2543561458587646,9.787631034851076,-0.004189500119537116,-0.019146285951137543,-0.013113620691001417
3.914209127426148,-1.247706651687622,9.801671981811523,-0.0015717281494289637,-0.01922420784831047,-0.0121877184137702
3.9046711921691895,-1.2754746675491335,9.772558212280273,-0.004159606527537108,-0.017910882830619812,-0.01150480378419161
3.9116513729095463,-1.2816885709762575,9.771393775939943,-0.0019567601848393683,-0.017546042799949646,-0.012306313961744308
3.923160314559937,-1.2508630752563477,9.76238536834717,-0.0019083238439634444,-0.016268979758024216,-0.012586259283125402
3.9151284694671635,-1.2332217693328857,9.762034416198732,0.000458686554338783,-0.014093441888689995,-0.012359985150396826
3.931823015213013,-1.2570413351058962,9.763546943664553,0.001777564291842282,-0.013641979545354843,-0.012889304198324682
3.9115982055664062,-1.2631266117095947,9.753946304321289,0.0026777258608490233,-0.011450273916125298,-0.012387959286570549
3.9084014892578125,-1.2555220127105713,9.78059482574463,0.002084386069327593,-0.010303921066224577,-0.01334724947810173
3.8946864604949956,-1.2493815422058105,9.766219139099123,0.003601095173507929,-0.010688552632927895,-0.012776815332472326
3.8952047824859624,-1.243593692779541,9.762941360473633,0.003011329332366586,-0.00830129161477089,-0.012083251960575582
3.908732175827027,-1.2561945915222168,9.787156105041506,0.004501075483858585,-0.00957357604056597,-0.012695022858679296
3.9056518077850346,-1.2481184005737305,9.801877021789553,0.005459333304315806,-0.008604144677519798,-0.011766071431338789
3.914035558700562,-1.23950731754303,9.806294441223146,0.0030491745565086608,-0.005930402781814338,-0.011718124151229858
3.885293483734131,-1.2610559463500977,9.777116775512695,0.00472380593419075,-0.006937608588486911,-0.013949347659945488
3.9138503074645996,-1.2435085773468018,9.760489463806154,0.006921903230249882,-0.007867244072258474,-0.013570708222687246
3.8855905532836914,-1.2478792667388916,9.75910758972168,0.005665180739015342,-0.007458962500095367,-0.014033750630915167
3.870820283889771,-1.2446930408477783,9.768589973449709,0.004505734890699387,-0.010714629665017128,-0.014420756138861181
3.8769257068634038,-1.2503318786621094,9.791052818298342,0.003143337555229664,-0.013715033419430258,-0.01567879691720009
3.9110684394836426,-1.210816025733948,9.806903839111328,-0.00045012414921075106,-0.014260319061577322,-0.013415693305432798
3.9211020469665527,-1.2296775579452517,9.78650760650635,-0.0018612808780744674,-0.016280416399240494,-0.011462059803307058
3.8966822624206543,-1.2377727031707764,9.770004272460938,-0.0020203010644763712,-0.013132206164300443,-0.011196780949831009
3.894392490386963,-1.2530298233032227,9.783224105834961,-0.0014858975773677232,-0.014291226863861084,-0.011621384881436827
3.9136481285095215,-1.2319774627685547,9.781678199768068,-0.0014053634367883205,-0.013677424751222135,-0.010984440334141256
3.8848438262939453,-1.2503980398178103,9.785563468933107,-0.002063079504296184,-0.013924842700362206,-0.009458064101636411
3.9155359268188477,-1.2443817853927615,9.778441429138185,-0.0026373292785137896,-0.01268128026276827,-0.010357042774558067
3.922719955444336,-1.241898536682129,9.76340103149414,-0.000961907848250121,-0.013604860752820969,-0.008294875733554365
3.9120635986328125,-1.231800675392151,9.775197982788086,-0.0020894559565931563,-0.013373654335737228,-0.009118318557739258
3.910038471221924,-1.2306163311004639,9.752337455749513,-0.0037556076422333717,-0.013566547073423864,-0.008701348677277565
3.923625230789185,-1.2507209777832031,9.795069694519045,-0.005395147483795882,-0.011944423429667951,-0.008892150595784187
3.905938148498535,-1.251549482345581,9.809932708740234,-0.004091561771929264,-0.010908569209277632,-0.009049119427800179
3.9178457260131836,-1.2560875415802002,9.755715370178224,4.2605624912539504e-05,-0.008506176993250847,-0.010320456698536873
3.920459747314453,-1.2266011238098145,9.762622833251953,-0.0007913628360256553,-0.00661773281171918,-0.008281586691737175
3.875659942626953,-1.2577412128448486,9.798327445983888,-0.00027056504040956497,-0.006030178628861904,-0.008603847585618498
3.9260611534118652,-1.2673640251159668,9.779529571533203,-0.0013814199483022096,-0.00747437309473753,-0.006949575152248145
3.908334732055664,-1.2256619930267334,9.775090217590334,-0.0005934711662121118,-0.0067671602591872215,-0.008204983547329903
3.9176602363586426,-1.2201272249221804,9.772741317749023,-5.786134715890512e-05,-0.0033342835959047083,-0.00872775912284851
3.926830291748047,-1.2064454555511475,9.758297920227053,-0.0005542304716072978,-0.0008514051442034544,-0.007658031769096851
3.904144287109375,-1.2237815856933594,9.799308776855469,-0.0018776362994685771,-0.0016195152420550585,-0.005750907119363547
3.918915987014771,-1.2919590473175049,9.820689201354982,-0.004642261657863856,-0.0029092631302773952,-0.004794785752892494
3.934988498687744,-1.2329509258270264,9.78335475921631,-0.003507350105792284,-0.0019234864739701154,-0.005319144576787949
3.973157167434693,-1.1952091455459597,9.78626346588135,-0.00454720063135028,0.004224982578307391,-0.0005758526967838407
4.006621837615968,-1.1978634595870974,9.735858917236328,-0.0033911126665771008,0.01248478051275015,0.0029267529025673866
4.035754203796387,-1.168854355812073,9.75452995300293,-0.00045657914597541094,0.024685690179467205,0.009191139601171018
4.052664279937745,-1.1201438903808594,9.765718460083008,-0.0011430701706558466,0.0401376523077488,0.020974893122911453
3.9813528060913086,-1.204545497894287,9.749147415161133,0.00018868478946387768,0.05209369957447052,0.026986131444573406
3.999801397323609,-1.2920049428939822,9.692271232604982,0.0030158082954585552,0.06448227912187578,0.03150101751089096
3.9263648986816406,-1.182800054550171,9.720827102661133,0.0082840146496892,0.07570943236351013,0.03405559062957764
3.5564746856689453,-1.2676641941070557,9.587644577026367,0.007791162468492985,0.075434647500515,0.03223218023777008
3.5042152404785156,-1.5029709339141846,9.854069709777834,-0.0046890899538993835,0.04194530099630356,0.019167391583323482
3.7465193271636967,-1.0829048156738281,9.900986671447756,-0.012024959549307823,0.02130953781306744,0.011309739202260971
3.7867243289947514,-0.9975172877311708,9.837987899780273,-0.03588852658867837,0.00559673085808754,0.017252251505851746
3.8426730632781987,-1.0371332168579102,9.823440551757812,-0.055535197257995605,0.001140357810072601,0.02717592567205429
3.9200310707092285,-1.260582447052002,9.76985836029053,-0.06099487096071243,0.003997164778411388,0.032385308295488364
3.8795068264007573,-1.4316803216934206,9.675135612487795,-0.052213642746210105,0.015623733401298523,0.031643513590097434
3.9465215206146245,-1.5124881267547607,9.696660995483398,-0.035470757633447654,0.03115701675415039,0.02680860459804535
3.935425281524658,-1.6321021318435671,9.66215705871582,-0.008855065330862999,0.05544054880738259,0.018426209688186646
3.8873491287231445,-1.561944127082825,9.723427772521974,0.0159614235162735,0.06857779622077942,0.011849007569253446
3.8112070560455327,-1.4978883266448975,9.798535346984865,0.030720572918653488,0.07361572235822679,0.0068280985578894615
3.709336757659912,-1.4061583280563357,9.858181953430178,0.041693732142448425,0.06404588371515275,-0.002015753416344524
3.6516590118408203,-1.2737295627593994,9.936482429504396,0.03485755994915963,0.04682735353708267,-0.00809935573488474
3.7046864032745366,-1.1681655645370486,9.90632724761963,0.02669877000153065,0.03137090429663659,-0.010501144453883171
3.7136819362640385,-1.1582057476043701,9.946277618408203,0.019249850884079937,0.012684838846325874,-0.012041178531944753
3.7375795841217045,-1.2283530235290527,9.917752265930178,0.010427799075841904,-0.000256567873293534,-0.011552046053111555
3.8082032203674316,-1.3045183420181277,9.817193984985352,0.007925619371235372,-0.0070603471249341965,-0.011839491315186025
3.7881071567535405,-1.3052475452423096,9.851344108581545,0.010231506079435349,-0.009059540927410126,-0.011884472332894804
3.802099943161011,-1.3101521730422976,9.830680847167969,0.012155541218817236,-0.011239493265748024,-0.013474843464791776
3.780420064926148,-1.2740836143493652,9.847723007202148,0.014333290047943594,-0.012034721672534943,-0.01609298586845398
3.7799398899078374,-1.2728700637817383,9.892029762268068,0.013948370702564718,-0.014493180438876152,-0.01566477678716183
3.7686154842376713,-1.2666575908660889,9.863596916198732,0.01180826872587204,-0.01872403919696808,-0.01707602478563786
3.7164511680603027,-1.2061774730682373,9.833039283752443,0.011074557900428772,-0.024207582697272304,-0.020959537476301193
3.670850038528443,-1.2255381345748904,9.825937271118164,0.004236238542944194,-0.03668125718832016,-0.023866690695285797
3.8196282386779785,-1.2854071855545046,9.76760768890381,0.0019643593113869433,-0.03913538157939911,-0.026913696900010112
3.790024757385254,-1.222785234451294,9.83382797241211,0.0025668081361800437,-0.03914168849587441,-0.027905084192752838
3.8294806480407715,-1.2778198719024658,9.789619445800781,0.0010338014690205457,-0.040788665413856506,-0.026194440200924877
3.8853797912597656,-1.3377040624618532,9.728813171386719,0.007950405590236189,-0.03187984228134155,-0.027296889573335648
3.7643513679504395,-1.36972975730896,9.799406051635742,0.01974434033036232,-0.020261852070689205,-0.0291103795170784
3.774059772491455,-1.2623552083969118,9.825219154357912,0.01899557746946812,-0.024215577170252803,-0.03363566845655441
3.7957251071929936,-1.2083382606506348,9.84554195404053,0.01756706647574902,-0.030979380011558533,-0.035928133875131614
3.8044664859771733,-1.192575454711914,9.763270378112795,0.015060142613947393,-0.03511869162321091,-0.03380364924669266
3.769406318664551,-1.32999849319458,9.8150110244751,0.013326113112270834,-0.03757090866565704,-0.03792356327176095
3.749955177307129,-1.3427374362945557,9.801803588867188,0.02295193634927273,-0.037519041448831565,-0.043614551424980164
3.6049818992614746,-1.3455241918563845,9.730568885803224,0.025842033326625824,-0.04699107632040978,-0.05722542107105255
3.687668800354004,-1.0199284553527832,9.93108654022217,0.009644049219787123,-0.07379457354545593,-0.06286847591400146
3.8326652050018315,-1.2340942621231081,9.705592155456545,-0.003811667673289776,-0.08367309719324113,-0.060596294701099396
3.767013311386109,-1.1410230398178103,9.722044944763185,-0.006772679276764393,-0.09205852448940277,-0.05794362351298333
3.7112171649932866,-1.1017372608184814,9.809524536132812,-0.015149987302720548,-0.10615609586238861,-0.057555284351110465
3.551442384719849,-1.5446671247482302,9.737498283386232,0.0035949652083218098,-0.11780586093664171,-0.08000826090574266
3.5669102668762207,-1.2595013380050661,9.830138206481935,0.009959920309484007,-0.141304612159729,-0.10403197258710863
3.641122341156006,-0.9936587214469911,9.92904281616211,-0.009585630148649216,-0.17793715000152588,-0.10888702422380449
3.5970559120178223,-1.317204236984253,9.735183715820312,-0.011226879432797432,-0.2085458189249039,-0.11599193513393402
3.3491308689117436,-1.355422377586365,9.95539951324463,-0.0014205024344846608,-0.26785439252853394,-0.14341780543327332
3.715569496154785,-1.167480707168579,10.027931213378906,0.001633400795981288,-0.3300302922725678,-0.16298732161521912
3.1475789546966557,-1.4307861328125,10.08985996246338,0.0013188294833526017,-0.3961761295795441,-0.18400046229362488
3.535651206970215,-0.9965291023254395,10.312686920166016,-0.005356363486498595,-0.5129544734954834,-0.22528024017810824
3.8209939002990723,-0.8969606161117554,10.244218826293945,-0.017501309514045715,-0.6046929955482484,-0.22314940392971042
3.599799633026123,-1.2901118993759157,10.024913787841797,0.007712388411164284,-0.6915863156318666,-0.2094479203224182
3.972324848175049,-0.8970454931259155,10.114993095397951,0.03810430318117142,-0.7970818281173706,-0.18058182299137118
4.073085784912109,-0.7671204805374146,10.018302917480469,0.02402031421661377,-0.8793557286262513,-0.13135972619056702
3.4939098358154297,-1.4148720502853396,9.818788528442383,0.03289961442351342,-0.984784722328186,-0.12072007358074188
3.8157894611358647,-1.0806705951690674,10.073401451110842,0.02516564354300499,-1.1320773363113406,-0.1327095627784729
3.885838031768799,-0.8198280334472656,10.15732192993164,-0.004339247010648251,-1.2669830322265625,-0.12337840348482133
3.764628648757935,-1.183042645454407,9.799639701843263,-0.024926215410232544,-1.4032047986984255,-0.13711515069007874
4.012465476989746,-1.2660962343215945,9.837078094482422,-0.022462209686636928,-1.5574328899383545,-0.17349767684936523
4.34079647064209,-0.8293997645378114,9.843130111694336,-0.04639959707856179,-1.6911685466766357,-0.1874116510152817
4.34326982498169,-1.1679278612136843,9.809974670410156,-0.045471776276826865,-1.8281251192092898,-0.19587773084640503
4.446409702301026,-1.3283449411392214,9.70949935913086,-0.02672882564365864,-1.9655563831329346,-0.23052270710468295
4.481308937072754,-1.409872055053711,9.566962242126467,-0.0280305277556181,-2.1004586219787598,-0.27707988023757935
4.872452735900879,-1.1665310859680176,9.633359909057617,-0.04261289909482003,-2.264680862426758,-0.3152060210704804
4.834926128387452,-1.0830692052841189,9.351409912109375,-0.037552904337644584,-2.4042565822601323,-0.3562338352203369
4.745215892791749,-1.111640453338623,9.075768470764162,0.03191852942109109,-2.662919521331787,-0.41845753788948065
5.021027088165284,-0.9114862084388734,9.299502372741701,0.14471216499805453,-3.0298333168029785,-0.46126145124435425
5.0600128173828125,-1.4689757823944092,9.341294288635256,0.2715269029140473,-3.404930591583252,-0.4866818487644196
5.746808052062988,-1.5905820131301882,9.573980331420898,0.4388517737388611,-3.8513107299804688,-0.5311016440391542
6.813097953796387,-1.602025628089905,9.977598190307617,0.4634906053543091,-4.224963665008546,-0.518227219581604
8.084301948547365,-1.109366059303284,11.050877571105959,0.40950694680213934,-4.4265851974487305,-0.4599969983100891
10.112481117248537,-1.82883620262146,11.944534301757812,0.33242297172546387,-4.417500972747804,-0.38460099697113037
11.40676498413086,-3.618467330932617,12.380967140197756,0.4962259232997895,-4.368675708770753,-0.39031195640563965
13.973400115966797,-3.733265638351441,13.478927612304688,0.8015965223312378,-4.2389798164367685,-0.5351314544677734
19.27928733825684,-4.03355598449707,13.71624755859375,1.0479965209960938,-3.976047277450562,-0.7440134882926942
25.107330322265625,-4.4245405197143555,9.717905044555664,1.4669357538223269,-3.7567977905273438,-1.0007959604263308
29.10212898254395,-4.567625045776367,5.810815811157227,2.0958023071289062,-3.7739176750183105,-1.389106631278992
33.94145965576172,-2.729702711105347,7.941689491271973,2.895127773284912,-3.4803235530853276,-1.623882532119751
30.16427993774414,2.2902746200561523,5.124464511871339,3.0769565105438237,-3.0035195350646973,-1.629448413848877
36.89398956298828,8.068421363830568,10.055206298828125,1.7395011186599734,-3.1435933113098145,-1.5101181268692019
36.65970993041993,3.022078514099121,19.07671928405762,0.036794595420360565,-1.9611456394195557,-1.4088953733444216
24.605323791503906,0.5740123987197876,13.500628471374513,-1.313784718513489,-1.3116660118103027,-1.051093935966492
21.745323181152344,-3.5186650753021245,12.014822006225586,-1.8449627161026003,-1.2809867858886719,-0.9327541589736938
16.833749771118168,-7.1791090965271005,10.615005493164062,-1.527432918548584,-1.3383532762527468,-0.8313648700714111
14.842184066772461,-9.221256256103516,11.634109497070312,-0.6368679404258729,-1.467490077018738,-0.792489767074585
13.733657836914062,-7.965829849243164,13.305437088012695,0.3940225839614868,-1.2760149240493777,-0.677643895149231
10.935087203979492,-4.663162708282472,14.638051986694336,1.0201609134674072,-0.8407484889030458,-0.4853644669055939
9.425268173217773,-1.5483319759368896,16.103740692138672,0.9454951286315918,-0.21077172458171847,-0.26783448457717896
6.287375450134277,-0.2567751407623291,15.038823127746584,0.5779349207878114,0.6484809517860414,-0.13525810837745667
1.4718286991119385,-1.1470935344696045,11.299139022827148,0.42421722412109375,1.3138538599014284,-0.24029621481895447
-3.328822612762451,-0.989180624485016,7.0008864402771005,0.5156635046005249,1.5286585092544558,-0.42754521965980535
-5.337024211883546,-0.862059473991394,5.092660903930664,0.6265369057655336,1.4121172428131104,-0.5813871026039125
-5.38442325592041,-0.6746910810470581,5.834056854248047,0.5633511543273926,1.367311954498291,-0.5457968115806581
-6.176458358764648,-1.4594556093215945,6.534918785095215,0.4034857749938965,1.6062196493148806,-0.35039716958999634
-7.880603313446046,-2.2268249988555913,6.285708904266358,0.26590174436569214,1.9416495561599734,-0.11882068961858751
-9.136502265930178,-2.746909379959107,5.051198959350586,0.15908566117286682,2.28369688987732,0.12759143114089966
-10.933043479919435,-2.5546669960021973,2.3572676181793217,0.1253291666507721,2.5003743171691895,0.34572491049766546
-12.204238891601562,-1.2952038049697878,0.1882215887308121,-0.010048910044133665,2.4865097999572754,0.5427871346473695
-12.06494998931885,-0.6276023983955384,-0.3652476370334626,-0.30374675989151,2.396382570266724,0.7258755564689637
-10.888465881347656,-0.9257596731185913,0.5889107584953309,-0.5723015069961548,2.405880689620972,0.8593486547470093
-9.253830909729006,-1.4006366729736328,2.0711240768432617,-0.7397475838661195,2.616463899612427,0.9963964223861694
-8.35893440246582,-1.4941108226776123,2.115162611007691,-0.785808801651001,2.9777505397796635,1.1346192359924316
-8.395586967468263,-0.8020201325416566,0.5524180531501771,-0.7936074137687684,3.2534756660461426,1.2394897937774658
-8.212386131286623,0.5524551868438721,-0.7694519758224487,-0.8875142931938172,3.3489990234375,1.3364838361740115
-7.198627948760987,1.8141343593597412,-0.5871037840843202,-1.0695358514785769,3.358681917190552,1.4164206981658936
-5.0772294998168945,2.667950868606568,0.71616530418396,-1.208757281303406,3.4236650466918945,1.4434765577316286
-2.6923694610595703,3.9343869686126713,1.8617860078811648,-1.2537827491760254,3.566255331039429,1.3512893915176394
-0.6356757879257202,5.782286643981934,2.91019868850708,-1.2859779596328738,3.671077251434326,1.0814105272293093
4.038241386413574,6.042193889617921,5.618386745452882,-1.4034647941589355,3.7849392890930176,0.6544385552406312
9.609311103820803,3.9054551124572754,7.938802242279054,-1.270442008972168,4.083231449127198,0.23404300212860107
12.188771247863771,2.8765311241149902,6.522514343261719,-0.8106809258461,4.379458427429199,-0.08301189541816711
13.386665344238281,3.248159885406494,3.224304676055908,-0.43408349156379705,4.302995681762695,-0.23167069256305697
14.539520263671875,2.8850753307342534,1.2697961330413818,-0.2554191648960114,3.8787090778350835,-0.15615728497505188
16.794340133666996,2.193972110748291,1.8210064172744753,-0.18307156860828402,3.34987735748291,0.12165734916925432
18.555883407592777,0.4286484718322754,1.700732946395874,-0.05462351441383362,2.889816522598267,0.5045128464698793
17.735258102416996,0.2970032989978791,-0.38782674074172974,0.17441347241401672,2.3065917491912846,0.898342490196228
15.791758537292482,2.1379187107086186,-2.167879581451416,0.22101624310016635,1.493887543678284,1.1706664562225342
14.839024543762209,2.5906715393066406,-2.0858371257781987,0.11199754476547241,0.6249948143959047,1.2480494976043701
13.885320663452148,2.3194611072540288,-1.506103515625,0.15904992818832397,-0.11530878394842149,1.0960482358932497
11.583836555480959,2.392279386520386,-0.8760451674461366,0.3137092590332031,-0.7777079939842225,0.7323329448699951
80.87187194824219,25.839096069335938,43.788768768310554,-3.8953840732574467,-2.0771629810333256,1.3535993099212646
24.385091781616214,-2.1994369029998784,4.064239978790284,-1.0806355476379395,3.7622473239898686,-0.4631308317184448
8.068626403808594,-10.210635185241701,13.063514709472656,-0.5195471644401551,2.0567374229431152,0.8560751676559448
-4.529455184936523,-5.045070648193359,10.122407913208008,-0.33411976695060736,2.0826358795166016,0.8312852978706361
-5.000810623168945,-0.09176601469516754,12.375760078430178,-0.0036247533280402426,0.7526333928108216,0.18642383813858032
-2.392796516418457,-7.496535301208496,10.802040100097656,-0.12691640853881836,0.32655534148216253,-0.45504242181777954
1.7082738876342773,-2.6901416778564453,12.01834487915039,-0.13571250438690186,-0.2030412405729294,-0.30770972371101385
4.304954051971436,2.887879610061646,10.614991188049318,-0.2832236886024475,-0.4098497927188874,-0.2950729727745056
7.1541104316711435,0.5231942534446717,9.476967811584474,-0.4195440411567688,-0.34869635105133057,-0.05024813488125802
7.229173183441163,-0.7231029868125917,9.121159553527834,-0.3997521102428437,-0.15702056884765625,0.15688021481037143
6.218823909759522,-1.8113404512405398,8.956791877746584,-0.3185991644859314,0.08800179511308671,0.20883201062679294
5.024637699127198,-2.448901653289795,9.094536781311037,-0.21294139325618747,0.23152461647987366,0.16452376544475558
4.480936527252198,-1.9511339664459229,9.49830436706543,-0.1464640200138092,0.2968607544898987,0.13364739716053012
4.338301181793214,-0.992069184780121,9.796964645385742,-0.14863820374011996,0.30099213123321533,0.14765642583370212
4.110418319702148,-1.1980111598968506,9.905473709106445,-0.17858591675758362,0.2904034554958344,0.1976389139890671
3.6797320842742924,-1.9080052375793457,9.878915786743164,-0.15349644422531128,0.23795036971569064,0.21061444282531738
3.2750756740570073,-2.30255675315857,9.939128875732422,-0.11110382527112962,0.16757510602474215,0.16201239824295044
3.316922187805176,-2.165034294128418,9.953833580017092,-0.07384195923805237,0.07592763751745225,0.08833487331867218
3.371881723403931,-1.4078195095062256,10.140915870666506,-0.07599808275699615,-0.013597301207482817,0.043768342584371574
3.9066169261932377,-1.2329692840576172,10.134897232055664,-0.1014522910118103,-0.09977727383375169,0.01728421449661255
3.9934957027435307,-1.4487247467041016,9.69264316558838,-0.11652977764606476,-0.10912135243415833,0.04843709990382195
4.148227214813233,-1.195258975028992,9.70606327056885,-0.14492617547512057,-0.11295297741889954,0.05262019112706185
3.6691365242004395,-1.3573954105377197,9.803746223449709,-0.15619513392448425,-0.19944538176059726,0.015011849813163282
4.06716012954712,-1.160510540008545,10.050784111022951,-0.19795130193233493,-0.21478340029716492,0.030814556404948238
3.9105634689331055,-1.7588050365447998,9.69640636444092,-0.2173561453819275,-0.20534923672676086,0.06288672238588335
4.045782089233398,-2.090880155563355,9.60291862487793,-0.201289564371109,-0.22820408642292025,0.047751203179359436
3.875706672668457,-1.8859583139419558,9.143172264099123,-0.1625138968229294,-0.3050086498260498,-0.025479935109615326
4.6046247482299805,-1.0576918125152588,9.569239616394045,-0.19227166473865512,-0.24270817637443542,0.009324452839791776
4.556833744049073,-1.5589919090270996,9.725138664245607,-0.18329899013042453,-0.2515320479869843,0.02296406403183937
4.495068550109863,-1.9388840198516846,9.427428245544435,-0.18520566821098328,-0.19735296070575717,0.03678594529628754
4.748050212860108,-1.802051067352295,9.520612716674805,-0.166990727186203,-0.16896300017833712,0.032486233860254295
4.093645095825195,-2.010842800140381,9.154762268066406,-0.14220868051052096,-0.15008696913719177,0.026877289637923244
4.49675178527832,-1.7504414319992068,9.340029716491701,-0.14607053995132446,-0.12182150781154633,0.03168204054236413
4.588550567626953,-1.8119521141052246,9.48762607574463,-0.13790662586688998,-0.07945039868354797,0.064155749976635
3.6158008575439453,-2.718708753585816,9.109778404235842,-0.08474741876125336,-0.13799361884593966,-0.00535062374547124
4.2650909423828125,-2.139834403991699,9.396451950073242,-0.0817207917571068,-0.11063505709171295,-0.016489734873175625
4.4126858711242685,-2.132843494415283,9.39809799194336,-0.01758803054690361,-0.12159298360347748,-0.04116035625338555
4.592947959899902,-1.777669906616211,9.357608795166016,-0.020020417869091034,-0.08056486397981645,-0.026515699923038483
4.399075508117676,-1.6024436950683594,9.307579040527344,-0.022188676521182064,-0.04326283186674118,-0.013459412381052971
4.285715579986573,-1.8330821990966797,9.387041091918945,-0.01909184455871582,-0.033795561641454704,-0.007706904783844948
4.059627056121827,-2.019736528396607,9.330142021179201,-0.005414759740233421,-0.04107397049665451,-0.022449398413300518
3.682739734649658,-2.2431733608245854,9.32363796234131,0.015386124141514303,-0.09021404385566711,-0.06056081876158715
4.345381259918214,-1.9587492942810059,9.427699089050295,0.03285439312458038,-0.1451198607683182,-0.10771442204713823
4.125369548797608,-1.4462335109710693,9.53603267669678,0.019898906350135803,-0.14162836968898776,-0.09751236438751221
4.075869083404542,-1.6027117967605593,9.392214775085451,-0.005386002827435733,-0.16326649487018588,-0.0987178385257721
3.816840171813965,-1.7998087406158447,9.641923904418945,-0.018450651317834854,-0.2083416134119034,-0.12013931572437286
3.726248264312744,-1.931880235671997,9.609310150146484,0.01386890094727278,-0.2834877371788025,-0.15584412217140198
4.0336713790893555,-2.1111986637115483,9.4673547744751,0.03990411013364792,-0.3430186808109284,-0.19829431176185608
4.014723300933839,-1.833661198616028,9.380025863647461,0.0571732372045517,-0.39041608572006226,-0.22810651361942294
4.141151428222656,-1.634588122367859,9.690948486328125,0.07017660886049272,-0.4594762921333313,-0.25529798865318304
4.387450218200684,-1.8159259557724001,9.283322334289553,0.08624570071697235,-0.4990349709987641,-0.27439537644386297
4.375312328338624,-1.327461123466492,9.532658576965334,0.08679617941379547,-0.5566312670707704,-0.2811054587364197
4.331138610839844,-1.0606355667114258,9.66149425506592,0.050501130521297455,-0.6347864866256714,-0.2697294652462006
3.9514245986938477,-1.6061065196990967,9.558347702026367,0.04481847584247589,-0.7564960122108461,-0.2728506922721863
3.343169689178467,-1.880320191383362,9.722488403320312,0.06422729790210724,-0.9114145636558534,-0.33092460036277777
3.820263385772705,-2.3686842918395996,9.585278511047365,0.1098509132862091,-1.0762177705764773,-0.4169061779975891
5.079728126525879,-1.7975035905838015,9.094704627990724,0.15794619917869568,-1.2204656600952148,-0.44045826792716986
4.9905362129211435,-0.943342924118042,9.194503784179688,0.16404645144939425,-1.2929162979125977,-0.36796382069587713
4.815470218658448,-0.9663279652595521,9.385998725891115,0.1490094214677811,-1.4285435676574707,-0.3033140301704407
4.734323978424073,-0.795264720916748,9.975299835205078,0.11832915246486664,-1.5517455339431765,-0.250326931476593
4.246442317962647,-1.036996841430664,9.85725498199463,0.06481609493494035,-1.7638138532638552,-0.2537310719490051
4.577787399291992,-1.1452882289886475,10.082509994506836,-0.00535842264071107,-1.9852583408355713,-0.30168583989143377
4.827778339385987,-1.7561016082763672,10.483835220336914,-0.05844372510910034,-2.2159688472747807,-0.3441117107868195
4.2380170822143555,-3.073904037475586,10.159507751464844,0.054983384907245636,-2.384863138198853,-0.4348384737968445
4.529017448425293,-1.944364070892334,9.600936889648438,0.17332987487316134,-2.7493503093719487,-0.5453760623931885
4.2837538719177255,-2.383179187774658,8.805183410644531,0.30100512504577637,-3.0951769351959233,-0.685700535774231
4.7727980613708505,-1.7361347675323486,8.770913124084474,0.4232643246650696,-3.587072610855103,-0.8095467686653138
5.1385769844055185,-1.0523762702941895,8.670325279235842,0.5037176609039307,-4.128140926361085,-0.870067834854126
6.110515117645265,-0.6157201528549194,9.185731887817383,0.5246953964233398,-4.706131935119629,-0.8361341357231141
7.520021915435792,-0.6225259304046631,9.995332717895508,0.49325740337371826,-5.190473079681397,-0.7315490245819092
9.27848529815674,-1.1747314929962158,10.4744348526001,0.4221743047237397,-5.500041961669922,-0.6055840253829956
12.558095932006836,-1.822575330734253,11.159577369689943,0.32693436741828924,-5.499985694885254,-0.4360573589801789
14.209179878234865,-3.023151397705078,10.949038505554201,0.2911311984062195,-5.174782752990723,-0.33143499493598944
17.995035171508793,-2.8812594413757324,11.80715560913086,0.49705612659454346,-4.670693874359132,-0.3542885184288025
22.1138916015625,-1.3836244344711306,11.873830795288086,0.13270357251167297,-4.0663723945617685,-0.20544917881488803
24.643899917602543,0.67645263671875,8.214639663696289,-1.06168532371521,-3.4372069835662846,-0.02677105739712715
22.008136749267578,-2.170504570007324,-1.606892228126526,-1.6663514375686648,-3.353235006332398,-0.36350053548812866
27.002172470092777,-6.765361309051515,-3.984744071960449,-0.8471969366073608,-3.732193231582642,-1.0460355281829834
25.341285705566406,-8.117469787597656,-4.193267822265625,0.6830130219459535,-4.0900468826293945,-1.6626040935516357
23.863445281982422,-6.021400451660156,-4.1165432929992685,2.1297800540924077,-4.769354820251465,-2.261070013046265
33.126197814941406,-2.814570903778076,4.153940200805664,2.943535327911377,-5.509208679199219,-2.799129724502564
31.137334823608402,-0.37631022930145264,12.489939689636232,2.913893222808838,-4.8120436668396005,-2.9732279777526855
24.95325469970703,4.240496158599854,11.571269035339357,2.023261070251465,-4.272334575653077,-3.1506698131561284
22.892257690429688,4.083071231842042,13.823143005371094,0.8546372652053833,-3.639863729476929,-3.48099422454834
17.907079696655277,1.809517025947571,13.556225776672365,-0.24129065871238708,-3.0239224433898926,-3.7215764522552495
15.088274955749513,-1.371537685394287,14.786314010620117,-0.9410230517387391,-2.50278377532959,-3.924010515213013
13.111490249633789,-5.472314834594727,15.958364486694336,-1.2745134830474854,-1.8290723562240603,-3.9288804531097417
10.490531921386719,-11.887205123901367,16.112306594848636,-0.7654039263725282,-0.954674243927002,-3.7276446819305424
7.093144893646241,-14.49532985687256,15.600959777832031,0.5494827032089233,-0.14309999346733093,-3.331971883773804
3.2867279052734375,-12.032305717468263,14.573464393615724,1.5873868465423584,0.6295129656791688,-2.701293468475342
-1.9392045736312868,-8.789759635925295,12.579639434814453,2.0151932239532475,1.1867821216583252,-2.0396761894226074
-7.198362827301026,-6.500563144683839,9.914579391479492,1.8116731643676758,1.4201804399490359,-1.346526861190796
-10.16903305053711,-5.188805103302003,8.225059509277344,1.2819030284881592,1.3816494941711426,-0.7443174719810487
-10.406447410583498,-4.69721794128418,8.042057991027834,0.6145915389060975,1.3232603073120117,-0.18421231210231784
-9.25352191925049,-5.287534713745117,9.060893058776857,0.012636191211640837,1.3934412002563477,0.38062584400177
-7.982599735260011,-6.242641448974609,10.116358757019045,-0.34751388430595404,1.6602277755737305,0.9201996922492982
-6.886584281921387,-6.35822868347168,10.68881130218506,-0.422466516494751,2.0943551063537598,1.3975762128829958
-6.993789196014405,-5.375103950500488,10.432505607604982,-0.35943615436553955,2.5730054378509526,1.7664711475372314
-7.132828235626222,-3.5861592292785645,9.703352928161623,-0.3867867290973664,2.9854679107666016,2.037872791290283
-6.53619146347046,-1.5405538082122803,9.159187316894531,-0.5913622379302979,3.3291695117950444,2.2410922050476074
-6.072673797607422,-0.5540995597839355,8.423059463500977,-0.8832486271858216,3.656333684921265,2.36159610748291
-5.458028793334961,0.0040966421365737915,7.827179431915284,-1.1119401454925537,3.911181211471558,2.389033317565918
-4.352136135101319,0.38374048471450806,7.61591386795044,-1.2614853382110596,4.121208667755128,2.357686281204224
-2.827224969863892,0.4524344205856323,7.889129638671875,-1.3121398687362673,4.338942527770996,2.2706720829010014
-1.3994606733322146,0.7933434247970581,8.303457260131836,-1.3094388246536257,4.587176799774171,2.1472554206848145
-0.16028249263763428,1.3423031568527224,8.668834686279297,-1.319909453392029,4.841777801513672,2.0075776576995854
0.9231777191162109,1.9500043392181396,8.860867500305178,-1.3934055566787722,5.082790374755859,1.8521943092346191
2.2094376087188725,2.138364791870117,9.135307312011719,-1.5070931911468506,5.272155284881593,1.6892476081848145
4.060962677001953,1.9670844078063965,9.663437843322756,-1.6038345098495486,5.418008327484132,1.538358211517334
5.862518787384034,1.505057215690613,10.27473545074463,-1.6500142812728884,5.538752555847168,1.419985890388489
7.338747024536133,1.283869981765747,10.910043716430664,-1.6291179656982422,5.604258060455323,1.3111773729324343
9.004026412963867,0.7147086262702943,11.293970108032227,-1.5596504211425781,5.63513994216919,1.1975245475769043
10.754985809326172,-0.3637412190437317,11.354591369628906,-1.3910068273544314,5.600059032440186,1.1243207454681396
12.143256187438967,-0.9517968893051147,11.402704238891602,-1.1421384811401367,5.479235172271729,1.1178691387176514
13.031186103820803,-0.046958357095718384,11.529180526733398,-0.96220862865448,5.270879268646241,1.1853870153427126
13.35441780090332,1.792299747467041,11.219223022460938,-1.0050132274627686,4.958040714263917,1.2643287181854248
13.268002510070803,3.4974632263183594,10.757321357727053,-1.2490152120590212,4.49834966659546,1.2519066333770752
13.751087188720703,4.581067085266113,11.642312049865724,-1.5116114616394043,3.9349620342254643,1.0334384441375732
16.202709197998047,5.055476188659668,14.06541156768799,-1.7221779823303223,3.4877860546112065,0.5878446698188783
20.84452629089356,4.349400997161866,16.401735305786136,-1.850591540336609,3.3544154167175293,0.05352463200688363
24.034805297851562,5.4326982498168945,17.611700057983402,-1.9535470008850098,3.495656967163086,-0.35501292347908026
24.454425811767578,8.686332702636719,16.819656372070312,-2.3756022453308105,3.778117418289185,-0.5692096948623657
22.971324920654297,10.511505126953125,13.904410362243654,-3.1212573051452637,3.9930469989776616,-0.6891605257987977
22.33400917053223,8.956074714660646,10.718000411987305,-3.5835485458374023,4.005256175994874,-0.8660110235214233
21.751941680908203,6.630144596099854,7.572476863861085,-3.3273186683654785,3.860492706298828,-1.159093737602234
19.909818649291996,6.510274410247804,4.12187147140503,-2.639079809188843,3.508976936340332,-1.5023661851882937
17.499338150024418,7.978058815002441,0.6075417995452881,-2.0217199325561523,2.9055416584014897,-1.8831430673599245
17.04677963256836,10.53133296966553,-2.91099762916565,-1.8276494741439822,2.123000144958496,-2.2394030094146733
16.489761352539062,5.555721282958984,-6.455829620361328,-1.6506105661392214,1.1934508085250857,-2.5252766609191895
19.188669204711918,-1.5813112258911133,-11.252737998962404,0.5273019075393677,-0.21907781064510348,-2.961721420288086
20.078777313232422,4.785189151763917,-11.279391288757326,2.525373220443726,-1.4173355102539062,-3.2443156242370605
6.493546962738038,12.409698486328125,4.395902156829835,2.4515316486358647,-1.878864049911499,-2.7120788097381596
2.073257207870484,-5.267518997192383,19.512893676757812,0.9743583798408509,-1.7093690633773806,-0.787429690361023
4.383514881134034,-17.05474853515625,17.46535873413086,1.1309666633605957,-2.3493907451629643,-1.0187532901763916
12.90195941925049,-12.94947624206543,12.302191734313967,1.0896040201187136,-2.3375821113586426,-1.0421884059906006
14.170333862304688,-3.386000156402588,12.740840911865234,1.1791505813598633,-1.8729332685470583,-0.48833775520324707
13.042965888977053,5.164570331573487,15.867851257324219,1.0288426876068115,-1.2556426525115967,-0.2686534225940705
9.871023178100586,10.667285919189453,16.67818641662598,0.724014401435852,-0.618433177471161,-0.3827168345451355
3.1230804920196538,2.315363168716431,10.315301895141602,0.3602979481220246,-0.30809861421585083,-0.3649996519088745
4.212360382080078,-3.799785614013672,9.93867301940918,0.23127309978008273,-0.46426576375961304,-0.30425223708152777
5.39710283279419,-1.3430018424987793,10.696775436401367,0.3167790174484253,-0.33839285373687744,-0.31157985329627996
5.104212284088136,0.36020162701606756,10.392678260803224,0.32208138704299927,-0.1544449180364609,-0.2865269184112549
5.443333625793457,-2.008339643478394,10.239923477172852,0.3056387007236481,-0.03311119228601456,-0.247674822807312
4.410714626312257,-1.6282418966293337,9.957853317260742,0.3460641205310822,0.04729717969894409,-0.2077078074216843
3.6253204345703125,-0.8531878590583802,10.347923278808594,0.3307667374610901,0.01995082199573517,-0.21605037152767184
3.2528200149536133,-1.5448203086853027,9.99212169647217,0.28708988428115845,-0.02390723489224911,-0.24078431725502014
4.047062873840332,-0.6342713832855225,10.2603235244751,0.21029441058635714,-0.056808166205883026,-0.23259565234184265
4.598647117614746,-0.2334345728158951,10.22071647644043,0.15654125809669495,-0.04879096522927285,-0.17786407470703125
4.2488250732421875,-0.5500144362449647,10.072166442871094,0.12515376508235934,-0.04555005207657815,-0.12103922665119171
3.990980625152588,-1.1891313791275027,10.001514434814453,0.09819521754980089,-0.05803077667951584,-0.09054995328187944
4.022967815399171,-1.1175029277801514,10.003075599670412,0.06634261459112169,-0.06084258109331131,-0.06365831196308136
4.055009841918945,-0.7900955080986024,9.96603298187256,0.038001533597707755,-0.059167295694351196,-0.045864727348089225
4.0929226875305185,-0.8009157180786133,9.964773178100586,0.01629301905632019,-0.05533766746520996,-0.028769453987479213
3.8594172000885014,-1.1591463088989258,9.859560012817383,0.007743548601865768,-0.0618082843720913,-0.03108740597963333
3.569919347763062,-1.60283100605011,9.656226158142092,-0.0007824240019544959,-0.08708525449037553,-0.03991558030247689
3.6730911731719975,-1.4721444845199587,9.720149993896484,-0.01714664325118065,-0.12694455683231357,-0.04521619528532028
3.9973571300506596,-1.2312742471694949,9.754257202148438,-0.019528148695826534,-0.14253185689449313,-0.04765159636735916
3.959504365921021,-1.136151194572449,9.661386489868164,-0.017075296491384506,-0.1488190144300461,-0.039890117943286896
3.9543740749359135,-1.059545397758484,9.773421287536623,-0.01626864261925221,-0.16182920336723328,-0.036682650446891785
3.9456372261047363,-1.251439929008484,9.662015914916992,-0.010574368759989738,-0.1762797683477402,-0.0442499965429306
4.082218647003175,-1.2066875696182253,9.67473030090332,-0.0038076620548963547,-0.18823114037513733,-0.04806328937411309
4.034445762634277,-1.0407305955886843,9.62594223022461,-0.013412749394774437,-0.18973664939403537,-0.04657670110464096
4.030621051788331,-1.146872162818909,9.604560852050781,-0.016666715964674953,-0.19324180483818054,-0.04676414281129837
3.9019112586975098,-1.20019805431366,9.648463249206545,-0.02015012502670288,-0.20216970145702365,-0.05314221978187561
3.980688810348511,-1.4375622272491455,9.68033218383789,-0.032268542796373374,-0.21361042559146884,-0.057519927620887756
3.923864603042603,-1.6218905448913574,9.649676322937013,-0.02558696083724499,-0.22942689061164856,-0.0705397352576256
4.069321155548097,-1.4529913663864138,9.725396156311037,-0.022325111553072933,-0.2482253909111023,-0.08594681322574615
4.046708106994629,-1.4422703981399538,9.751549720764162,-0.010497411713004112,-0.2572562396526337,-0.102712482213974
4.107745170593262,-1.4395029544830322,9.748127937316896,0.00564081035554409,-0.26637500524520874,-0.12180719524621965
4.152759075164796,-1.3540337085723877,9.758416175842287,0.01281597837805748,-0.28105339407920843,-0.14158695936203003
4.185911178588867,-1.1594303846359255,9.723073959350586,0.013524718582630157,-0.28679689764976507,-0.1539731472730637
4.22803544998169,-1.0378903150558474,9.601716995239258,0.01819986663758755,-0.29459601640701294,-0.16018183529376986
4.1142849922180185,-1.0601104497909548,9.709403991699219,0.008530386723577978,-0.3077556192874909,-0.15818768739700317
4.1456313133239755,-1.203148603439331,9.78756332397461,0.018228916451334957,-0.33610641956329346,-0.16990293562412265
4.264540672302246,-1.38572895526886,9.675008773803711,0.03821292519569397,-0.36262032389640814,-0.18521307408809665
4.176308631896973,-1.3229295015335085,9.757301330566406,0.06283789873123169,-0.40392050147056585,-0.19864782691001892
4.413794994354249,-1.1173809766769411,9.78468990325928,0.06784775108098985,-0.43993023037910467,-0.208433598279953
4.40533447265625,-1.307054400444031,9.615062713623047,0.06426113843917847,-0.47357013821601873,-0.2196996510028839
4.079892158508301,-1.4830714464187624,9.647695541381836,0.05408101901412011,-0.5225614309310913,-0.2541344165802002
4.221464633941651,-1.539783000946045,9.687497138977053,0.05339572951197625,-0.5936679840087891,-0.2982085049152375
4.377471446990968,-1.3500511646270752,9.558286666870117,0.06129479035735131,-0.6510078310966493,-0.3304755687713623
4.5248990058898935,-1.1521923542022705,9.503132820129396,0.061921194195747375,-0.6913785338401796,-0.3544113039970398
4.660292625427246,-1.089459300041199,9.54761600494385,0.05403955653309823,-0.7227911949157715,-0.3713688850402832
4.596936225891113,-1.073725700378418,9.478041648864748,0.06493552029132843,-0.7573081851005555,-0.37467682361602783
4.6469926834106445,-1.0125131607055664,9.532840728759766,0.06280293315649034,-0.8132525086402894,-0.3761053681373596
4.681581497192383,-0.8529765605926514,9.430717468261719,0.055152520537376404,-0.8720580935478212,-0.3707950711250305
4.5907301902771005,-0.7603382468223573,9.434642791748047,0.03465881198644638,-0.9391468167304994,-0.37400797009468084
4.586975574493409,-0.8519716262817383,9.493105888366701,0.02226842008531094,-1.026153564453125,-0.387525886297226
4.528994560241699,-1.0971330404281618,9.402674674987795,0.009441870264708998,-1.1318432092666628,-0.4201771020889282
4.708203315734863,-1.0333566665649414,9.328150749206545,-0.0016653040656819942,-1.2450995445251465,-0.4360825717449189
4.729678630828858,-0.8997960090637207,9.097056388854982,-0.01834408007562161,-1.3428642749786377,-0.449496865272522
4.728802204132081,-0.4978800714015961,8.801306724548342,-0.05055762454867364,-1.4605746269226074,-0.48001047968864446
5.564148426055909,0.07555060088634491,8.847320556640625,-0.1106272265315056,-1.5924037694931032,-0.49226683378219604
5.603025436401367,0.3021591901779175,9.002455711364748,-0.1947114318609238,-1.6015007495880127,-0.42431959509849554
5.50291395187378,0.9617209434509277,8.870545387268068,-0.33676761388778687,-1.6488217115402224,-0.2840725481510163
5.194136142730714,0.6865718364715576,8.64135265350342,-0.46859040856361395,-1.8777565956115723,-0.22882203757762912
6.060443401336671,1.2624603509902956,9.351848602294922,-0.640770673751831,-1.9501125812530518,-0.06251566857099534
4.971954822540284,0.13222050666809082,8.931892395019531,-0.6993100047111512,-2.1622228622436523,0.006773964036256076
5.646142959594727,1.0898783206939697,8.980253219604492,-0.8978602886199951,-2.505632638931275,0.07073190063238145
5.501901149749757,0.603758692741394,8.940725326538086,-1.081193804740906,-2.778172016143799,0.24248965084552768
5.115323543548585,1.813022017478943,9.290591239929201,-1.1812371015548708,-3.354702234268189,0.2877448797225952
5.805719375610352,1.3979175090789795,9.016931533813477,-1.4653663635253906,-3.9066684246063237,0.45673829317092896
6.494642734527589,2.9333355426788335,10.600934982299805,-1.9015518426895144,-4.467663764953613,0.899051308631897
6.782225131988526,1.7939062118530273,11.630109786987305,-2.256398439407349,-5.019783020019531,1.1860831975936892
7.302088260650636,-0.09119637310504913,12.986268043518068,-2.4927382469177246,-5.585906982421875,1.6024519205093386
8.462060928344727,0.2519227862358093,14.83006000518799,-3.001403331756592,-5.982237339019776,1.9346461296081543
9.699041366577148,-1.3318560123443604,16.222209930419922,-3.809248447418213,-6.386090755462647,2.1405055522918706
15.523743629455568,-4.008852958679199,17.092937469482422,-4.7749695777893075,-6.451010704040527,2.0901186466217045
16.106700897216797,-3.938003778457642,16.285116195678714,-5.851050853729249,-6.312124729156495,1.8393113613128662
16.622327804565433,-5.0395097732543945,16.011005401611328,-6.991847515106202,-5.8147430419921875,1.3815635442733767
17.982746124267578,-5.894717216491699,12.89875888824463,-7.96287727355957,-5.407752513885499,1.0746408700942995
20.818511962890625,-6.179619312286378,11.831088066101076,-9.400884628295898,-4.547560214996339,1.1526963710784912
19.235637664794922,-4.536984443664551,11.844920158386232,-10.881983757019045,-3.841316461563111,1.1181037425994873
21.362640380859375,-10.775105476379396,15.067244529724123,-11.591716766357422,-2.280211687088013,0.6134886741638184
12.742102622985842,-13.865223884582521,12.942189216613771,-8.543044090270998,-0.4074465036392212,-1.3279893398284912
28.750516891479496,-14.073523521423342,24.651058197021484,-5.197229385375977,1.4911535978317263,-3.1375832557678223
24.55303192138672,-14.266403198242188,29.22827911376953,-2.0575377941131596,4.415400981903077,-3.543372631072998
8.660824775695803,-3.5932703018188477,15.260563850402834,-0.9853154420852661,5.651504993438722,-3.333314895629883
6.4081130027771005,2.726768255233765,9.788003921508789,-1.2629863023757937,5.918140411376953,-3.4485373497009277
2.758687973022461,4.62266731262207,6.464620590209961,-2.0929627418518066,5.761085987091065,-3.324925422668457
0.038633882999420166,5.282784461975098,4.388956546783448,-2.9145934581756596,5.199749469757081,-3.0193166732788086
0.29815235733985906,3.0974578857421875,4.8843183517456055,-3.3086426258087163,4.880602836608887,-2.753882169723511
3.2835738658905034,-1.0582475662231445,7.064359188079835,-3.083670139312744,4.878803730010987,-2.518872976303101
3.501254796981812,-4.098493576049805,8.621718406677248,-2.0964796543121342,4.972036361694336,-2.200428724288941
3.747797966003418,-2.4634032249450684,10.096264839172365,-1.084183692932129,5.14072322845459,-1.7447460889816286
3.764262914657593,1.3014800548553467,10.43923568725586,-0.6283153295516968,5.450998783111573,-1.229039192199707
3.5577042102813725,3.631197929382324,9.66444206237793,-0.7706790566444398,5.792844772338867,-0.7475990056991577
3.8173434734344487,4.636072635650636,8.817261695861818,-1.1791912317276003,6.039176940917969,-0.3393050134181977
4.797885894775391,4.280883312225343,7.45118284225464,-1.5039361715316775,6.234550952911378,0.01362098753452301
4.346885204315186,3.9260160923004155,5.511314392089844,-1.5141291618347168,6.298058032989503,0.2345673143863678
4.191537857055664,4.490164756774902,4.355977535247804,-1.4029417037963867,6.141352176666261,0.3109778463840485
5.223544120788574,4.746857643127441,4.759449481964112,-1.2894847393035889,5.9133973121643075,0.271639347076416
6.496136665344238,4.915939807891847,5.148838996887207,-1.146480202674866,5.81612253189087,0.1864476203918457
6.383071422576905,5.149954319000245,4.100423812866211,-1.0063683986663818,5.777684688568116,0.0313284769654274
5.644302845001222,5.224737167358398,2.5977783203125,-0.9026577472686768,5.592669010162354,-0.13966657221317294
6.003833770751953,4.845306873321534,1.955165505409241,-0.836449146270752,5.323902606964112,-0.29458874464035034
6.86460828781128,4.099857330322266,1.810319781303406,-0.7647851705551147,5.074909210205078,-0.43150207400321966
8.169817924499513,3.2117457389831543,1.846837043762207,-0.6939248442649842,4.849448204040527,-0.4839365184307099
9.433099746704102,2.0630459785461426,1.331305742263794,-0.5607750415802002,4.638257503509522,-0.4140718877315522
9.667512893676758,1.4181152582168581,0.12845979630947116,-0.35880121588706976,4.319046974182129,-0.2525597512722016
10.156171798706055,0.7675191760063172,-1.248449206352234,-0.11629851907491685,3.8213622570037846,-0.03125140070915222
10.98121452331543,0.8996708989143373,-2.330974578857422,0.139988586306572,3.1601805686950684,0.24379695951938632
12.32668209075928,1.3166990280151367,-2.8014695644378667,0.3085901141166687,2.3739082813262944,0.5414385199546815
14.343500137329102,0.4762949645519257,-2.1644432544708256,0.5649074912071229,1.5695586204528809,0.7773650288581849
16.87834930419922,0.07282475382089616,-0.8532196283340454,0.9844441413879395,0.8972277641296387,0.929854452610016
18.98082733154297,1.0700507164001465,0.10079671442508698,1.3576458692550661,0.41358739137649536,1.0261470079422
20.777330398559574,1.9925090074539187,0.4373837113380432,1.5103487968444824,0.06027095392346383,1.0847474336624148
21.48568344116211,2.3322715759277344,-0.5429368019104004,1.4800127744674685,-0.23117321729660034,1.1144553422927859
19.739429473876953,2.1153023242950444,-2.6403894424438477,1.3442959785461426,-0.6168516874313354,1.0870457887649538
30.062442779541016,7.754449844360352,-5.358045101165772,0.44632735848426824,-1.6345272064208984,1.3829430341720583
64.04531860351562,-13.003860473632812,-3.35267972946167,-0.7016080021858216,-3.275648593902588,1.7579691410064697
34.66442108154297,13.247114181518555,32.17848205566406,1.1648149490356445,-1.6883195638656618,-0.1252877116203308
17.681833267211918,6.333610534667969,26.592201232910156,-0.22963866591453552,1.9078762531280518,0.12547157704830172
-19.445899963378906,-4.160017013549805,-7.866453647613526,-0.3653793632984162,1.1533546447753906,0.18581269681453708
-6.54810667037964,-2.5109837055206303,10.561138153076172,0.50807785987854,-1.3710924386978152,-0.104569248855114
5.806050777435304,-0.30563127994537354,15.328484535217287,0.27283328771591187,-1.109302639961243,-0.8399324417114258
-2.288055896759033,-6.156427383422852,4.389670848846436,0.4261399507522583,-1.203270673751831,-1.1235049962997439
19.342874526977543,0.36479815840721136,17.969041824340824,-0.11544474214315416,-0.4231122136116028,-0.8150295615196229
3.8795616626739506,2.7044985294342045,6.527863502502441,0.014831412583589554,-0.16484721004962924,-0.47909983992576605
8.397211074829102,3.002038717269898,9.460647583007812,-0.11322671175003052,0.35755410790443426,-0.2145373821258545
6.934000492095948,-1.4120281934738161,9.516133308410646,-0.1233610436320305,0.45490178465843206,0.04264332354068756
4.521378993988038,-1.9431027173995974,9.777833938598633,-0.014606933109462263,0.5665915012359619,0.11033540219068529
3.8203427791595463,-2.7454955577850346,10.146100997924805,0.12950357794761658,0.5389639735221864,0.04023051634430886
3.7872574329376225,-1.2942612171173096,10.489216804504396,0.09098704159259796,0.4876908361911774,0.030282724648714066
3.220846176147461,-0.4629628658294678,10.187301635742188,0.047679491341114044,0.36513805389404297,0.00956347305327654
2.931005716323853,-0.25792488455772405,10.40029525756836,0.000465542107122019,0.20792344212532043,0.008805337361991407
2.6393723487854004,-0.1281661093235016,10.76595211029053,-0.09091958403587341,0.01722519658505917,0.045472357422113426
3.061211585998535,-0.6702873706817627,10.58747959136963,-0.17153538763523105,-0.16718420386314392,0.040453430265188224
3.715221881866455,-0.8314586877822876,10.298599243164062,-0.22757889330387118,-0.2816419899463654,0.02094593271613121
4.1540894508361825,-0.660325586795807,10.09864902496338,-0.2678740322589875,-0.32853132486343384,0.024142352864146236
4.4168243408203125,-0.9521141052246094,9.852642059326172,-0.29600322246551514,-0.32549610733985906,0.057230275124311454
4.4380950927734375,-0.8321412205696107,9.872844696044922,-0.3188300132751465,-0.304831475019455,0.1036490648984909
4.043747425079347,-0.8044441938400269,9.909666061401367,-0.35343447327613836,-0.3039752542972565,0.1375001072883606
3.802954435348511,-1.1104511022567751,10.100749969482422,-0.3804667592048645,-0.3426944315433503,0.1517622172832489
3.9574520587921147,-1.4833971261978152,9.96678352355957,-0.3731642067432404,-0.38905996084213257,0.14036083221435547
4.308650970458984,-1.5263170003890993,9.752587318420412,-0.3592792749404907,-0.40870252251625067,0.10962022840976715
4.421172142028809,-1.735483765602112,9.534960746765138,-0.33577522635459905,-0.40879407525062567,0.08754371106624603
4.623095989227296,-1.8263249397277832,9.369462966918945,-0.29870435595512396,-0.37196528911590576,0.06840094178915025
4.720806598663331,-1.7544885873794558,9.333245277404787,-0.27237597107887274,-0.3111479878425598,0.06104232370853424
4.6621060371398935,-1.345940709114075,9.474328041076662,-0.2563122510910034,-0.26755777001380926,0.09264515340328217
4.501026630401612,-1.7358040809631348,9.341262817382812,-0.24085673689842224,-0.22548434138298035,0.10842563956975938
4.586942195892335,-2.0961194038391113,9.199162483215334,-0.20298589766025546,-0.18093770742416382,0.1052229627966881
4.630639553070069,-2.0577490329742436,9.044401168823242,-0.1576271951198578,-0.1139497682452202,0.0896505191922188
4.280821323394776,-1.884289264678955,9.164571762084961,-0.13629940152168274,-0.07513312250375749,0.06683212518692017
4.402183532714844,-1.9132810831069949,9.213197708129883,-0.10824015736579895,-0.05425276607275009,0.06123300269246102
4.3463101387023935,-1.9444674253463747,8.98371982574463,-0.08429945260286333,-0.02357744798064232,0.05779228731989861
4.018740653991699,-2.082704544067383,9.17454719543457,-0.05819452181458474,-0.018396511673927307,0.04465485364198685
3.8363583087921147,-2.128320455551148,9.248109817504883,-0.034888237714767456,-0.03352154418826104,0.004501234740018845
3.4750201702117924,-1.895998477935791,9.453414916992188,-0.028696827590465546,-0.07909572124481201,-0.03532036766409875
3.3419270515441895,-2.231901168823242,9.660210609436037,-0.004403995815664531,-0.1719079315662384,-0.08253196626901628
3.9278962612152104,-2.0502278804779057,9.702432632446289,0.024372156709432602,-0.2533161938190461,-0.13646189868450168
4.552320003509522,-1.200895428657532,9.63528060913086,0.008013702929019928,-0.2698454558849335,-0.15474867820739746
4.5926923751831055,-0.8102914094924927,9.703646659851076,-0.03927605599164963,-0.26495087146759033,-0.1201135888695717
4.508007049560547,-1.0584541559219363,9.566055297851562,-0.08640471845865251,-0.2650662064552307,-0.09083554893732072
3.9829611778259277,-1.476220488548279,9.352470397949219,-0.0970761999487877,-0.289534330368042,-0.09375108778476715
3.717591524124146,-1.9943087100982666,9.480412483215334,-0.06712348014116289,-0.354767382144928,-0.1314456015825272
4.15545415878296,-2.1278300285339355,9.326391220092773,-0.0016589397564530373,-0.4221639633178711,-0.18774677813053134
4.148215770721436,-2.0291690826416016,9.294506072998047,0.0555608868598938,-0.4702614843845368,-0.2365453541278839
3.988100051879883,-1.6539580821990967,9.57404899597168,0.04946797341108322,-0.5232786536216737,-0.26910832524299627
4.025971412658691,-2.0629172325134277,9.448568344116211,0.053562376648187644,-0.6101815700531006,-0.31057426333427435
4.011411666870117,-1.6407692432403564,9.797855377197266,0.05826845020055771,-0.7224956750869751,-0.3652948439121247
3.849536895751953,-1.649153709411621,9.80275630950928,0.07212954759597778,-0.8665506243705751,-0.40752917528152466
3.8660645484924316,-1.168480634689331,9.952267646789553,0.04671133682131768,-1.0628185272216797,-0.4126574397087097
4.502060413360597,-0.6798858642578125,10.154551506042482,-0.017814092338085175,-1.2806056737899782,-0.3709978461265564
4.0639448165893555,-0.4989798069000244,10.160208702087404,-0.12883062660694125,-1.4967888593673708,-0.27907776832580566
3.7686364650726323,-0.4601808786392212,10.374725341796875,-0.21863023936748507,-1.788545846939087,-0.21574281156063083
4.168361186981202,-0.3785367012023926,9.842318534851076,-0.3234377205371857,-2.0948824882507324,-0.15264597535133362
4.005320072174073,-0.14599943161010742,9.880724906921388,-0.4040184319019318,-2.4272990226745605,-0.11053381115198137
4.949770927429199,0.039520472288131714,10.208256721496584,-0.5022061467170716,-2.667601823806763,-0.11796249449253082
4.482520580291749,-0.4077413976192475,10.216250419616701,-0.5383204817771913,-2.9958910942077637,-0.13458730280399325
4.645839691162109,-0.9737975001335145,10.610260009765625,-0.4665749371051789,-3.41691255569458,-0.16215792298316956
3.830504179000855,-4.884483814239503,10.417813301086428,-0.08953239768743516,-4.029524803161621,-0.2586995661258698
5.9418091773986825,-2.8326890468597417,11.718767166137695,0.12966839969158175,-4.6174683570861825,-0.27810317277908325
9.51981830596924,-4.39145565032959,13.523519515991211,0.11613674461841583,-4.8082337379455575,-0.2610418200492859
13.101471900939943,-4.9928741455078125,15.55409336090088,-0.04055120795965195,-4.595925807952882,-0.20759932696819308
15.848695755004883,-7.0788068771362305,14.5103759765625,0.1697204560041428,-4.395839691162109,-0.4368810951709748
25.215755462646484,-6.661455154418945,14.932056427001953,0.75608229637146,-4.145862579345703,-0.7277277112007142
30.601909637451172,-4.115776538848878,10.912239074707031,0.9166406989097596,-3.8942394256591797,-1.048511862754822
31.943929672241214,-5.373991489410401,8.395796775817873,1.2159411907196045,-3.4055006504058842,-1.3058048486709597
27.50833320617676,-2.7908077239990234,7.573625564575195,1.5428485870361328,-3.099922895431519,-1.6705553531646729
37.4682960510254,0.15858620405197144,15.847442626953125,1.3259429931640625,-3.21240234375,-2.1836779117584233
33.74230575561524,-1.3640515804290771,21.693948745727543,0.6521610021591187,-1.8604818582534792,-2.1476426124572754
22.78648185729981,-0.9769589900970459,16.157117843627933,-0.26961913704872137,-1.1063055992126465,-1.9519994258880615
18.15127944946289,-2.9535913467407227,13.819201469421388,-0.847716510295868,-0.9763797521591187,-1.962159037590027
13.3264856338501,-5.3646607398986825,11.707935333251953,-0.9495419263839722,-1.087059736251831,-1.9079684019088747
11.935028076171875,-7.412715911865234,12.034107208251953,-0.608965277671814,-1.2486349344253542,-1.8540184497833252
10.604934692382812,-7.934964656829835,12.833556175231935,0.09233713150024414,-1.1324278116226199,-1.7240122556686404
7.456103801727296,-6.503106594085694,13.048533439636232,0.7233002185821533,-0.8811760544776918,-1.5167701244354248
4.258713245391847,-4.183627605438233,13.294097900390625,0.957322657108307,-0.6034856438636781,-1.2926692962646484
1.7146128416061404,-2.3260445594787598,12.796756744384766,0.8401063680648804,-0.2594053447246552,-1.0672078132629395
-1.6251481771469118,-1.7891837358474734,10.858451843261719,0.6266958117485047,0.11142116785049438,-0.9028147459030151
-4.993896961212159,-1.8326661586761475,9.058396339416506,0.4906424880027771,0.3734306991100312,-0.8164613246917725
-5.861383438110352,-1.4425764083862305,8.791407585144045,0.34067472815513616,0.614866077899933,-0.7294319868087769
-5.87665891647339,-1.8066118955612185,8.638092041015625,0.21529854834079745,1.0174953937530518,-0.5821424126625062
-6.693289756774902,-2.647107839584351,7.861454010009766,0.2088870853185654,1.4532244205474854,-0.3919522166252136
-7.533373832702637,-2.601944923400879,6.9274091720581055,0.25582358241081243,1.7972912788391113,-0.17542783915996554
-8.004750251770021,-1.7241055965423584,5.945459365844727,0.21240904927253723,2.1021056175231934,0.03939632698893548
-8.711171150207521,-1.040330410003662,4.1848249435424805,0.037359483540058136,2.3500511646270756,0.23265370726585388
-9.433279037475586,-0.9464882612228394,2.2580533027648926,-0.1600940227508545,2.4542944431304936,0.4117977917194367
-8.93796157836914,-0.9393856525421143,1.6522612571716309,-0.3256963789463044,2.462526321411133,0.5960212349891664
-7.117112636566163,-1.2549592256546023,2.5430169105529785,-0.41873320937156683,2.5680477619171147,0.8018981218338013
-6.146534442901612,-1.2417646646499636,2.693940401077271,-0.44285270571708685,2.828277587890625,1.0019074678421023
-6.218515872955323,-0.5188692212104798,1.7028459310531618,-0.44804170727729803,3.0587282180786133,1.1642913818359375
-5.42384147644043,0.41870000958442694,1.0064178705215456,-0.5366856455802919,3.205570697784424,1.308967471122742
-4.204061508178711,0.7489805221557617,0.4551375806331635,-0.6161887645721436,3.3181257247924805,1.404905438423157
-2.653133630752564,1.4933463335037234,0.4241864979267121,-0.64495187997818,3.3927860260009766,1.4553900957107546
-0.7896976470947266,2.923109531402588,0.7235119342803955,-0.7252138257026673,3.4557647705078125,1.40934419631958
1.586292386054993,2.9343659877777104,1.329172492027283,-0.8024611473083496,3.531619787216187,1.238293170928955
3.659634351730347,2.494663000106812,1.416828513145447,-0.704718053340912,3.5877501964569096,1.0023293495178223
6.078554153442383,2.033924102783203,1.466276526451111,-0.49811932444572454,3.558617115020752,0.7646281123161317
9.100588798522951,1.5527449846267702,1.8500810861587527,-0.2860686779022217,3.4770457744598393,0.6265471577644349
11.616363525390625,1.88670289516449,1.4408619403839111,-0.1286703795194626,3.3375182151794434,0.6204805970191957
13.889866828918459,1.4370702505111697,0.8129770159721376,-0.030826581642031673,3.095051527023316,0.6376208066940308
16.34532928466797,0.07912558317184448,0.6659613847732544,0.15542648732662204,2.772350311279297,0.6543974280357362
17.699657440185547,-0.0014976821839809418,0.51951402425766,0.3806591928005219,2.373251438140869,0.7237292528152466
18.51972198486328,0.1873150020837784,0.5458474755287172,0.46562856435775757,1.922126889228821,0.8448721170425415
18.932950973510746,0.5683717131614686,0.7462694644927979,0.4354104697704316,1.47320830821991,0.9791455268859863
17.331163406372074,0.8662533760070801,0.089516282081604,0.30546954274177557,1.0664558410644531,1.0367089509963991
14.59370231628418,0.302748054265976,-1.5370008945465088,0.11262995749711992,0.6073876619338989,1.0506467819213867
10.74475955963135,-0.9791845083236694,-3.937421083450318,-0.022951673716306686,0.01884022541344166,1.0716915130615234
7.234879970550538,0.07611512392759325,-6.683171749114991,-0.12463472038507463,-0.7516908049583436,1.1191833019256592
84.10680389404298,19.923892974853516,50.633129119873054,-4.484976291656495,-2.81655216217041,1.4113603830337527
8.620320320129396,13.936846733093263,-5.756725788116456,-0.16635483503341675,5.020095348358155,-0.2665660679340363
16.881689071655277,-21.923667907714844,17.84073257446289,-0.5649827122688295,2.2999701499938965,0.6043767333030702
-8.59068489074707,5.235896110534668,9.255938529968263,-0.1956647485494614,2.458567380905152,0.6653925180435181
-3.911324739456177,-3.4815390110015874,14.688066482543945,0.05460645630955697,1.3382835388183594,0.05019603297114373
-2.264485120773316,-10.065482139587404,11.924657821655273,0.13024245202541354,0.41993826627731323,-0.2154107689857483
0.7224844098091127,0.3864555358886719,12.12131977081299,0.08101557195186615,-0.1347424536943436,-0.31696081161499023
4.973442554473878,-0.12295755743980408,10.041666030883789,-0.06362663209438324,-0.35815876722335815,-0.3811576664447785
7.854759216308594,0.061295285820961,8.70046138763428,-0.060328971594572074,-0.2851352095603943,-0.19663096964359286
7.293453216552734,0.07041898369789124,8.494585037231445,-0.03480546548962594,-0.00015284825349226594,0.00584783498197794
5.90286922454834,-0.9360009431838989,8.868618965148928,-0.039345212280750275,0.26556059718132025,0.09566834568977356
4.790644645690918,-1.8203581571578982,9.366482734680178,-0.010014859028160574,0.39955189824104315,0.09836170077323914
4.0052504539489755,-1.8109198808670046,9.692458152770998,0.037789732217788696,0.4284071028232575,0.06090320646762848
3.7480914592742924,-1.3731306791305544,9.906838417053224,0.05587693303823471,0.40321788191795355,0.02382609806954861
3.530103445053101,-0.8420323133468628,10.225504875183107,0.023879770189523697,0.31092110276222235,0.027174241840839386
3.5958070755004883,-1.0746688842773438,10.153451919555664,-0.003121584421023727,0.2062768489122391,0.04662960767745972
3.509768009185791,-1.3626850843429568,10.098490715026857,-0.003654125845059753,0.10326120257377625,0.041475448757410056
3.413045167922974,-1.133913278579712,10.239201545715334,-0.013492854312062263,-0.010548771359026434,0.028986366465687755
3.466549873352051,-1.1196302175521853,10.147131919860842,-0.04045314714312554,-0.11184778809547424,0.01897566951811314
3.929013013839722,-1.1650261878967285,9.955271720886232,-0.05895198881626129,-0.1834520399570465,0.011931513436138632
4.158659934997559,-0.9476110935211182,9.887203216552734,-0.07823326438665391,-0.21904751658439636,0.015860484912991527
4.1315674781799325,-0.8385401368141175,9.898495674133303,-0.10640116780996324,-0.24168014526367188,0.032324329018592834
4.1308088302612305,-0.9701262712478638,9.827420234680178,-0.12781168520450595,-0.2661871314048767,0.041731070727109916
4.28412675857544,-1.154515862464905,9.684174537658693,-0.13750633597373962,-0.28076326847076416,0.04367465153336526
4.359175205230714,-1.137739658355713,9.560625076293945,-0.14557388424873352,-0.2784601747989655,0.04604821652173996
4.36859941482544,-1.0748929977416992,9.472985267639162,-0.15794952213764193,-0.26612985134124756,0.04703843593597412
4.422781467437745,-1.1055495738983154,9.60071659088135,-0.1657509207725525,-0.24881799519062045,0.047308020293712616
4.371718406677246,-1.3119956254959109,9.35382080078125,-0.16268350183963778,-0.23715858161449435,0.042035602033138275
4.405540466308594,-1.8189113140106201,9.213126182556154,-0.1303117871284485,-0.2024447172880173,0.02676868438720703
4.157011508941651,-1.623711109161377,9.41244125366211,-0.10440210253000261,-0.18688949942588806,0.017475467175245285
4.132105350494386,-1.5307825803756716,9.599493026733398,-0.10247781872749329,-0.2009946256875992,0.01212792843580246
4.230533599853516,-1.4969568252563477,9.466095924377443,-0.10258086025714874,-0.2191334068775177,0.0061485697515308866
4.185605049133301,-1.2338694334030154,9.622493743896484,-0.10785611718893053,-0.23896440863609314,0.001524925814010203
4.305685997009277,-1.4895193576812744,9.556793212890625,-0.10724377632141113,-0.25193646550178533,-0.006545403506606818
4.507927894592285,-1.4702699184417725,9.161290168762209,-0.10055768489837646,-0.24870540201663974,-0.01542225107550621
4.2636213302612305,-1.2507717609405518,9.436438560485842,-0.10437431186437608,-0.24434478580951693,-0.02273925393819809
4.463172435760499,-1.4483871459960938,9.325024604797365,-0.0961301326751709,-0.24859084188938144,-0.031210221350193024
4.468294143676758,-1.3651219606399538,9.33806037902832,-0.08343251794576646,-0.24152594804763794,-0.043840356171131134
4.269975662231445,-1.3771475553512575,9.446977615356445,-0.08343364298343658,-0.246794268488884,-0.050334811210632324
4.304949283599854,-1.7582865953445437,9.363655090332031,-0.07715613394975664,-0.270433396100998,-0.06685052812099457
4.410630702972413,-1.7488976716995241,9.309680938720703,-0.0484650768339634,-0.28756266832351685,-0.09585245698690416
3.9506173133850098,-1.7097060680389404,9.483526229858398,-0.02065189555287361,-0.3187431991100312,-0.1302096098661423
4.13474988937378,-1.6299984455108643,9.641333580017092,0.0016005942597985268,-0.3856534659862519,-0.17019006609916687
4.339145660400391,-1.2809094190597536,9.400665283203125,0.0231443215161562,-0.459370106458664,-0.19663891196250916
3.9468295574188237,-1.1525171995162966,9.710467338562013,0.01677724160254002,-0.5470148324966431,-0.21093253791332248
4.063009262084961,-1.0615066289901736,9.934364318847656,0.010218523442745209,-0.7039260268211366,-0.20006321370601657
3.564515352249146,-1.4795565605163574,9.945045471191406,-0.0004202154232189059,-0.8696975111961366,-0.20564958453178406
3.9905354976654057,-1.2300341129302979,9.823586463928224,-0.013904256746172905,-1.0701076984405518,-0.2307081371545792
4.515342712402344,-0.787093997001648,9.904421806335451,-0.05809620395302773,-1.2275211811065674,-0.21306608617305758
4.329771995544434,-0.5784111022949219,9.955605506896974,-0.12205374985933305,-1.4030060768127441,-0.16772419214248657
3.9649326801300053,-0.6277380585670472,10.141741752624513,-0.1756345182657242,-1.636420726776123,-0.12997122108936313
4.0008206367492685,-0.6272758841514589,10.028954505920412,-0.29243108630180364,-1.899083733558655,-0.1329759657382965
4.2236785888671875,-0.5289076566696167,10.036381721496584,-0.40673688054084783,-2.2072668075561523,-0.15188004076480868
4.956672668457031,-1.7701300382614138,10.433199882507326,-0.468969464302063,-2.452003717422486,-0.20064185559749606
4.022363185882569,-1.7626346349716189,9.548065185546875,-0.20813387632369995,-2.758137464523316,-0.24072721600532532
4.6087307929992685,-0.285459041595459,10.329249382019045,-0.17552544176578525,-3.2114217281341557,-0.29797792434692383
3.592040300369263,-0.9500483870506288,10.407743453979492,-0.0757673978805542,-3.8028261661529545,-0.29282790422439575
4.721662044525147,-2.246009349822998,10.320993423461914,0.08471953123807908,-4.461125373840332,-0.33304303884506226
6.741881847381593,-2.7720239162445073,11.496099472045898,0.16304324567317965,-4.981429100036621,-0.33476498723030096
10.02574348449707,-2.5739665031433105,13.969133377075195,0.03699034824967385,-5.2055420875549325,-0.22726893424987793
12.64437007904053,-4.448315143585206,14.214402198791506,-0.10352168232202531,-5.148409843444824,-0.10490754991769792
16.932037353515625,-6.27685546875,15.301725387573242,0.12249411642551422,-5.018500804901124,-0.24629350006580356
24.977087020874027,-4.378619670867921,13.968333244323732,0.31556588411331177,-4.700948238372804,-0.5698387622833252
30.350709915161136,-5.223344802856445,10.566934585571289,0.19646093249320984,-4.325534820556641,-0.881151854991913
31.885412216186527,-5.935739040374757,5.8934950828552255,0.5848236083984375,-4.098241329193116,-1.2842292785644531
32.85455322265625,-2.886058568954468,8.024888038635256,1.1042959690093994,-3.764049291610718,-1.6159871816635134
33.76742172241212,1.127605676651001,8.173100471496584,0.9292127490043641,-3.721741199493408,-2.013272047042847
42.48265457153321,-1.1561020612716677,23.144968032836918,0.014566415920853615,-2.405139923095703,-2.1452095508575444
26.83201408386231,-2.8836200237274174,18.44197273254395,-0.8528639674186708,-0.826241135597229,-1.861532807350159
20.302955627441406,-4.694822788238526,14.358598709106445,-1.3550952672958376,-0.3604801297187805,-1.6992449760437012
13.479981422424318,-7.063957691192628,12.151598930358888,-1.2667180299758913,-0.27096956968307495,-1.665413022041321
9.891140937805178,-8.64341449737549,12.034197807312013,-0.6879759430885316,-0.3927401006221772,-1.6313159465789795
7.878081321716309,-8.010071754455568,14.310339927673342,0.14684395492076877,-0.3282352089881897,-1.6124397516250613
7.294474124908448,-5.6374831199646005,17.33283233642578,0.5577890276908876,0.10462576150894165,-1.393435001373291
5.672842025756836,-3.310158967971802,18.137218475341797,0.5892756581306459,0.9777560234069824,-1.023083806037903
0.5421949625015259,-2.370816230773926,15.092190742492678,0.5076305866241455,1.945528268814087,-0.7556151747703553
-4.879289627075195,-1.901861071586609,10.777113914489748,0.43545141816139227,2.4951181411743164,-0.6354864239692689
-8.71142101287842,-1.2082887887954714,5.7714948654174805,0.441878080368042,2.6259295940399174,-0.6034252047538758
-10.969927787780763,-0.2764939069747925,2.45308780670166,0.45349186658859253,2.4319102764129643,-0.6387923955917358
-10.10842037200928,0.3242095708847046,2.8612537384033203,0.23872096836566928,2.1958734989166264,-0.5725401639938354
-10.103116035461428,-0.5546178221702577,2.7313849925994877,0.04683852195739746,2.171831846237183,-0.42824816703796387
-10.863929748535156,-1.3025156259536745,2.3108301162719727,-0.03289778530597687,2.213537931442261,-0.2639094293117524
-10.41525173187256,-1.393006205558777,2.650895118713379,-0.13661736249923706,2.2383587360382085,-0.0683712363243103
-8.907982826232912,-1.3015904426574707,3.273807287216187,-0.30151551961898804,2.4384870529174805,0.19333969056606296
-8.995882034301758,-1.5107417106628418,2.3555259704589844,-0.41799241304397583,2.7097647190094,0.4503704309463501
-9.006028175354006,-1.131927251815796,1.0722705125808718,-0.5030820369720459,2.8625233173370366,0.6768999695777894
-8.556131362915039,-0.6826529502868652,0.3359234929084778,-0.5753861665725708,2.9224689006805424,0.8355728387832642
-7.38182020187378,-0.6064807176589966,0.5960161685943604,-0.6463200449943544,2.9715950489044194,0.9660025835037231
-5.932988643646241,-0.31575947999954224,0.6626773476600648,-0.6817391514778138,3.067598819732666,1.1008077859878542
-4.702130317687988,0.2817005813121796,0.272438645362854,-0.6874951124191284,3.1449964046478276,1.2097896337509157
-2.3484547138214116,1.026379108428955,1.3729261159896853,-0.7386050820350648,3.195732593536377,1.2749255895614626
0.7001562118530273,2.120184659957886,2.873011589050293,-0.8384675383567811,3.416785001754761,1.2995989322662354
2.945034742355347,3.0789833068847656,2.7110874652862553,-0.9458804130554199,3.7001783847808842,1.255727767944336
5.254327774047852,3.7528526782989506,1.809047341346741,-1.024283289909363,3.840826988220215,1.139129877090454
8.573330879211428,3.211129665374756,1.1252321004867556,-0.9537493586540223,3.820816993713379,0.9537774920463563
11.749768257141115,2.7929074764251713,0.7652332782745361,-0.6819613575935365,3.655556917190552,0.7444567680358887
14.549376487731935,4.096468925476074,0.6479157805442811,-0.44531184434890747,3.367252588272095,0.5236732959747314
17.935411453247074,3.96027684211731,0.21793314814567566,-0.3339293599128723,3.0144045352935795,0.2398631721735001
19.401868820190433,2.5796377658844,-1.2752848863601687,-0.0909150317311287,2.528939723968506,-0.05315313860774041
18.86242485046387,2.442243337631226,-3.4305756092071538,0.22395136952400208,1.8393528461456299,-0.25757035613060003
17.680805206298828,1.913233995437622,-5.179036617279054,0.39112597703933716,0.9801942706108094,-0.3238237500190735
16.03933906555176,0.07987837493419647,-6.476631164550781,0.48426088690757757,0.05266410857439041,-0.21458986401557922
30.709022521972656,6.773473739624023,-11.289978981018068,-0.07452227175235748,-1.1737662553787234,0.3203471302986145
92.97306060791017,17.532333374023438,57.585304260253906,-4.371654510498047,-1.0786042213439941,1.2752610445022585
-2.8200571537017827,-0.08426728844642639,-12.39239025115967,-0.9385586380958558,3.691054344177246,0.3025497496128083
12.986744880676271,-10.699663162231445,18.126047134399418,-0.3636919856071472,2.386182069778443,0.974901854991913
-8.987979888916016,-1.788813829421997,9.646251678466797,-0.2123931348323822,2.0241606235504155,0.6358399391174316
-1.9049695730209353,-6.879265785217285,13.284832000732422,0.1457403004169464,1.0534873008728027,0.0035126882139593367
-3.3858261108398438,-10.410298347473146,12.05947494506836,0.22353512048721313,0.3579458296298981,-0.24493837356567383
1.3267904520034792,1.238454818725586,11.694629669189453,0.24246522784233093,-0.08839219063520433,-0.5521251559257508
7.0253643989563,2.107269287109375,10.181502342224123,0.11669122427701951,-0.230146586894989,-0.5037286877632142
7.476258277893066,2.508273839950562,9.03540897369385,-0.11394896358251573,-0.10077308863401414,-0.1344711184501648
6.48550844192505,0.06548936665058136,8.870113372802734,-0.13336645066738131,0.10276438295841217,0.0972718968987465
4.958281517028809,-1.2961771488189697,9.414592742919922,-0.13660170137882235,0.2607930302619934,0.14099380373954773
3.859239101409912,-1.8551679849624636,9.810564994812013,-0.12292125076055528,0.28810107707977295,0.0976480469107628
3.9107532501220703,-1.2534689903259277,9.937811851501467,-0.11193200200796129,0.2464879006147385,0.07643640041351318
4.174990177154542,-0.3208245038986206,10.083303451538086,-0.1631399840116501,0.2144431173801422,0.1160494163632393
4.098106861114503,-0.7171326875686646,9.996278762817383,-0.2080158442258835,0.1808844804763794,0.17797982692718506
3.946812152862549,-1.1536375284194949,9.899319648742678,-0.22245614230632785,0.15692859888076782,0.19187660515308383
3.4253475666046147,-1.5490612983703613,10.09046268463135,-0.22010919451713562,0.11450375616550446,0.16599257290363315
3.3511857986450195,-1.7410103082656863,10.141511917114258,-0.20261457562446594,0.030793474987149242,0.11743144690990448
3.3944661617279057,-1.576472520828247,9.98820686340332,-0.18450494110584262,-0.0645480751991272,0.0603041797876358
3.9349997043609624,-1.0724434852600098,9.897298812866211,-0.2050398886203766,-0.09151599556207658,0.06291419267654419
4.426043987274171,-1.3671396970748904,9.851152420043945,-0.18651536107063293,-0.11016781628131866,0.058950323611497886
4.25701904296875,-1.6541632413864138,9.59774684906006,-0.172685444355011,-0.09305954724550249,0.06736196577548981
4.131232738494874,-1.2113378047943115,9.926897048950195,-0.199415385723114,-0.05293698981404305,0.1388339847326279
3.7822556495666504,-1.8406319618225098,9.812259674072266,-0.16127352416515353,-0.07968853414058685,0.12931667268276217
3.8351998329162598,-1.9317049980163574,9.51915168762207,-0.12124640494585039,-0.1701341420412064,0.01887335628271103
4.011240005493164,-1.4024477005004883,9.695634841918945,-0.1276635974645615,-0.13967400789260864,0.06882869452238084
3.8861842155456543,-1.5815843343734743,9.751309394836428,-0.105650432407856,-0.15685343742370605,0.06004767864942551
4.427587032318116,-1.6494776010513308,9.741019248962404,-0.10485922545194627,-0.1398642659187317,0.048300225287675864
3.961361169815064,-1.5603444576263428,9.392122268676758,-0.08020498603582384,-0.14078597724437716,0.03614507615566254
4.061445236206055,-1.1650385856628418,9.68975830078125,-0.09283988922834398,-0.1299784779548645,0.049003969877958305
3.8356380462646484,-1.7015671730041504,9.523321151733398,-0.08936899155378343,-0.15070030093193054,0.03531438857316971
4.100434303283691,-1.5988229513168337,9.576604843139648,-0.08912449330091478,-0.147216796875,0.024143299087882045
4.067730426788331,-1.7908821105957031,9.404446601867678,-0.07828456163406372,-0.14069047570228577,0.020251164212822918
4.385220527648926,-1.8160905838012695,9.392705917358398,-0.05123912915587426,-0.12404324114322662,0.0030682783108204608
4.475335597991944,-1.5875468254089355,9.187273979187013,-0.03018187172710896,-0.07407304644584656,0.00019213068298995495
4.08987855911255,-1.464512586593628,9.387126922607422,-0.025900902226567272,-0.034437499940395355,0.013445784337818624
4.11475706100464,-1.9560300111770632,9.364582061767578,0.0027354122139513493,-0.03421289473772049,-0.012801832519471647
4.426783561706543,-1.807471513748169,9.281728744506836,0.04023163020610809,0.006801514420658351,-0.024293601512908936
4.510836601257324,-1.4244960546493532,9.357045173645021,0.05686947703361511,0.0537547878921032,-0.019890388473868374
4.428040504455566,-1.0825490951538086,9.427685737609865,0.04274875298142434,0.09681679308414459,0.0033291333820670847
3.7856662273406987,-1.4910155534744265,9.443236351013185,0.020522339269518856,0.10441403836011888,0.01839153841137886
3.351803779602051,-2.005342245101929,9.38960361480713,0.019373048096895218,0.052638608962297447,-0.007289978675544262
3.3690135478973393,-1.6945719718933105,9.80476188659668,0.01694089360535145,-0.02329988032579422,-0.04869978129863739
3.173208236694336,-1.6688878536224365,9.79541873931885,0.029358431696891785,-0.11902766674757005,-0.09505569934844971
3.4637837409973145,-1.4291367530822754,9.780627250671388,0.04812035709619522,-0.20132243633270264,-0.13717363774776462
3.3725056648254395,-1.2799347639083865,10.047109603881836,0.04277583584189416,-0.28314560651779175,-0.1616661995649338
3.215602397918701,-1.7747325897216797,9.882284164428711,0.06486745178699493,-0.37587800621986395,-0.21991865336894992
3.5973088741302495,-1.4927856922149658,10.068777084350586,0.06288792937994005,-0.4845421314239502,-0.26806935667991644
3.636392116546631,-1.54106342792511,10.137153625488281,0.050549209117889404,-0.5775457620620728,-0.29374018311500555
4.412386894226074,-1.2532414197921755,10.042606353759766,0.033784329891204834,-0.6437817215919496,-0.3212575316429138
4.503997325897218,-0.9585926532745361,9.855356216430664,0.026587197557091716,-0.6935012340545654,-0.32130998373031616
4.048983097076417,-1.2045624256134033,9.869782447814943,0.011689414270222189,-0.7858297824859619,-0.30867680907249456
3.9907019138336186,-1.0643039941787722,10.439248085021974,0.016121493652462963,-0.9718890786170961,-0.301050066947937
3.516568183898926,-0.7479981780052186,10.419688224792482,-0.012579656206071379,-1.2079041004180908,-0.2466232925653458
3.266427278518677,-0.6509160995483398,10.281861305236818,-0.07113683968782426,-1.5016889572143555,-0.19698113203048706
3.400829315185547,-0.41126260161399847,10.408623695373537,-0.12181695550680162,-1.8507530689239502,-0.12047601491212846
3.516757011413574,-0.14492714405059814,10.76551914215088,-0.2789464592933655,-2.1402363777160645,-0.10913874953985216
3.3475594520568848,-0.71190345287323,10.323381423950195,-0.4165380597114563,-2.464637994766236,-0.11987729370594025
4.4831743240356445,-1.5893752574920654,10.879171371459961,-0.47498312592506414,-2.7741641998291016,-0.18329453468322754
3.032774686813355,-1.9747540950775146,9.664867401123047,-0.25686314702034,-3.037588119506836,-0.2716746628284455
3.772037744522095,-1.2685369253158572,10.569563865661623,-0.1348002552986145,-3.5545830726623535,-0.365062564611435
3.818437099456787,-2.3444318771362305,10.344008445739748,0.0994287356734276,-4.142945289611816,-0.4359141886234284
4.331220149993897,-3.464736700057984,10.763038635253906,0.3710198998451233,-4.8339295387268075,-0.5437706112861634
6.585354804992676,-4.202197551727296,12.351863861083984,0.6106323003768921,-5.426530361175538,-0.6101087331771851
10.692845344543459,-4.7627530097961435,15.257364273071289,0.6354032754898071,-5.63686466217041,-0.5827214121818544
13.567973136901857,-6.400708675384522,14.78931999206543,0.7650251388549805,-5.577065944671632,-0.5860220193862915
22.54434394836426,-5.799303531646729,16.108339309692386,1.35091233253479,-5.407378673553468,-0.8499471545219422
28.819662094116214,-4.070495128631593,12.059576034545898,1.6008734703063965,-5.031259059906007,-1.010138988494873
31.027393341064453,-6.314470291137695,7.1413893699646005,1.6733732223510742,-4.764100074768066,-1.113948464393616
33.222064971923835,-8.018494606018068,7.460556507110597,2.6242043972015385,-4.599966049194336,-1.2476769685745241
30.047237396240234,-3.1286463737487793,5.058165073394776,3.1231925487518315,-4.268684387207031,-1.0872352123260498
41.1102294921875,2.4238612651824956,14.096341133117678,2.3458309173583984,-4.1640381813049325,-1.0209243297576904
36.18052673339844,0.909930944442749,21.171426773071293,0.9919034242630005,-2.372579574584961,-0.8270416855812074
25.826496124267578,1.1171767711639404,16.920213699340824,-0.4812025725841523,-1.2255191802978516,-0.5301912426948548
20.48082542419434,-1.248314380645752,14.673816680908203,-1.5332355499267578,-0.5766389966011048,-0.5858655571937562
13.54599380493164,-4.3977932929992685,11.079402923583984,-1.871530532836914,-0.3202166855335236,-0.7242100238800049
8.296340942382812,-8.025027275085451,8.963956832885742,-1.2735005617141726,-0.3485738337039948,-1.034501075744629
4.955996036529542,-8.581177711486818,8.666552543640138,0.0061199236661195755,-0.4714340269565583,-1.3776953220367432
2.8015563488006596,-5.816385746002198,9.932355880737305,0.9884842038154603,-0.5336854457855225,-1.548903465270996
2.1587929725646973,-2.232576847076416,11.63427734375,1.1809500455856325,-0.30069488286972046,-1.5214079618453982
0.6517215967178345,-0.6496597528457642,11.934892654418945,0.8380881547927856,0.28553545475006104,-1.381740212440491
-1.94452178478241,-1.2663880586624148,10.570969581604006,0.46083799004554754,1.0416474342346191,-1.2714377641677859
-4.671195030212402,-2.52741026878357,8.26096820831299,0.3018775880336762,1.6471798419952393,-1.2053651809692383
-7.557144641876222,-3.33742618560791,5.138843059539796,0.40200296044349676,1.9266607761383057,-1.1396991014480593
-9.223731994628906,-2.9344971179962163,3.1911487579345703,0.5511318445205688,1.9212687015533447,-1.0122257471084597
-9.056887626647951,-1.9073851108551025,3.0506834983825684,0.45230692625045776,1.8428555727005007,-0.7430386543273926
-8.203836441040039,-1.833041310310364,3.6504075527191167,0.19231425225734713,1.9043171405792236,-0.3760260343551636
-7.996569156646729,-2.4991157054901127,3.7769088745117188,-0.035692788660526276,2.1272675991058354,0.026792295277118683
-8.507707595825195,-2.7479872703552246,2.8695335388183594,-0.12161850184202196,2.3492438793182377,0.412523090839386
-8.92878532409668,-2.2726252079010014,1.6539607048034668,-0.17375327646732333,2.462986469268799,0.7735758423805238
-8.452722549438477,-1.5110113620758057,1.2768548727035525,-0.2780799567699433,2.4915504455566406,1.107212781906128
-7.261557579040527,-1.2565845251083376,1.6447601318359375,-0.40342503786087036,2.579200983047486,1.4134259223937988
-5.989267349243164,-1.1827988624572754,2.3912181854248047,-0.4662582278251648,2.7537479400634766,1.653536915779114
-4.84285593032837,-0.8588665723800659,2.5775640010833745,-0.4641884863376618,3.0207014083862305,1.8468040227890017
-4.180869102478027,0.17885552346706393,2.0017440319061284,-0.4669774472713471,3.25985050201416,1.9746026992797852
-3.230331659317017,1.5233550071716309,1.6845108270645144,-0.5729331374168397,3.4016366004943848,2.033070802688599
-1.153410315513611,2.5860981941223145,2.4710240364074707,-0.7568837404251099,3.5260157585144043,2.0095808506011967
1.4723122119903564,2.7506010532379155,3.0011143684387207,-0.8783307671546937,3.710035800933838,1.876139283180237
3.9308290481567383,2.1145401000976562,2.6843743324279785,-0.7741071581840516,3.8732552528381348,1.6535921096801758
5.616240501403809,2.9642879962921147,1.4730525016784668,-0.5427007079124452,3.901242256164551,1.384618401527405
7.652256011962891,3.105116367340088,0.7110921144485474,-0.3861957788467407,3.784512519836426,1.0710989236831667
10.220788955688477,1.362648129463196,0.9926487803459169,-0.15371763706207275,3.5852949619293217,0.7834144830703735
12.195375442504883,0.23003296554088595,1.454049825668335,0.17428867518901828,3.3839120864868164,0.6015279293060303
13.275065422058107,0.754607379436493,1.8921824693679812,0.3894820809364319,3.142630815505982,0.5440056324005127
14.820874214172365,1.9553142786026003,2.458929777145386,0.30023124814033514,2.870506048202515,0.5566126108169556
16.44719505310059,0.6102415323257446,2.4492430686950684,0.17129345238208774,2.6276841163635254,0.5400847792625428
16.009166717529297,-0.4379808604717255,1.12851881980896,0.32433065772056585,2.3352866172790527,0.515620231628418
13.448857307434084,0.6652469635009766,-1.2356489896774294,0.47729331254959106,1.905508875846863,0.5348381996154785
9.038640975952148,1.3253388404846191,-6.0678114891052255,0.5019009113311768,1.2645702362060547,0.5732720494270326
29.0399341583252,11.063238143920898,-14.036709785461428,-0.36246150732040405,-0.3848706781864167,0.909821629524231
101.68601226806642,26.273294448852543,56.67425918579102,-3.903075695037842,0.43399360775947576,0.9567067027091981
-1.7753776311874392,-0.4777575135231018,-11.02332878112793,-0.9772007465362549,3.5748264789581303,0.19109782576560974
5.954480648040772,-6.016489028930664,20.24051284790039,-0.3236519694328308,2.74021053314209,1.35016143321991
-14.832804679870607,-4.899173736572266,12.954403877258303,-0.14777058362960815,1.2016614675521853,0.5349574089050293
-2.3308281898498535,-12.68612289428711,13.387062072753906,0.013343550264835358,0.16370634734630587,-0.24459584057331088
1.2542587518692019,-6.1341567039489755,11.867633819580078,0.2949005961418152,-0.3772143423557282,-0.6317933797836304
6.717703342437745,3.3362314701080327,9.636869430541992,0.21049505472183228,-0.5006150007247925,-0.6624789834022523
9.09732437133789,3.0012288093566895,8.009844779968263,0.07833338528871538,-0.21753919124603271,-0.377665787935257
7.919891357421875,1.7164461612701416,8.604839324951172,-0.04864240065217019,0.17246517539024353,0.01913541927933693
4.6833391189575195,-0.5884868502616883,9.43339252471924,-0.11172792315483093,0.3535881340503693,0.17778000235557556
3.3794240951538086,-2.8952646255493164,10.040473937988281,-0.05902183800935745,0.28163057565689087,0.09577124565839769
3.5835406780242924,-1.8026942014694216,10.047351837158203,-0.025993425399065018,0.21908412873744967,0.015902910381555557
3.90160346031189,0.09730194509029388,9.970067977905273,-0.06563064455986023,0.12473971396684648,0.009612171910703184
4.414860725402832,0.41479644179344183,10.211886405944826,-0.19756500422954562,0.08710527420043945,0.10743702203035356
4.104950428009034,-0.6697663068771362,10.07900619506836,-0.27991431951522827,0.039963118731975555,0.18946327269077304
3.730416059494019,-1.4998390674591064,10.05025386810303,-0.28229886293411255,-0.03626557812094689,0.18211865425109863
3.7265202999114995,-1.3672513961791992,10.117316246032717,-0.2748304605484009,-0.11706123501062395,0.13743142783641818
3.950201272964478,-1.2361764907836914,10.00718402862549,-0.2895957827568054,-0.16746108233928683,0.11801840364933014
4.203736305236816,-1.41367769241333,9.667567253112795,-0.27312818169593817,-0.23354218900203708,0.07680661976337433
4.879014015197754,-1.0023725032806396,9.725165367126467,-0.29424229264259344,-0.19104334712028503,0.11659488826990129
4.109929561614991,-1.6491706371307373,9.311328887939453,-0.25983893871307373,-0.1740730851888657,0.10790399461984636
4.4450483322143555,-1.3910574913024902,9.891821861267092,-0.29031684994697576,-0.17825865745544434,0.12622742354869845
3.788190603256226,-1.8907175064086914,9.255648612976076,-0.2539837956428528,-0.18439185619354248,0.11369409412145616
4.877026557922363,-1.3240115642547607,9.91611099243164,-0.26427507400512695,-0.15107561647892,0.14501899480819702
4.211812496185304,-2.064217805862427,9.237064361572266,-0.20162646472454074,-0.2025572657585144,0.0647447258234024
4.621785640716554,-1.3962721824645996,9.55575180053711,-0.20784135162830356,-0.15023091435432434,0.10303493589162828
4.513577938079835,-1.6039469242095947,9.50308132171631,-0.19081045687198642,-0.11991772800683977,0.12581223249435425
4.2422547340393075,-1.7242863178253174,9.366683959960938,-0.1667625606060028,-0.11927587538957597,0.10577714443206787
4.405506134033203,-1.4250900745391846,9.485287666320803,-0.17262002825737,-0.07603769749403001,0.1391849368810654
4.072503089904785,-1.720893979072571,9.26351070404053,-0.14958448708057406,-0.08502911031246185,0.11032973974943162
4.486357688903809,-1.4171494245529177,9.562519073486328,-0.17459917068481445,-0.07763929665088654,0.12200910598039628
4.5815796852111825,-1.5160307884216309,9.564336776733398,-0.1619961112737656,-0.031605400145053864,0.14705343544483188
3.7613828182220463,-2.07705569267273,9.091118812561037,-0.12013486772775651,-0.08558861911296844,0.07524073123931885
4.545770168304444,-1.7940764427185059,9.236639976501467,-0.12599393725395203,-0.04598682746291161,0.06707446277141571
4.293475151062012,-1.7094731330871582,9.199901580810547,-0.10174284130334856,0.0025624439585953955,0.09777532517910004
3.8434672355651855,-2.079077482223511,9.43974018096924,-0.07712007313966752,-0.013863708823919296,0.0774032846093178
3.751513242721558,-2.216623306274414,9.500864982604982,-0.06836506724357605,-0.13391302525997165,-0.012583821080625059
3.9709529876708984,-2.1173276901245117,9.338695526123047,-0.0466826856136322,-0.13086737692356112,-0.021883554756641388
4.111504554748535,-1.9009810686111452,9.503101348876953,-0.033863671123981476,-0.15977680683135986,-0.05158744379878045
4.053493022918702,-1.562784790992737,9.569816589355469,-0.05143274366855621,-0.17634309828281405,-0.06439052522182465
4.029336452484132,-1.1025981903076172,9.64393424987793,-0.07338917255401611,-0.22220166027545932,-0.0659972056746483
3.876140594482422,-1.5195484161376953,9.542016983032227,-0.0924639105796814,-0.30042424798011785,-0.08370429277420044
4.246219158172608,-1.9016712903976443,9.58877182006836,-0.09620776772499084,-0.3398243188858032,-0.10187322646379472
4.3321852684021005,-1.8509331941604616,9.23201656341553,-0.05590258166193963,-0.3541730046272278,-0.12529183924198153
4.186793327331543,-1.7885543107986452,9.37160396575928,-0.043951641768217094,-0.38036125898361206,-0.1417636275291443
4.465180397033691,-1.491009831428528,9.588783264160156,-0.07433620095252991,-0.4198249280452729,-0.14783835411071777
4.031983375549316,-1.7637217044830322,9.613436698913576,-0.08335922658443451,-0.47275424003601074,-0.16840229928493503
4.023284912109375,-1.546036958694458,9.660783767700195,-0.0928042456507683,-0.577536940574646,-0.19846867024898532
4.35935115814209,-1.0817768573760986,9.894649505615234,-0.12006311118602753,-0.7046231627464296,-0.18347837030887607
4.055835723876953,-1.404023051261902,9.820801734924318,-0.1357732117176056,-0.8564770817756654,-0.15647423267364502
3.8469271659851074,-1.2122567892074587,10.069742202758789,-0.15743680298328402,-1.0733989477157595,-0.1355815827846527
3.341058969497681,-1.1632653474807741,10.317676544189453,-0.23064522445201877,-1.293647050857544,-0.14274366199970248
3.3427605628967285,-1.458620309829712,9.91216564178467,-0.3090085089206696,-1.5941245555877686,-0.19612672924995422
4.274787902832031,-0.866381049156189,9.93521022796631,-0.34608748555183416,-1.8619468212127686,-0.20690314471721652
4.195226669311523,-2.005902528762818,9.956140518188477,-0.3935512006282807,-2.04837441444397,-0.2551078200340271
3.847360610961914,-2.675992012023926,9.658689498901367,-0.22376604378223422,-2.331026554107666,-0.2900548875331879
4.688031673431397,-1.596269130706787,9.544809341430664,-0.17345470190048218,-2.6519796848297124,-0.3528681695461274
4.933475017547608,-1.4934537410736084,9.661462783813477,-0.11865950375795366,-2.994965076446533,-0.3971527516841889
4.913771629333496,-1.2134863138198855,9.961714744567873,-0.02600538358092308,-3.3629684448242188,-0.4237436950206757
4.691729545593262,-1.5454607009887695,10.06302261352539,0.10162448137998582,-3.8799123764038086,-0.4065049588680268
5.554174423217773,-2.506315231323242,10.33892822265625,0.15980590879917148,-4.396982192993164,-0.30081093311309814
7.490164756774902,-3.452903032302857,12.07701301574707,0.166764497756958,-4.766131877899171,-0.251481294631958
10.071171760559084,-4.072464466094972,13.698982238769531,0.09589017927646637,-4.810662269592285,-0.24428369104862216
12.247224807739258,-5.9568376541137695,12.459179878234865,0.16968634724617004,-4.697658061981202,-0.31560951471328735
18.62401580810547,-6.185142040252686,14.07235336303711,0.5549123287200928,-4.602537631988526,-0.5247920155525209
25.082901000976562,-3.711101293563843,11.10287094116211,0.7619304060935975,-4.328431129455566,-0.7288659214973451
28.685134887695312,-4.6869778633117685,6.600894927978516,0.6060630083084106,-4.186347961425781,-1.0357147455215456
29.27474403381348,-5.497232437133789,3.98859715461731,1.1451529264450075,-4.20432186126709,-1.400503754615784
28.978336334228516,-3.0839545726776127,5.261693000793457,1.4741220474243164,-4.168593883514405,-1.5672947168350222
28.789134979248047,1.3602323532104492,4.5281386375427255,1.3298299312591553,-4.675285816192628,-1.9298384189605713
40.247516632080085,-0.4252005517482758,18.61118888854981,0.601191818714142,-4.128582477569581,-2.0484819412231445
28.682151794433594,-0.5833675265312196,16.69172859191895,-0.37696620821952825,-2.7761597633361816,-1.7455111742019656
26.00902557373047,-1.8996543884277344,17.139328002929688,-1.288370490074158,-1.9948163032531738,-1.5392186641693115
20.4244384765625,-3.84775972366333,15.257018089294435,-1.727272152900696,-1.371985673904419,-1.418110013008118
15.326887130737305,-6.201611995697022,13.094551086425781,-1.7622687816619873,-1.018697738647461,-1.3280092477798464
11.175289154052734,-7.4701199531555185,11.50322151184082,-1.2125755548477175,-0.8791687488555908,-1.3402251005172732
7.109909534454347,-7.389822006225586,10.900559425354006,-0.36638063192367554,-0.8361054062843324,-1.398208022117615
5.52986764907837,-5.8553175926208505,11.777791976928711,0.271611750125885,-0.7343803048133851,-1.3671767711639404
3.6383569240570073,-3.92392635345459,12.113940238952638,0.5291818976402284,-0.4069144427776337,-1.2038893699645996
0.9626584649086,-3.279946088790894,11.767623901367188,0.5404191017150879,0.05941638723015786,-1.0260040760040283
-0.9224230647087098,-3.17504096031189,11.455848693847656,0.4375700652599335,0.6172763109207153,-0.8019459247589111
-3.1775569915771484,-3.017210721969605,10.058252334594727,0.390883207321167,1.1994601488113406,-0.5853244066238403
-5.949848175048828,-3.1686923503875737,7.882954120635987,0.4320050179958344,1.611767888069153,-0.42388755083084106
-7.4829421043396005,-2.753154754638672,6.295977592468262,0.4464977979660034,1.8358117341995241,-0.28449368476867676
-8.438731193542482,-2.1206140518188477,4.960330486297608,0.410905122756958,1.976595997810364,-0.13114316761493686
-8.548299789428711,-1.7390799522399902,4.927392482757569,0.2571341395378113,2.076517820358277,0.05061057209968567
-8.192510604858398,-1.9234615564346316,4.703829288482667,0.07511172443628313,2.281441450119019,0.2903445363044739
-8.855828285217287,-2.0417017936706543,3.523860454559326,0.01731550320982933,2.5038716793060307,0.47934383153915405
-9.097601890563967,-1.2551071643829346,2.33675479888916,-0.05286968871951104,2.628058910369873,0.6385489702224731
-9.149060249328615,-0.7431784868240356,1.3671298027038574,-0.14879028499126437,2.693416118621826,0.7405173182487489
-8.620936393737795,-0.5237756371498109,1.17734694480896,-0.27931573987007147,2.7211515903472905,0.8257279396057129
-7.095179557800293,-0.4717318713665009,1.896379590034485,-0.4066237211227417,2.8232681751251225,0.9182692766189575
-5.521852970123292,-0.6855217814445497,2.617132425308228,-0.48881715536117554,3.06384825706482,1.0267745256423952
-4.52239751815796,-0.7602508068084717,2.3311560153961186,-0.501366674900055,3.3664979934692383,1.1454297304153445
-3.9312937259674077,0.10184353590011597,1.6590312719345095,-0.5199181437492372,3.5858652591705327,1.2676417827606201
-2.6925947666168217,1.3622764348983767,1.4951140880584717,-0.6877286434173584,3.72451663017273,1.388658046722412
-0.7540413737297059,1.5890896320343018,1.7162890434265137,-0.889445424079895,3.85961127281189,1.480755925178528
1.3749076128005984,1.5552887916564941,1.948336958885193,-0.9534203410148622,3.98435115814209,1.5237873792648318
3.832328081130982,2.1505889892578125,2.416728258132935,-0.9361172318458558,4.056785106658936,1.5242722034454346
6.882732391357422,2.498346090316773,2.900243520736695,-0.9331479072570801,4.11753797531128,1.4684453010559082
10.225148200988771,2.2409522533416752,2.9174861907958984,-0.8473342657089233,4.150365352630616,1.3837038278579714
13.402519226074219,1.8453296422958376,2.112884521484375,-0.696121096611023,4.0713562965393075,1.2718875408172607
16.318929672241214,1.1978317499160769,1.2859500646591189,-0.47570320963859564,3.81140685081482,1.1754958629608154
18.344606399536136,0.5866977572441102,0.6820558309555054,-0.22604119777679443,3.3979427814483647,1.1028425693511963
19.622385025024418,-0.6231018900871278,0.4464837908744812,0.04122110828757287,2.8965187072753906,1.0678329467773438
20.49422836303711,-1.5019152164459229,0.610450267791748,0.27373170852661133,2.359493970870972,1.1731562614440918
19.712535858154297,-1.491603493690491,0.03492125868797302,0.3561058342456818,1.804162383079529,1.4362211227416992
17.98647499084473,-1.9027469158172607,-1.0227986574172976,0.18018041551113131,1.1546211242675781,1.82491672039032
16.72979736328125,-3.1780354976654057,-1.5953552722930908,-0.110945962369442,0.45050734281539917,2.3248844146728516
34.40900039672852,-6.84821367263794,-2.092287063598633,0.11993900686502458,-0.23421600461006165,2.3067629337310795
61.358055114746094,22.715255737304688,39.40479278564453,0.8099091053009033,0.3792744278907776,-0.10957104712724687
9.814473152160646,4.720616340637207,1.0557711124420166,0.17747111618518832,2.591461181640625,-0.41914442181587225
1.751535773277283,-16.093021392822266,8.776004791259766,0.6136540174484253,2.5615632534027104,0.5271980166435243
-6.81831169128418,2.4448766708374023,14.030210494995117,0.3454827964305878,1.3669676780700684,0.4892087280750275
-1.3163334131240847,0.7443645000457764,11.842365264892578,0.29979634284973145,0.9759786128997803,-0.3605389297008515
-0.035424113273620605,-6.97001600265503,12.399086952209474,0.24727264046669006,0.19869722425937655,-0.5329791307449341
1.9706876277923584,2.3646399974823002,12.821399688720703,0.10188636183738708,-0.4417289793491364,-0.49969318509101873
6.851148128509522,4.3063702583313,11.113896369934084,-0.1756023615598679,-0.5276550054550171,-0.4012878835201264
7.674521923065186,-1.653612017631531,8.167619705200195,-0.24057811498641968,-0.3111336827278137,-0.04822611436247826
6.202655315399171,-2.98617959022522,7.751851558685304,-0.02774576283991337,-0.04223710298538208,0.06560669094324113
5.181052684783936,-3.4657523632049565,8.61068630218506,0.12946949899196628,0.1863066852092743,0.0009180393535643816
4.115388870239258,-2.805240869522095,9.390448570251467,0.2455035597085953,0.24288851022720337,-0.08467987924814226
4.265413284301758,-0.5888676047325135,9.998083114624023,0.2379424721002579,0.2573894560337067,-0.09138907492160797
4.4642333984375,-0.31287068128585815,9.791911125183107,0.14673259854316711,0.2561605274677277,-0.035183385014534
4.224684715270996,-0.8129281997680664,9.951409339904787,0.08019436150789262,0.21721607446670532,0.02971510961651802
3.9103822708129883,-1.7675544023513796,9.866869926452638,0.08039995282888414,0.1608951985836029,0.01832905970513821
3.745956182479859,-2.178666591644287,9.733592987060547,0.08514343202114105,0.10647322237491608,-0.031417775899171836
3.688557863235474,-1.291955351829529,10.09420680999756,0.07959231734275818,0.02162139676511288,-0.0702286809682846
4.08087158203125,-0.8075433969497681,10.005355834960938,0.04542339220643044,-0.047378331422805786,-0.05597861111164093
4.340730667114258,-1.1242605447769167,9.603430747985842,0.016131684184074402,-0.06271211057901384,-0.032053105533123016
4.156930446624757,-0.980600416660309,9.792003631591797,-0.019059965386986736,-0.08898519724607469,-0.007584376260638237
3.921390295028687,-1.1284637451171875,9.850646018981935,-0.06315877288579942,-0.13630080223083496,0.011909305118024351
3.823493480682373,-1.1820571422576904,9.839082717895508,-0.09470289200544359,-0.19889941811561584,0.013145573437213898
3.935347557067871,-1.138759255409241,10.00181293487549,-0.13377250730991366,-0.2752382755279541,0.016490919515490535
