AccX,AccY,AccZ,GyrX,GyrY,GyrZ
0.00029445753898471594,-5.5824522860348225e-05,0.0006094491691328586,1.6829672233598106e-07,-1.1205023611182698e-06,-9.012312602862949e-07
4.560878753662109,-0.8422340154647827,9.464657783508303,0.0022328139748424296,-0.014257336035370827,-0.012855584733188154
4.551987171173097,-0.8740593194961548,9.487488746643068,0.002575513673946262,-0.014603110030293465,-0.012263314798474312
4.560656547546387,-0.8703240156173706,9.472686767578125,0.0012544965138658883,-0.013336347416043282,-0.014658396132290365
4.5430908203125,-0.860710620880127,9.489996910095217,0.001203673309646547,-0.011233710683882238,-0.012762786820530891
4.54539680480957,-0.8607460260391235,9.50148677825928,0.0024815755896270275,-0.01318300422281027,-0.013963237404823303
4.574759483337402,-0.8741003870964051,9.493161201477053,0.0034641239326447253,-0.014128534123301506,-0.014541974291205406
4.593501091003418,-0.8358142375946045,9.472295761108398,0.0033431148622184996,-0.011962782591581345,-0.01289575081318617
4.5387940406799325,-0.8800770640373231,9.475901603698732,0.0015702968230471017,-0.010488093830645086,-0.012931633740663528
4.5255632400512695,-0.8949631452560425,9.505952835083008,0.003357013687491417,-0.013913352973759176,-0.016397666186094284
4.53424882888794,-0.8613096475601196,9.503907203674318,0.0053539033979177475,-0.013292542658746244,-0.016784088686108593
4.529394149780273,-0.8351669311523438,9.4949951171875,0.0014361371286213398,-0.013878663070499899,-0.01608583703637123
4.517844200134277,-0.8818392753601074,9.50595474243164,0.0005447042640298605,-0.018727503716945648,-0.018407689407467846
4.558729648590089,-0.8476680517196655,9.513967514038086,0.004037898033857346,-0.0207232590764761,-0.019879750907421112
4.551488399505616,-0.8736532926559448,9.509263038635256,0.0014517346862703562,-0.018878484144806865,-0.01847660727798939
4.577689170837402,-0.8395380973815918,9.50379753112793,0.003579874988645315,-0.01943638734519482,-0.018858250230550766
4.576733112335206,-0.8432086110115052,9.472230911254883,0.0006972121191211046,-0.01978191174566746,-0.01717064157128334
4.559711933135987,-0.8347851037979126,9.451846122741701,0.0014989911578595638,-0.019727768376469616,-0.017080526798963547
4.541899204254151,-0.8619105815887451,9.484799385070803,-0.0004239621630404145,-0.0209910087287426,-0.017460372298955917
4.579590320587159,-0.8569338321685791,9.490301132202148,0.0004414040013216436,-0.020416384562850002,-0.020221929997205734
4.5668396949768075,-0.8348277807235718,9.484456062316896,0.0018248464912176132,-0.018350712954998016,-0.018096657469868663
4.581308364868164,-0.853881061077118,9.475608825683594,0.0007526359404437245,-0.019196849316358566,-0.018630636855959896
4.605713367462159,-0.8358043432235718,9.498536109924318,0.001431984710507095,-0.01908159628510475,-0.0161072239279747
4.620308876037598,-0.8089309930801392,9.489395141601562,0.0016599299851804972,-0.015934562310576442,-0.014339162036776543
4.589748382568359,-0.8683276176452637,9.470757484436037,0.0007744285394437612,-0.013590167276561262,-0.01147572323679924
4.58197021484375,-0.8592877388000488,9.465874671936037,0.0008459462551400065,-0.011994146741926672,-0.01259627752006054
4.573400497436523,-0.8515667319297792,9.49562740325928,0.000580343184992671,-0.012873548083007337,-0.012033392675220968
4.562909126281738,-0.8651941418647767,9.51033687591553,0.0008185372571460904,-0.012836230918765068,-0.01264405529946089
4.557994842529297,-0.8441256284713745,9.484473228454592,-0.00029130117036402225,-0.013759298250079155,-0.012328856624662878
4.552725315093995,-0.8303733468055726,9.490835189819336,-0.0015419358387589455,-0.014819250442087652,-0.011479536071419716
4.576595306396484,-0.8723591566085815,9.508085250854492,-0.0010259604314342143,-0.015716835856437683,-0.012435069307684898
4.601618766784668,-0.8329133987426758,9.498043060302734,-0.003136091399937868,-0.01597794331610203,-0.01238304190337658
4.599513530731202,-0.839171290397644,9.484920501708984,-0.003136280458420515,-0.013583185151219368,-0.010582721792161466
4.6062588691711435,-0.8667500019073486,9.464946746826172,-0.002419270342215896,-0.010402468964457512,-0.008188468404114248
4.578948020935059,-0.8566752076148988,9.45950698852539,-0.0018914439715445042,-0.010469443164765837,-0.009670072235167028
4.556338310241699,-0.8490930795669556,9.440857887268068,0.0005372572341002525,-0.007172830402851105,-0.009862312115728857
4.551666259765625,-0.88578200340271,9.477984428405763,0.0031796819530427456,-0.007613569498062134,-0.012478261254727842
4.560554027557374,-0.8732157945632935,9.506710052490234,0.0023600955028086905,-0.007264483720064163,-0.013217513449490072
4.582036018371582,-0.859718143939972,9.468790054321289,0.004221891518682242,-0.010004634037613869,-0.013427944853901863
4.570101261138917,-0.8521904945373535,9.487965583801271,0.00319198495708406,-0.008883526548743248,-0.013112266547977926
4.577581405639648,-0.8351039886474609,9.496551513671875,0.0010333326645195484,-0.009739648550748825,-0.010657564736902716
4.5807814598083505,-0.8287917375564575,9.470368385314943,-0.0016224735882133245,-0.010269415564835073,-0.009429974481463432
4.55327033996582,-0.8178966641426088,9.50248908996582,-0.0015701075317338111,-0.011539192870259285,-0.009438537061214447
4.544794082641602,-0.8683356642723085,9.507110595703125,-0.002387699671089649,-0.012595792300999166,-0.007130040787160397
4.567110061645508,-0.8419061899185181,9.469970703125,-0.004460189491510391,-0.01348641887307167,-0.009615003131330015
4.580102920532227,-0.8507815599441528,9.489041328430178,-0.004418425727635623,-0.014302445575594902,-0.008792457170784475
4.5893659591674805,-0.8464051485061646,9.476880073547365,-0.003161326050758362,-0.012335232459008695,-0.009094209410250189
4.556720733642578,-0.8786252737045288,9.482452392578125,0.0003075191634707153,-0.009412650950253012,-0.00910809077322483
4.550536155700684,-0.8685251474380493,9.469201087951662,0.0011049641761928797,-0.00933392159640789,-0.010858192108571531
4.574845790863038,-0.8555105924606323,9.490486145019531,0.002069181995466352,-0.010456584393978119,-0.011104746721684934
4.584020614624023,-0.8545758724212646,9.491350173950195,0.0014666371280327441,-0.009668739512562752,-0.010808490216732025
4.569942474365234,-0.8723224401473999,9.480605125427248,0.0025428968947380786,-0.0071307215839624405,-0.012347965501248838
4.553524971008301,-0.8552199006080629,9.502681732177734,0.003509639529511333,-0.008745436556637289,-0.011255327612161636
4.5403809547424325,-0.8792052268981934,9.507233619689943,0.0029308777302503586,-0.011068343184888365,-0.012510852888226509
4.580761909484863,-0.8522933721542358,9.491262435913086,0.00259123113937676,-0.013425646349787712,-0.01390174962580204
4.59427547454834,-0.8196948766708374,9.500555992126467,0.0028882718179374938,-0.012550964951515198,-0.011864309199154379
4.584870338439941,-0.8578763008117676,9.484801292419435,0.0011439011432230473,-0.010882958769798279,-0.0116138206794858
4.558579921722413,-0.8416029214859009,9.48806381225586,0.002407134277746082,-0.010372430086135864,-0.012037546373903753
4.581506252288819,-0.8471054434776307,9.521529197692873,0.0014523810241371393,-0.012669189833104612,-0.012548496015369894
4.568363189697266,-0.8356279134750366,9.485722541809084,0.0010269529884681108,-0.012722225859761238,-0.009279183112084867
4.563945293426515,-0.8207018971443177,9.505943298339844,0.00022676558000966907,-0.012697083875536919,-0.011920298449695112
4.584575653076172,-0.8504788875579834,9.496116638183594,-0.0015153989661484957,-0.01314660254865885,-0.008788734674453735
4.568575382232667,-0.8565697073936464,9.47615146636963,-0.0013516804901883008,-0.012204090133309364,-0.008464274927973747
4.551831245422363,-0.8687552213668823,9.475964546203615,0.0007152415346354246,-0.01000745501369238,-0.009289946407079697
4.580869674682617,-0.8899469375610352,9.482048034667969,0.0030731654260307555,-0.010762303136289121,-0.011972161009907722
4.576232433319093,-0.8531754016876221,9.488144874572756,0.003265482373535633,-0.010363216511905195,-0.013163518160581589
4.586503982543945,-0.8131679892539979,9.489095687866211,0.003519721562042833,-0.009942244738340378,-0.012728188186883926
4.58289670944214,-0.8263611793518066,9.448706626892092,-0.0006094892160035671,-0.010809548199176788,-0.011693735606968405
4.584611892700195,-0.8406928777694702,9.476737022399904,0.0007193527417257428,-0.009898971766233444,-0.010781918652355673
4.580300331115723,-0.8526461720466615,9.487377166748047,0.0008255892898887396,-0.011147561483085157,-0.008559437468647957
4.574383735656738,-0.8685092926025391,9.512639999389648,0.0006200969801284374,-0.0118635855615139,-0.010304000228643417
4.575595378875733,-0.833601713180542,9.494763374328615,-0.00065581314265728,-0.009630666114389898,-0.010916192084550858
4.58729362487793,-0.8478163480758667,9.474135398864748,-0.0006656858022324742,-0.011008684523403646,-0.008350716903805733
4.558444499969483,-0.8507499098777772,9.473533630371094,0.00036703186924569314,-0.010621337220072746,-0.009952883236110212
4.556200504302979,-0.8595591187477113,9.511045455932617,0.00015219554188661277,-0.010679946281015875,-0.00869503151625395
4.588907718658448,-0.8448904156684877,9.464222908020021,0.0011409554863348605,-0.010589554905891418,-0.008477601222693922
4.556368827819824,-0.8637886047363281,9.49881362915039,-0.0007395645370706916,-0.009516390040516853,-0.009326080791652204
4.571130275726319,-0.8561093807220459,9.511851310729982,-0.00038286345079541206,-0.009523787535727026,-0.0101969875395298
4.573240280151367,-0.8649767637252808,9.445479393005373,-0.0020803911611437798,-0.011442844755947592,-0.009074904955923559
4.548236370086671,-0.8496071100234985,9.506349563598633,0.0006582530913874507,-0.010074852965772154,-0.009904647246003151
4.577280521392823,-0.8488656878471376,9.501927375793459,0.001512585091404617,-0.012262140400707723,-0.011716794222593307
4.581444263458253,-0.8196738958358765,9.494438171386719,-0.0005375411128625274,-0.009906605817377569,-0.008165694773197174
4.577608108520508,-0.839357852935791,9.479217529296875,0.0007507659029215574,-0.009160998277366163,-0.00919028837233782
4.551959514617921,-0.8477444052696229,9.500204086303711,0.0020307351369410758,-0.009454678744077682,-0.009410331957042219
4.5622620582580575,-0.8587715029716493,9.49374294281006,-0.00025217692018486565,-0.0077920057810843,-0.010257825255393982
4.553143978118897,-0.8459854722023011,9.486905097961428,-0.000910053146071732,-0.006038702558726073,-0.00883277878165245
4.567900657653809,-0.8978688716888428,9.517812728881836,0.001146429916843772,-0.01010201219469309,-0.01100211124867201
4.561429023742676,-0.8281561732292176,9.492542266845703,0.0003836710238829255,-0.010688561014831068,-0.010630957782268524
4.566867351531983,-0.8374561071395874,9.492032051086428,-0.0017630767542868853,-0.011424070224165916,-0.011115749366581442
4.572410106658936,-0.8577930927276611,9.492380142211914,-0.0017342767678201199,-0.010164757259190084,-0.0081064123660326
4.575221538543702,-0.8540456295013428,9.463412284851076,-0.0017470933962613344,-0.010741109959781172,-0.007255583535879851
4.5706329345703125,-0.874017596244812,9.478090286254883,-0.0014354093000292778,-0.010567947290837766,-0.008906692266464233
4.571166038513184,-0.8496037125587464,9.462518692016602,-0.0023042156826704745,-0.01029434520751238,-0.008546946570277214
4.545413494110108,-0.8682244420051576,9.48054599761963,-0.002103697508573532,-0.011365453712642195,-0.01231289841234684
4.55232048034668,-0.8330776095390321,9.482444763183594,-0.0010549605358392,-0.01204513665288687,-0.010006441734731199
4.566960811614991,-0.844896674156189,9.485311508178711,-0.0015095827402547004,-0.011827688664197922,-0.011034908704459669
4.569816589355469,-0.8661599755287172,9.500028610229492,-0.0007460405468009413,-0.009879183955490591,-0.0104712825268507
4.564378261566163,-0.8712095618247987,9.480000495910646,0.0006072201067581773,-0.012354037724435331,-0.011545825749635696
4.551809310913086,-0.8659706115722656,9.518967628479006,-0.00034561971551738685,-0.01136108860373497,-0.010496338829398155
4.576562881469727,-0.8285311460494995,9.508882522583008,-0.002342646010220051,-0.012324380688369276,-0.009127972647547722
4.566359519958496,-0.8379201889038086,9.464366912841797,-0.0027160153258591895,-0.01203406509011984,-0.008494649082422256
4.543297290802003,-0.8844919204711914,9.460248947143555,0.00011172205267939717,-0.008912003599107267,-0.009042493999004364
4.563839912414551,-0.8687106370925903,9.498353004455568,0.00018191250273957849,-0.010893446393311025,-0.010416089557111265
4.572260856628418,-0.8660123348236084,9.483512878417969,-0.000595393474213779,-0.011393764056265356,-0.011473013088107109
4.583540916442871,-0.8359642624855043,9.512366294860842,-0.0005143064190633596,-0.013598413206636907,-0.009334443137049675
4.591415882110597,-0.8476961851119995,9.473468780517578,-0.0006242721574380994,-0.012809046544134619,-0.009728645905852318
4.590826988220215,-0.8301547765731812,9.488083839416506,0.00033796179923228925,-0.010114982724189758,-0.008665867149829865
4.591288089752198,-0.8635283112525941,9.48107433319092,-0.0007111912709660829,-0.011289890855550766,-0.00839043501764536
4.590093612670898,-0.8705319166183472,9.495415687561037,0.0004326343478169293,-0.009130201302468778,-0.009056109935045242
4.596459865570069,-0.8256611227989198,9.498602867126467,0.001628602738492191,-0.007474349811673164,-0.007847771979868414
4.560500621795655,-0.8555096387863159,9.498025894165039,0.0003042771422769875,-0.004899901337921619,-0.008673388510942459
4.555978298187257,-0.8604146838188172,9.486089706420898,0.0016571308951824903,-0.006106753367930652,-0.010132115334272385
4.557216644287109,-0.876090407371521,9.493603706359865,0.0028746377211064105,-0.0052829920314252385,-0.011931309476494789
4.560951232910156,-0.864339053630829,9.480239868164062,0.003775972640141845,-0.006589079275727272,-0.010942089371383192
4.536790370941163,-0.8774518966674805,9.496031761169435,0.004187521990388633,-0.010988684371113777,-0.01249954104423523
4.580161094665527,-0.8414519429206849,9.476245880126953,0.002229205332696438,-0.010873108170926573,-0.013222826644778252
4.582975387573242,-0.8546382784843446,9.48012447357178,0.0009442724403925241,-0.00994763430207968,-0.010060915723443031
4.588970661163331,-0.8598181605339051,9.5045862197876,0.001684852526523173,-0.01022827997803688,-0.010609756223857405
4.592958450317383,-0.8694123029708862,9.503293991088867,-0.0007988934521563352,-0.008855730295181274,-0.010748304426670074
4.58465576171875,-0.8324309587478638,9.461819648742678,-0.00046626586117781704,-0.008059538900852203,-0.009428990073502065
4.567146301269531,-0.8511848449707031,9.478824615478516,0.0031782067380845547,-0.004476015456020832,-0.008811301551759245
4.559840679168702,-0.8489036560058594,9.495676994323732,0.0026274602860212326,-0.004508577752858401,-0.009867368265986443
4.5685772895813,-0.8608990907669067,9.467992782592773,0.0024460083805024624,-0.005120364483445884,-0.008075975812971594
4.572713851928711,-0.860844612121582,9.46588134765625,0.001593257999047637,-0.0038396322634071116,-0.008460840210318565
4.531597137451172,-0.88352370262146,9.497645378112795,0.0037919324822723866,-0.004087783396244049,-0.009321921505033972
4.565681457519531,-0.8724934458732606,9.49838638305664,0.002863041590899229,-0.006108397152274848,-0.010161122307181358
4.55281686782837,-0.8254547119140625,9.499822616577148,0.004921114072203636,-0.004500827286392451,-0.01022650394588709
4.568045139312745,-0.8593496084213257,9.509113311767578,0.002191164763644338,-0.005424465984106064,-0.010761816985905172
4.558725833892823,-0.8538689017295839,9.484583854675295,0.0035128679592162375,-0.007403538096696139,-0.011690715327858925
4.571833610534668,-0.8445185422897339,9.507544517517092,0.0026686664205044512,-0.007286792621016502,-0.01211394276469946
4.591974735260011,-0.8502489328384399,9.492233276367188,0.0012775090290233495,-0.008818970993161201,-0.010894045233726501
4.567502975463867,-0.8548458218574525,9.505611419677734,0.0010362284956499936,-0.007852651178836823,-0.009150560013949873
4.578825950622559,-0.8585234880447388,9.469046592712404,0.002479505026713014,-0.009574946947395803,-0.008917450904846191
4.553683280944824,-0.878518044948578,9.487080574035646,0.0009053408284671606,-0.0064748795703053474,-0.009883393533527853
4.553177356719972,-0.8493998646736146,9.501205444335938,0.0019485465018078687,-0.006980264559388161,-0.011212252080440521
4.562288284301758,-0.8747077584266664,9.500202178955078,0.002418840304017067,-0.008423150517046453,-0.013167867437005043
4.550030231475831,-0.86071914434433,9.504605293273928,0.0033605038188397884,-0.009017780423164368,-0.013853459618985655
4.584495067596436,-0.8181649446487427,9.508656501770021,0.001143349218182266,-0.011056235060095787,-0.01141758542507887
4.566612720489503,-0.831906020641327,9.475309371948242,-0.0004770721716340632,-0.010378535836935043,-0.009447688236832619
4.582691192626953,-0.8455395698547363,9.485288619995117,-0.0007207822054624557,-0.011392281390726568,-0.010699119418859482
4.578438758850098,-0.8420320749282837,9.507376670837404,-0.0007241014973260463,-0.008263767696917059,-0.009111519902944565
4.568881511688233,-0.863854467868805,9.49667739868164,-0.0013692709617316723,-0.00845619570463896,-0.007274096831679344
4.557159900665284,-0.8921450972557069,9.473231315612795,-0.000765889068134129,-0.009162587113678457,-0.008013532496988775
4.544629573822022,-0.8653523921966553,9.475536346435547,-0.0012349162716418505,-0.009035651572048666,-0.009931236505508423
4.543486595153809,-0.876841962337494,9.4889612197876,-0.0007997806533239783,-0.009014177136123182,-0.01077406294643879
4.5693116188049325,-0.8421788215637207,9.509318351745607,-7.0817259256728e-05,-0.012069036252796652,-0.011410178616642952
4.560089111328125,-0.8367438316345215,9.478038787841797,-0.0015777508961036804,-0.011176666244864464,-0.011239232495427132
4.57403564453125,-0.8430482149124146,9.493995666503906,-0.003353483509272337,-0.013072350062429907,-0.009872475638985634
4.580529689788819,-0.8497017621994019,9.510765075683594,-0.0037191912997514014,-0.010413163341581823,-0.007418894208967686
4.559639930725098,-0.862791895866394,9.492605209350586,-0.0032869477290660147,-0.00830146111547947,-0.005402726586908103
4.542271614074707,-0.8455392122268677,9.494321823120117,-0.003531152615323663,-0.01009887084364891,-0.0067908549681305885
4.555324554443359,-0.847579061985016,9.531291007995607,-0.007875599898397924,-0.011962629854679108,-0.007326522376388312
4.56744384765625,-0.8250623345375062,9.49891471862793,-0.006916461978107692,-0.01694303192198277,-0.0030697286128997803
4.558195590972901,-0.8645139932632446,9.501379966735842,-0.008919631130993368,-0.01455572247505188,-0.003501562168821693
4.530145168304444,-0.8943800926208496,9.483879089355469,-0.006567025091499091,-0.014278408139944077,-0.0050134435296058655
4.556746006011964,-0.882282316684723,9.487081527709961,-0.006512037478387356,-0.014396785758435728,-0.0058982353657484055
4.596171855926515,-0.8499764800071717,9.48460578918457,-0.005326852202415466,-0.014612583443522453,-0.005584368947893382
4.606010437011719,-0.8499984741210938,9.462649345397951,-0.006250846199691296,-0.01193154137581587,-0.00362217565998435
4.591279029846191,-0.8483220338821411,9.446771621704102,-0.005730120930820704,-0.009515464305877686,-0.0003658595960587263
4.60212516784668,-0.8666036725044252,9.47307872772217,-0.004555230960249901,-0.00810252968221903,0.0008131361100822687
4.553461074829102,-0.8893338441848755,9.475909233093263,-0.0034540737979114056,-0.005273420363664627,-7.669108890695499e-05
4.564565181732179,-0.8766485452651978,9.495991706848146,-0.0033055772073566914,-0.0036386291030794386,-0.00025321071734651923
4.585320949554444,-0.8923768401145936,9.443121910095217,-0.0035057545173913245,-0.002029438503086567,2.216532448073849e-05
4.507713317871094,-0.903671145439148,9.48482418060303,-0.0006772370543330908,0.002033804310485721,-0.001092991093173623
4.539761543273926,-0.9189163446426392,9.441034317016602,0.0021826564334332943,0.0009405352175235748,-0.004303228575736285
4.562577724456788,-0.8503201007843018,9.458495140075685,0.005026631057262421,0.0027829792816191916,-0.00833851844072342
4.531184196472168,-0.7662782073020936,9.501733779907227,-0.0007854734431020917,0.004618636332452297,-0.0028372062370181084
4.604469776153565,-0.7843605279922485,9.492454528808594,-0.00786386523395777,0.005618528462946415,0.005742866080254317
4.573389530181886,-0.7817070484161377,9.445581436157227,-0.010345526039600372,0.014716861769557,0.010531662963330747
4.519304752349854,-0.7541081309318544,9.393538475036623,-0.012120731174945831,0.022982040420174602,0.007521701976656914
4.528055667877198,-0.7132259011268617,9.451128959655763,-0.021660162135958675,0.028702877461910248,0.016699176281690598
4.534148216247559,-0.8209428787231445,9.466835021972656,-0.03829229250550271,0.034691356122493744,0.024262411519885067
4.538957595825195,-0.9402881860733032,9.401526451110842,-0.03689239174127579,0.04929341375827789,0.021203713491559032
4.590327739715577,-0.8399901390075684,9.466090202331545,-0.03521938249468804,0.060600489377975464,0.02204450033605099
4.614095687866211,-0.9143267869949341,9.44586181640625,-0.04250224679708481,0.0843966528773308,0.030218793079257015
4.583433151245117,-1.0727628469467165,9.41554355621338,-0.03590250760316849,0.11610313504934312,0.029519058763980865
4.526426315307617,-0.9538160562515259,9.529020309448242,-0.020136917009949688,0.11334065347909929,0.02033989131450653
4.469165325164796,-0.8284870982170106,9.52377700805664,-0.02089275605976582,0.11101764440536499,0.020292630419135097
4.415093898773194,-0.9789285659790039,9.536026000976562,-0.025850521400570873,0.1073521226644516,0.01977505534887314
4.429938793182374,-0.950377345085144,9.562062263488771,-0.023226693272590637,0.10769424587488176,0.018317367881536484
4.4579267501831055,-1.1035010814666748,9.579413414001467,-0.013444874435663223,0.1254129409790039,0.022713461890816692
4.347472667694093,-0.9436171650886537,9.589431762695312,-0.011287467554211617,0.11039002984762193,0.012621542438864708
4.387141704559327,-0.9060470461845399,9.656122207641602,-0.009311577305197716,0.08491232246160509,0.0059407888911664495
4.384886264801026,-0.8372125029563905,9.660252571105959,-0.012942028231918814,0.06267884373664856,0.004215631168335677
4.348372459411621,-0.8634586930274964,9.688800811767578,-0.015392712317407133,0.04009226337075234,0.0007414730498567224
4.409346580505371,-0.8663351535797119,9.700661659240724,-0.020811326801776886,0.01609945856034756,9.629470878280699e-05
4.375664234161378,-0.9580750465393066,9.664175033569336,-0.019253570586442947,-0.00418293895199895,-0.0003191301075275988
4.34902286529541,-0.8932753801345825,9.65863037109375,-0.021576154977083206,-0.022439187392592434,-0.004711209796369076
4.394830703735352,-0.8741483688354492,9.638340950012209,-0.028348177671432495,-0.039111122488975525,-0.006183104123920203
4.410728931427003,-0.8484278917312622,9.635699272155763,-0.036046739667654044,-0.05038098990917206,-0.004887044895440341
4.393250465393066,-0.8268693685531616,9.63362789154053,-0.04958878830075265,-0.06329485774040222,0.003463592380285263
4.382472991943359,-0.9926360249519349,9.56538486480713,-0.04981698468327523,-0.07235129177570343,0.0016277347458526494
4.397074222564698,-0.9749002456665039,9.575768470764162,-0.04741485789418221,-0.07908146828413011,-0.007517321966588497
4.411916732788086,-0.916288197040558,9.60794448852539,-0.05011821538209915,-0.08946567028760911,-0.009762570261955261
4.469493865966797,-0.9980325698852539,9.475056648254396,-0.049044515937566764,-0.08977702260017395,-0.01124369166791439
4.423649787902832,-1.1136412620544434,9.470395088195803,-0.0378980003297329,-0.0847543478012085,-0.020380960777401928
4.471973896026612,-1.0125997066497803,9.546943664550781,-0.0256655253469944,-0.0884920209646225,-0.030367797240614895
4.521404743194581,-0.990317702293396,9.497215270996094,-0.01978665217757225,-0.08309807628393175,-0.030631933361291885
4.477498531341554,-1.0327919721603396,9.491669654846193,-0.014562741853296758,-0.08024269342422485,-0.03225450962781906
4.3885865211486825,-1.060326337814331,9.469549179077148,-0.0076321554370224485,-0.08274926245212555,-0.039336074143648155
4.429716110229492,-1.117807388305664,9.435658454895021,0.0035704087931662802,-0.08305182307958604,-0.05104999989271164
4.34834909439087,-1.1784207820892334,9.419065475463867,0.02694197185337544,-0.0793645977973938,-0.06972535699605943
4.497547149658203,-1.1156941652297976,9.438883781433107,0.04641637206077576,-0.07739593833684923,-0.0863529071211815
4.586878299713136,-0.8524787425994873,9.44047737121582,0.05511059612035751,-0.07098328322172166,-0.09119047224521637
4.459101200103761,-0.8641835451126099,9.556735038757326,0.04752402380108834,-0.07242577522993089,-0.0854065865278244
4.407355308532715,-0.9238388538360596,9.555211067199709,0.041294343769550323,-0.0856682136654854,-0.08457323908805847
4.159379005432129,-1.128543257713318,9.566705703735352,0.04221847653388977,-0.10964203625917436,-0.10005532950162889
4.440640926361085,-0.9568110704421997,9.624191284179688,0.049139127135276794,-0.14667151868343356,-0.11888517439365387
4.280487537384034,-1.003120541572571,9.596450805664062,0.06379989534616472,-0.16860102117061618,-0.13164973258972168
4.354375839233398,-0.9697434902191162,9.596421241760256,0.07883840054273607,-0.20385053753852844,-0.15238626301288608
4.526463508605957,-0.8396730422973633,9.620854377746584,0.08203678578138353,-0.23279955983161926,-0.1616801917552948
4.507745265960694,-0.7839086651802064,9.596310615539553,0.08259062469005585,-0.2518220245838166,-0.1668967306613922
4.493901729583741,-1.0589362382888796,9.455694198608398,0.10762330889701843,-0.26851993799209595,-0.18030814826488498
4.42934274673462,-1.0759104490280154,9.488484382629396,0.13042894005775452,-0.2924740612506867,-0.2050073742866516
4.521925449371339,-0.6919530034065248,9.55225467681885,0.13534939289093018,-0.32519683241844183,-0.216098889708519
4.626814842224121,-0.5975318551063539,9.633674621582031,0.12277784198522569,-0.3769932985305786,-0.196580246090889
4.408186912536621,-0.925034761428833,9.601545333862305,0.13251672685146335,-0.4364348948001862,-0.19248870015144348
4.576679706573487,-1.034401059150696,9.542501449584961,0.18182291090488437,-0.49623924493789673,-0.20956657826900485
4.624298095703125,-0.9357839822769165,9.529075622558594,0.21898083388805392,-0.5523762702941895,-0.221530944108963
4.523372650146484,-0.5033138990402222,9.656641006469727,0.23858749866485596,-0.6161511540412904,-0.20155680179595947
4.576216697692871,-0.4591028094291687,9.620363235473633,0.21379332244396212,-0.6957203745841981,-0.16950953006744385
4.624789237976074,-0.4790797829627991,9.605445861816406,0.17982582747936252,-0.7878016233444214,-0.1523762494325638
4.723522663116456,-0.6962246894836426,9.372830390930178,0.19504550099372864,-0.8676742911338807,-0.11150532215833665
4.934216499328613,-0.22794778645038608,9.514016151428224,0.16846680641174316,-0.947358548641205,-0.1382671594619751
4.8496766090393075,-0.39990711212158203,9.476864814758303,0.14911127090454102,-1.0161032676696777,-0.11542821675539018
4.882046699523926,-0.5569696426391602,9.44723892211914,0.13946644961833957,-1.106367588043213,-0.1143670901656151
4.921894550323487,-0.6506990194320679,9.367735862731935,0.1260373592376709,-1.2020252943038943,-0.12584783136844638
5.009273052215577,-0.8726115226745605,9.369364738464357,0.1252116560935974,-1.3097525835037234,-0.14875775575637817
5.053896427154542,-0.6658740639686586,9.383725166320803,0.11735190451145172,-1.4304511547088623,-0.1737870424985886
5.095892906188965,-0.5465434789657593,9.415239334106445,0.117410808801651,-1.5708442926406863,-0.15747910737991333
5.41792917251587,-0.6059176921844482,9.519418716430664,0.13551488518714905,-1.7306345701217654,-0.20959629118442538
5.537254333496094,-0.6710827350616455,9.219385147094727,0.11206174641847612,-1.8363611698150635,-0.2048694044351578
5.717390537261964,-0.19453932344913485,9.460287094116211,0.07394476979970933,-1.9697583913803103,-0.23763489723205566
5.802629947662354,-0.39853012561798096,9.646451950073242,0.04100024700164795,-2.0945394039154057,-0.2598925828933716
5.758155822753906,-0.7423310279846191,9.57078266143799,0.07673499733209611,-2.2995777130126953,-0.2856786251068115
5.736212730407715,-1.214846134185791,9.514130592346193,0.1327093690633774,-2.4717769622802734,-0.3346866071224213
5.445528984069824,-1.8508361577987673,8.754902839660646,0.2950530946254731,-2.6927940845489506,-0.4567928910255432
5.539785861968995,-1.9399676322937012,8.941551208496094,0.5471392273902894,-3.011274814605713,-0.6454369425773622
5.949788570404054,-1.9415434598922732,9.015604019165039,0.8738619685173036,-3.3839526176452637,-0.8540897369384766
7.261343002319336,-1.8218878507614138,9.44420051574707,1.1607981920242312,-3.7633628845214844,-1.0059570074081423
8.354711532592773,-1.3022403717041016,10.156739234924318,1.3016831874847412,-4.038561820983887,-1.1122647523880007
10.200381278991701,-0.27260929346084595,11.288583755493164,1.1761113405227663,-4.198394775390625,-1.124282479286194
10.650580406188967,-1.2046544551849365,10.764868736267092,1.1495966911315918,-4.271853923797608,-1.1862341165542605
12.949406623840334,-1.4734464883804324,11.757569313049318,1.2946046590805056,-4.370526313781738,-1.2505959272384646
16.833084106445312,-0.5869259834289551,12.599632263183594,1.392155408859253,-4.31144905090332,-1.2330292463302615
20.78232192993164,1.1376086473464968,12.424007415771484,1.4335962533950808,-4.058065414428711,-1.2011712789535525
21.612237930297855,-2.165771961212158,9.604076385498047,1.6910749673843386,-3.690652370452881,-1.2508454322814941
21.473041534423828,-2.7459623813629155,6.120012760162354,2.624342918395996,-3.492256879806519,-1.5214803218841553
23.55451202392578,-0.11230029910802843,4.567793369293214,3.5752871036529545,-3.443437814712525,-1.6260607242584229
22.841602325439453,4.001155376434327,2.331245660781861,4.053133487701417,-3.2872376441955566,-1.4789274930953982
31.70281791687012,9.96873664855957,7.215848922729492,2.8319375514984135,-3.1494288444519043,-0.9809634685516357
30.36430931091309,6.263564586639405,11.819939613342287,1.2869369983673096,-1.816200375556946,-0.4755828380584717
24.41732978820801,5.457655906677246,9.236238479614258,0.1926337480545044,-1.373033046722412,-0.20873637497425082
21.9448413848877,3.5261383056640625,7.624677658081055,-0.6068573594093324,-1.1117358207702637,0.000987650942988694
18.259759902954105,2.371819019317627,5.79848337173462,-1.141191005706787,-1.1666084527969363,0.23197270929813388
16.278564453125,1.4280208349227907,5.334893703460694,-1.4783399105072021,-1.4779802560806277,0.34530144929885864
16.188316345214844,-0.4815751910209656,6.1907315254211435,-1.4763232469558718,-1.6562184095382693,0.3091980814933777
15.366774559020998,-2.213665008544922,7.553800582885742,-1.2034223079681396,-1.552655100822449,0.1901264786720276
14.894387245178224,-4.2148756980896005,9.458659172058107,-0.6906555891036987,-1.2038010358810427,0.06725723296403886
13.988222122192383,-5.857657432556152,10.718971252441406,0.0878647118806839,-0.5819731354713441,0.05818607658147812
10.566301345825195,-5.227139949798585,10.254916191101076,0.9412264823913574,0.09186375141143799,0.17768953740596774
6.626406192779542,-2.49735689163208,9.671574592590334,1.4094643592834473,0.5811223387718202,0.38703733682632446
4.793188095092773,0.9360141754150391,9.792131423950195,1.2204999923706055,1.0078705549240115,0.7246430516242982
2.023279428482056,2.465826749801636,8.560023307800295,0.627980411052704,1.5325028896331787,1.0464545488357546
-0.976649284362793,1.7887142896652224,6.666109085083008,0.10652012377977373,1.8978234529495241,1.157914400100708
-3.6258199214935307,0.9978898763656616,4.799206256866456,-0.07833358645439148,2.0321276187896733,1.1301941871643066
-5.475754737854004,0.7659712433815004,3.8065004348754883,0.019586106762290004,2.0691285133361816,0.9766281843185425
-4.453735828399659,1.184413194656372,4.664132118225098,0.10314474254846574,2.231452465057373,0.8135399222373964
-5.515697479248047,0.9843058586120605,3.807029008865357,0.1988765299320221,2.4980149269104004,0.6735251545906068
-6.731647491455078,1.1401481628417969,3.322248935699463,0.21039721369743347,2.6510779857635502,0.5176964998245239
-7.0510759353637695,1.2926272153854372,2.3568592071533203,0.08599121868610382,2.8540575504302983,0.4069072902202607
-8.183061599731445,0.8590304255485536,0.9160356521606445,-0.03371234610676766,2.956169605255127,0.2874044477939606
-8.264322280883789,0.745682179927826,-0.1008332371711731,-0.1346743553876877,2.9571583271026616,0.20160013437271118
-8.524373054504396,0.7610941529273988,-0.569801926612854,-0.23655852675437927,2.8801882266998295,0.12243373692035675
-6.465068340301515,0.744544506072998,1.3924033641815186,-0.44137996435165405,2.869214296340943,0.08875467628240587
-3.8566658496856694,0.021465003490447998,3.414011716842652,-0.6490805149078369,3.189816236495972,0.1439191997051239
-3.8682103157043457,-0.6705412268638612,2.271678924560547,-0.6682745218276978,3.5881142616271973,0.24705673754215243
-5.0207257270813,0.4420545697212219,-0.07625161111354828,-0.5997610688209535,3.69834041595459,0.33535888791084295
-4.104423522949219,1.8871471881866455,-0.7156153917312622,-0.7114731669425965,3.586303234100342,0.407309353351593
-1.7615836858749392,1.7592408657073975,0.32951390743255615,-0.8469034433364868,3.498224496841431,0.4263879060745239
0.3417972922325134,1.842573881149292,1.2136287689208984,-0.8656984567642212,3.5392746925354004,0.3882397115230561
1.831383466720581,2.003692150115967,1.1120902299880984,-0.8142911791801454,3.5742788314819336,0.2472481578588486
3.8386387825012207,1.8421741724014284,1.415353775024414,-0.7566975951194764,3.536194324493408,0.10249647498130798
5.8331313133239755,1.9474908113479616,1.6286004781723025,-0.7217225432395936,3.4849343299865723,0.0663924738764763
7.564775943756104,2.1697385311126713,1.3374465703964236,-0.7395395040512085,3.379211902618408,0.09221870452165605
9.67092037200928,3.0208139419555664,1.6493805646896365,-0.8022995591163636,3.1673574447631836,0.15759544074535373
13.242232322692873,3.182558059692383,3.226476907730103,-0.908559024333954,2.951937198638916,0.21562212705612183
15.87174701690674,2.742393970489502,4.315181255340577,-0.8947465419769287,2.802505254745484,0.2590969204902649
17.018793106079105,3.0053067207336426,4.077517986297608,-0.7689945697784424,2.6011223793029785,0.3158774673938752
17.266666412353516,2.7077147960662846,3.0647172927856445,-0.5914173126220703,2.2417891025543217,0.359882116317749
16.644649505615234,2.0918192863464355,2.2942724227905273,-0.3490120768547058,1.7692166566848757,0.4269658029079438
14.374774932861328,2.1055109500885014,-0.1504386514425278,-0.05326929688453674,1.2829185724258425,0.4863300919532776
9.670708656311037,2.7426431179046635,-4.074226379394531,0.15198539197444919,0.5012922883033754,0.517035961151123
10.961820602416992,5.975833415985108,-7.539980411529542,0.22613517940044406,-0.6456953287124634,0.588370978832245
72.62722778320312,27.74663352966309,33.00748825073243,-3.1527657508850098,-1.3590015172958376,1.8315190076828005
22.105749130249027,6.866261005401612,3.093059539794922,-0.22409331798553467,2.342242002487183,0.2490503191947937
14.473722457885742,-3.924746513366699,11.399975776672365,-2.228701591491699,1.2903015613555908,1.782513499259949
-3.179328441619873,4.557991981506348,11.94704341888428,-1.48301899433136,1.6981983184814453,1.434371590614319
-0.07460376620292664,-11.322463035583498,14.170307159423828,-0.3117564916610718,1.2212737798690798,0.11074065417051317
1.7735953330993652,-20.152414321899418,9.442679405212404,0.35399961471557617,0.7160908579826356,-0.18677857518196106
0.7775903344154359,-1.7214506864547732,12.346535682678224,0.6966052055358887,0.12237022817134857,-0.8138682246208192
5.437859535217285,0.880049467086792,9.758923530578615,0.6847047209739686,-0.05185273289680481,-0.9861392378807069
7.140702247619629,6.087392330169679,9.47582530975342,0.21712960302829745,-0.10222655534744263,-0.5653364658355713
7.243566513061523,4.4140472412109375,9.211819648742678,-0.15626776218414307,-0.028267459943890575,-0.02228531613945961
6.545684337615968,0.10258054733276367,8.659479141235352,-0.27530062198638916,0.06866896152496338,0.2247153073549271
5.1055665016174325,-4.117138385772706,8.433835029602053,-0.15447656810283664,0.15281611680984497,0.13403220474720004
4.278039932250977,-2.8327281475067143,9.122364044189453,0.0054018865339458,0.1448189616203308,-0.0672377347946167
4.655289649963379,0.9348140358924867,10.136554718017578,-0.021966025233268738,0.04446212574839593,-0.08893707394599915
5.113567829132081,1.677976131439209,9.95803451538086,-0.17810215055942538,-0.060028854757547385,0.0795392394065857
5.2034649848938,-0.2368701696395874,9.440187454223633,-0.25559809803962713,-0.1192389577627182,0.17700745165348056
5.03808355331421,-1.6646969318389893,9.183538436889648,-0.20006626844406128,-0.16303597390651706,0.1395273953676224
4.779654979705811,-1.7555856704711914,9.271206855773928,-0.12117315083742143,-0.20358535647392273,0.06573431938886644
4.7983198165893555,-0.4704241156578064,9.475906372070312,-0.13186536729335788,-0.26318213343620306,0.026237279176712036
5.115217685699464,-0.4615978300571442,9.45486068725586,-0.1852937936782837,-0.321849137544632,0.03991319239139557
5.215669631958008,-0.19607022404670715,9.367224693298342,-0.22049774229526523,-0.3677169680595398,0.07592464983463287
5.049012184143066,-0.1067035421729088,9.500167846679688,-0.26997172832489014,-0.4337275922298432,0.10538420081138611
4.878031253814698,-0.9114202260971069,9.375358581542969,-0.3041004836559296,-0.5118334889411927,0.0919138640165329
4.905221462249757,-1.414518713951111,9.268172264099123,-0.2898879051208496,-0.5847020745277406,0.06456318497657776
5.265857219696046,-1.1795233488082888,9.097554206848146,-0.2531526982784272,-0.6312441825866699,0.059317708015441895
5.51883363723755,-0.6456407308578491,9.037507057189943,-0.24566665291786194,-0.6613430380821229,0.06861196458339691
5.603069782257081,-0.7103921771049501,8.962605476379396,-0.26999172568321234,-0.681678593158722,0.07139463722705841
5.432992458343507,-0.6981543302536011,8.956656455993654,-0.28009098768234253,-0.704101860523224,0.09881067276000977
5.440019607543945,-0.4236304759979248,8.925481796264648,-0.31048470735549927,-0.7826029658317567,0.11803678423166276
5.238706588745117,-0.514420747756958,9.077748298645021,-0.36857095360755926,-0.8655972480773926,0.12246333807706834
5.350008010864258,-0.833925724029541,9.17142963409424,-0.399938702583313,-0.9676121473312378,0.11260623484849931
5.130613803863526,-1.1854650974273682,8.97774887084961,-0.38665792346000677,-1.014084815979004,0.09597899764776231
5.282092571258546,-1.7320641279220583,9.020419120788576,-0.3300679326057434,-1.0701824426651003,0.03839386627078057
5.383491039276124,-1.5130808353424072,8.602779388427734,-0.2378435730934143,-1.1160601377487185,-0.006751354783773422
6.001888275146484,-1.5403038263320925,8.36356830596924,-0.18594035506248474,-1.1218349933624268,-0.0617901273071766
6.212684631347656,-1.4772847890853884,8.207375526428224,-0.16402563452720642,-1.093926787376404,-0.08815702795982361
6.370032787322999,-1.469492316246033,8.06191635131836,-0.1300792843103409,-1.035468339920044,-0.1014752984046936
6.613522529602051,-1.5783609151840212,7.86238956451416,-0.1043732762336731,-0.9567793011665345,-0.133475661277771
6.7420010566711435,-2.0291135311126713,7.481730937957765,-0.05486751347780228,-0.8570003509521484,-0.15112759172916415
6.968278408050538,-1.6939938068389893,7.293857574462891,0.0035203702282160525,-0.7389103174209595,-0.1546808034181595
6.908444404602051,-1.339951515197754,7.656241893768311,0.03242390975356103,-0.6310756206512451,-0.16321149468421936
6.762834548950195,-1.2781982421875,7.804851055145265,0.05536286532878876,-0.5559052824974061,-0.15438690781593323
6.753177165985108,-1.3983943462371826,7.635152816772461,0.06803273409605028,-0.5034584403038026,-0.15071845054626465
6.741569519042969,-1.3810650110244753,7.712703227996827,0.0830283910036087,-0.4746961891651154,-0.16214457154273987
6.489000797271729,-1.4307597875595095,7.73480224609375,0.09567369520664215,-0.45531836152076727,-0.17948324978351596
6.492875099182129,-1.5602293014526367,7.760592937469483,0.12077836692333221,-0.4654363095760346,-0.20751851797103882
6.7965593338012695,-1.1299761533737185,7.7312164306640625,0.1388205587863922,-0.47206777334213257,-0.22364251315593722
6.767693996429444,-1.1938205957412722,7.741148948669434,0.14474166929721835,-0.44548332691192627,-0.23486973345279696
6.69319772720337,-0.822993576526642,7.956515312194824,0.14659473299980164,-0.4411974251270295,-0.23721517622470858
6.779979705810547,-0.3208109736442566,8.019864082336428,0.1230248734354973,-0.4465295672416687,-0.20876459777355197
6.508874416351319,-0.6539406180381776,7.906808376312257,0.09868225455284119,-0.46210813522338867,-0.19025979936122897
6.6974992752075195,-0.4466303586959839,7.853921413421632,0.0862179845571518,-0.5184041857719422,-0.17846423387527466
6.735918521881104,-0.11919119954109192,8.232056617736818,0.05775847285985947,-0.5684965252876283,-0.15160040557384494
6.4290571212768555,-0.303603082895279,8.181414604187013,0.022362016141414642,-0.6444309353828431,-0.11980034410953522
6.217329025268555,-0.8969169259071351,8.333514213562013,0.02570630051195622,-0.7461838126182557,-0.1311371922492981
6.450675964355469,-1.1303722858428955,8.179295539855959,0.07084815949201585,-0.8707237243652344,-0.17053960263729098
6.515058994293214,-1.341804385185242,7.705544471740723,0.11206669360399248,-0.9608761072158813,-0.21431908011436462
6.795515537261964,-1.2763640880584717,7.669346809387207,0.1480154246091843,-1.0512022972106934,-0.2706625163555146
6.823394298553468,-1.2175713777542116,7.541170597076417,0.1801293641328812,-1.111948370933533,-0.3063690662384033
7.05573320388794,-0.8999664783477783,7.668773651123047,0.21142427623271945,-1.2122478485107422,-0.3222499787807465
6.8466534614563,-1.21299409866333,7.696866989135742,0.2398854345083237,-1.3034374713897705,-0.33953869342803955
6.602217197418214,-1.297926902770996,7.704714775085449,0.3093315362930298,-1.4801775217056277,-0.37141597270965576
6.373522758483887,-1.087208151817322,8.225704193115234,0.3667751848697663,-1.7495795488357546,-0.42346298694610596
6.29176950454712,-1.1383259296417236,7.9765625,0.44396612048149114,-2.080554962158203,-0.4866256415843964
6.598012447357179,-1.0244619846343994,7.951139450073242,0.4980041086673737,-2.468700408935547,-0.5498653650283813
6.699792385101319,-1.0106574296951296,7.428203582763672,0.5653539299964906,-2.8832859992980957,-0.597052037715912
7.265870094299316,-0.7990549802780151,7.246707439422608,0.6244860291481019,-3.3555839061737065,-0.6513841152191162
7.603646278381348,-0.6879967451095581,7.2759552001953125,0.6607930064201356,-3.767665386199951,-0.6733525395393373
8.860923767089844,-0.18624469637870789,7.195058822631836,0.657198429107666,-4.1464581489563,-0.6193590760231019
9.010317802429201,0.6431099772453309,7.58469295501709,0.6393615007400513,-4.436152935028077,-0.5814735889434814
10.823860168457031,0.8788493871688843,7.772006988525391,0.5775368809700013,-4.623612880706788,-0.4803057909011841
12.631802558898928,0.883273720741272,8.489344596862795,0.452537089586258,-4.621189117431641,-0.29004707932472235
13.707226753234865,0.2437732368707657,8.390503883361818,0.3554037511348725,-4.334470748901367,-0.18884271383285522
16.81179428100586,-0.884808123111725,8.610936164855959,0.3410136103630066,-3.842014074325562,-0.2999555468559265
22.236150741577152,-1.6739671230316162,8.120929718017578,0.09913450479507446,-3.3738913536071777,-0.378586620092392
23.978555679321293,0.4850886762142182,6.793975353240968,-1.0617746114730837,-2.904634952545166,-0.03000191412866116
20.24099922180176,2.4131991863250737,4.580589294433594,-2.6523411273956303,-2.487142562866211,0.17420443892478943
19.662851333618168,-1.0717687606811523,2.4169974327087402,-4.012388706207276,-2.2599310874938965,0.12793497741222384
20.41293525695801,-1.9616037607192995,-2.7582931518554688,-4.28407096862793,-2.379692554473877,-0.3838410079479218
19.61160659790039,-2.991715908050537,-5.264474391937257,-3.744890451431275,-2.5000877380371094,-1.2242258787155154
17.82984161376953,-3.526629209518433,-6.908914566040039,-2.7702543735504155,-2.8893284797668457,-2.185690402984619
21.85006141662598,-3.1576852798461914,-7.30628776550293,-1.6409718990325928,-3.823494672775269,-3.044130325317383
30.55931663513184,-2.517957448959351,3.708039522171021,-0.8992858529090882,-3.833353757858277,-3.320333957672119
22.82354736328125,-1.1106212139129639,3.3895115852355957,-0.5508238077163696,-3.180461645126343,-3.3807268142700195
20.487977981567386,-1.0705432891845703,3.6238100528717045,-0.2281050980091095,-3.171165227890015,-3.5044581890106206
17.30966377258301,-1.4116886854171755,4.298022747039796,0.08628080040216447,-3.08807373046875,-3.579917192459107
14.996574401855469,-1.5237054824829102,4.717031478881836,0.3059023320674897,-3.1293876171112065,-3.5824360847473145
13.089362144470217,-2.582854747772217,5.517061233520508,0.5367317199707031,-3.0750129222869877,-3.469449520111084
11.190986633300781,-3.6208941936492924,6.0675506591796875,0.7962393760681152,-2.9648182392120366,-3.249848604202271
9.38157367706299,-4.596159458160401,6.840479850769043,1.128963112831116,-2.7731986045837402,-2.999294996261597
7.83568000793457,-4.997143745422363,7.351018905639648,1.4698835611343386,-2.51238226890564,-2.6985979080200195
6.264347553253175,-4.92163896560669,7.86142635345459,1.7779088020324707,-2.169347524642945,-2.3477845191955566
5.077335834503175,-4.466023921966554,8.467959403991701,1.9958943128585818,-1.7369976043701172,-1.9518163204193115
4.241738319396973,-3.983896970748902,9.08281135559082,2.0848033428192143,-1.2010300159454346,-1.5147060155868532
4.482606887817383,-3.6877868175506596,10.215661048889162,2.0694799423217773,-0.5451315641403198,-1.0415378808975222
5.292300224304199,-2.8408074378967285,11.846287727355959,1.9457980394363406,0.3013949394226074,-0.5182784199714662
5.822294712066651,-2.02889895439148,12.690619468688967,1.6789597272872927,1.3856325149536133,-0.01765172928571701
4.430818557739258,-1.4983198642730713,12.437241554260256,1.345160961151123,2.458445310592652,0.3947461247444153
1.8613026142120361,-0.6162046790122987,10.77143669128418,0.9754849076271058,3.283838033676148,0.7363719940185547
-1.2696654796600342,-0.7066451907157899,7.798110485076905,0.6679309010505677,3.7751927375793457,0.9769640564918519
-4.124953269958496,-0.21232521533966064,4.75325870513916,0.500851333141327,3.8755884170532227,1.1261227130889893
-5.431538105010987,0.21477097272872925,2.938170671463013,0.3578512668609619,3.6348407268524174,1.2623717784881592
-4.626783847808839,0.40711882710456854,2.841815948486328,0.24217915534973145,3.288684844970703,1.3732315301895144
-2.586122512817383,0.033004336059093475,4.07457160949707,0.15540830790996554,3.114898204803467,1.434737801551819
-0.7604535222053529,-0.6841026544570923,5.747865676879883,0.20231209695339206,3.2114386558532715,1.4221222400665283
0.03932679444551468,-0.3430301249027253,6.911615371704102,0.352245032787323,3.4731118679046635,1.3489272594451904
0.44430324435234075,0.7329411506652832,7.440746784210206,0.36966580152511597,3.7926177978515625,1.2819112539291384
1.2032977342605593,1.6596009731292725,7.621414661407472,0.1451098620891571,4.141653537750245,1.2543644905090332
1.9192678928375244,1.6533950567245486,7.517942905426026,-0.19285549223423007,4.473850250244141,1.2364568710327148
2.3901765346527104,1.0190260410308838,7.114989280700684,-0.475258469581604,4.763866901397706,1.2090675830841064
2.417092084884644,0.11511246860027313,6.3593902587890625,-0.5832709074020386,4.964686393737793,1.1780551671981814
2.2849764823913574,0.2267662733793259,5.64598274230957,-0.5852267742156982,5.028122425079347,1.130603313446045
2.7256622314453125,0.8655742406845093,5.3914594650268555,-0.6492035984992982,4.967863082885742,1.0951061248779297
3.775480270385742,1.19255006313324,5.68465280532837,-0.8141601681709291,4.878508567810059,1.0636242628097536
5.282676219940186,1.163239359855652,6.623516082763672,-1.0258306264877322,4.833254337310792,1.0611350536346436
6.941803455352784,1.2271178960800173,7.577585697174073,-1.202427864074707,4.862045764923097,1.0894896984100342
8.606155395507812,0.824096977710724,8.036303520202638,-1.3254733085632324,4.935010433197022,1.1339412927627566
9.780314445495607,0.13832548260688782,7.934309482574464,-1.3070342540740967,4.982352733612061,1.1839468479156494
10.378585815429688,-0.038195058703422546,7.72434949874878,-1.1387816667556765,4.941483020782472,1.2522120475769043
10.916589736938477,0.7787709832191468,7.678030490875245,-0.9880175590515137,4.825000286102296,1.3119406700134277
11.995285034179688,2.150818347930908,7.946879863739015,-0.9637972712516786,4.63380241394043,1.3958845138549805
13.484412193298342,3.675200700759888,8.332403182983398,-1.0789391994476318,4.4135499000549325,1.46354341506958
14.39481830596924,4.331123352050781,8.480460166931154,-1.211108922958374,4.20500373840332,1.3811541795730593
14.50985336303711,5.397875785827637,8.852313995361328,-1.3401875495910645,3.96373724937439,1.1154279708862305
16.464099884033203,6.410140037536621,10.116291999816896,-1.5191097259521484,3.7799656391143803,0.6953373551368714
18.81175994873047,7.660400867462159,11.372912406921388,-1.7157306671142578,3.7717025279998784,0.23467472195625305
19.672433853149418,9.016072273254396,11.447035789489748,-1.9930886030197146,3.879872560501099,-0.2834354043006897
18.82433128356934,9.795416831970217,9.61489486694336,-2.280235767364502,3.960499525070191,-0.844118595123291
16.646087646484375,9.838521003723146,7.073458671569824,-2.511669635772705,3.839710950851441,-1.4090915918350222
15.538330078125,8.731680870056154,5.256696701049805,-2.6407406330108647,3.5204110145568848,-1.9279257059097292
15.667824745178224,7.393269062042237,4.123381614685059,-2.62678074836731,3.1269786357879643,-2.322429656982422
15.519839286804201,6.646872520446777,3.0952332019805913,-2.543159008026123,2.6873781681060795,-2.570347785949707
14.69384765625,6.084244728088379,2.0541858673095703,-2.4520821571350098,2.197269678115845,-2.7378265857696538
13.769461631774904,6.143340587615968,1.1689685583114626,-2.4092171192169194,1.66072416305542,-2.871970891952515
13.682026863098146,6.1265363693237305,0.7323942780494691,-2.481875419616699,1.1166861057281494,-2.943207979202271
14.31047248840332,5.567679882049561,0.5836532711982728,-2.5691161155700684,0.6458082795143129,-2.9313669204711914
14.467762947082521,4.768840789794922,0.4118189811706543,-2.5764863491058354,0.27578258514404297,-2.8104195594787598
13.667195320129396,3.9654879570007324,0.1566174328327179,-2.46141266822815,-0.04245613515377045,-2.5931746959686284
11.22800922393799,-2.2769587039947514,0.7524600028991699,-2.047968864440918,-0.38883644342422485,-2.3136689662933354
14.400877952575685,-3.5127406120300293,-4.819170475006104,1.5459891557693484,-1.4284992218017578,-2.6776306629180913
25.48787879943848,5.028839111328125,14.437889099121094,0.7668662071228027,-1.6764119863510134,-1.437327027320862
31.602483749389652,0.22247666120529175,27.753423690795902,-0.1400664746761322,0.9967802166938783,0.046149469912052155
-7.973369121551515,-4.0068559646606445,1.0267347097396853,0.13423317670822144,1.2183921337127686,0.0758420154452324
-0.676498532295227,-11.286376953125,8.153152465820312,0.6250693798065186,-0.460233360528946,-0.3263256549835205
8.164656639099123,1.7012432813644411,15.543007850646974,0.5883106589317323,-0.608421802520752,-0.47605109214782715
4.1535382270813,0.30340412259101873,8.224153518676758,0.48636138439178467,-0.20701710879802707,-0.4063718914985657
7.998538017272949,3.4495444297790527,11.869024276733398,0.258040338754654,-0.31897601485252386,-0.17492374777793884
5.83870792388916,2.0423958301544194,9.567585945129396,0.19780080020427707,0.11016476154327393,-0.1566133946180344
5.121742725372315,-0.627989649772644,9.544212341308594,0.17538522183895114,0.05343753099441528,-0.1193213015794754
4.831681251525879,-0.30755880475044256,9.50081539154053,0.20650508999824524,0.1379845589399338,-0.09767709672451019
4.92607069015503,-0.5120264291763306,9.48030757904053,0.1583911329507828,0.15794496238231662,-0.08047682046890259
4.558542251586914,-0.6635339856147767,9.295315742492678,0.07483219355344774,0.1835860013961792,-0.05687623098492623
4.042173385620117,-1.0048187971115115,9.551974296569826,0.0495244823396206,0.15915906429290771,-0.03755258023738861
4.503482818603516,-1.4358329772949219,9.640270233154297,0.05972833186388016,0.11961475759744646,-0.019598450511693954
5.141544818878175,-0.8335605263710023,9.662593841552734,0.062193334102630615,0.08407130837440491,-0.001488818437792361
4.976959228515625,-0.33637055754661566,9.690673828125,0.011571180075407028,0.0681319758296013,0.019337810575962067
4.873256206512452,-0.43387866020202637,9.709951400756836,-0.041075091809034354,0.044854313135147095,0.04988831281661987
4.600248336791992,-0.37214726209640503,9.713111877441406,-0.07546047121286394,0.016305331140756607,0.07253479212522508
4.6028103828430185,-0.637060284614563,9.672807693481445,-0.10717445611953735,-0.011424461379647255,0.09041560441255571
4.679456233978272,-0.7551080584526063,9.661171913146974,-0.1282019019126892,-0.03773054853081704,0.10816271603107452
4.676469802856445,-0.741904616355896,9.625516891479492,-0.14940476417541504,-0.05459022149443627,0.11794512718915941
4.585502624511719,-0.8922295570373535,9.419920921325685,-0.16289992630481723,-0.061537303030490875,0.11767236143350603
4.067994117736816,-1.2803001403808594,9.407244682312013,-0.17434895038604736,-0.08667580783367157,0.10625430196523668
4.425392627716065,-1.501927375793457,9.523472785949709,-0.1504059582948685,-0.1323569118976593,0.08104313164949419
4.586435794830323,-1.3391784429550173,9.470352172851562,-0.13739222288131714,-0.14595587551593783,0.05450071021914483
4.260171890258789,-1.280104160308838,9.427371978759766,-0.12950143218040466,-0.176706537604332,0.03795997053384781
4.624043941497804,-1.1203193664550781,9.438697814941406,-0.11822490394115448,-0.20866644382476807,0.027535302564501766
4.8680925369262695,-1.0207687616348269,9.392509460449219,-0.11193513870239258,-0.21570403873920443,0.026723455637693405
4.845110416412354,-1.168293118476868,9.343367576599123,-0.11049356311559679,-0.2056673765182495,0.019185300916433334
4.854121685028077,-1.0831527709960938,9.398475646972656,-0.10729109495878221,-0.197996586561203,0.016365112736821178
4.998157978057862,-0.9546008110046387,9.386879920959474,-0.11546052247285844,-0.18922315537929538,0.028691966086626053
4.937459945678711,-1.011101245880127,9.312632560729982,-0.12661059200763705,-0.1676393449306488,0.04379070922732354
4.697254180908203,-1.2372502088546755,9.211941719055178,-0.13463596999645236,-0.1508067548274994,0.05092506855726242
4.6643128395080575,-1.2638640403747559,9.318726539611818,-0.14020068943500522,-0.1505519151687622,0.0544000156223774
4.659223556518555,-1.3075110912322998,9.261818885803224,-0.14280034601688388,-0.15051440894603732,0.06001811474561691
4.763367176055909,-1.5145747661590576,9.264010429382326,-0.13261161744594577,-0.1499100923538208,0.04476821050047875
4.800162315368652,-1.3528389930725098,9.408222198486328,-0.1175127774477005,-0.1622663587331772,0.028602579608559612
4.980313301086426,-1.24251663684845,9.315178871154787,-0.10850707441568376,-0.17057251930236816,0.021617749705910686
5.069043159484863,-1.2987064123153689,9.24822521209717,-0.10108179599046709,-0.15732626616954806,0.02184382826089859
5.015780925750733,-1.156092643737793,9.300159454345703,-0.10313776880502702,-0.14235708117485046,0.03438327088952065
4.848024845123292,-1.3652276992797852,9.253201484680178,-0.11381348967552185,-0.13913924992084506,0.03944526985287667
4.749505043029785,-1.440200209617615,9.313436508178711,-0.10704220086336137,-0.15201488137245178,0.02546986006200314
4.674590587615968,-1.2422642707824707,9.334519386291506,-0.10738188028335571,-0.1717851758003235,0.015457422472536566
4.78544569015503,-1.2011345624923708,9.22902011871338,-0.12313915044069292,-0.18820524215698242,0.018821766600012783
4.647386074066163,-1.5398255586624148,9.227299690246584,-0.1237505152821541,-0.20259487628936768,0.008583500981330872
4.549164295196534,-1.5530638694763184,9.46744155883789,-0.12313525378704071,-0.24535574018955233,-0.023708410561084747
4.889602184295655,-1.5090692043304443,9.324603080749513,-0.11479772627353668,-0.29540401697158813,-0.05269422754645348
4.94458818435669,-1.2354382276535036,9.326487541198732,-0.12173163890838623,-0.31611564755439764,-0.05969688296318054
5.12962293624878,-1.361859202384949,9.225667953491211,-0.14754018187522888,-0.3343098461627961,-0.051308434456586845
5.072062015533448,-1.4801628589630127,9.12315082550049,-0.14456517994403842,-0.3323713541030884,-0.05691822990775109
5.195411682128906,-1.3374110460281374,9.180838584899904,-0.14714585244655612,-0.34142437577247625,-0.06120629608631134
5.154489994049073,-1.3133023977279665,9.130111694335938,-0.16841202974319458,-0.34358021616935736,-0.05461624264717102
4.862261295318604,-1.547192096710205,8.98018550872803,-0.18476083874702454,-0.34161743521690374,-0.06641022115945817
4.580754756927491,-1.9743949174880984,8.99483394622803,-0.1647109091281891,-0.3565326631069184,-0.11224409937858582
5.082421779632569,-1.6837701797485352,8.988155364990234,-0.15754480659961703,-0.39849850535392767,-0.13540488481521606
5.198392391204835,-1.5328654050827029,8.932374000549318,-0.16341184079647067,-0.40882664918899536,-0.12497548013925554
5.287341594696046,-1.265165686607361,9.111747741699219,-0.19308511912822726,-0.4495542645454407,-0.10382881760597229
4.842730045318604,-1.1483966112136843,9.337236404418945,-0.2464563995599747,-0.5085631608963013,-0.07561092823743822
4.880706787109375,-1.4941450357437136,9.330361366271974,-0.2811870574951172,-0.6181094646453857,-0.06516914814710618
4.662818431854249,-0.8881246447563172,9.477393150329592,-0.31848883628845215,-0.7647853493690492,-0.06254272162914276
4.7969560623168945,-0.7504184842109681,9.553998947143555,-0.3921008408069611,-0.9126923084259033,-0.032998159527778625
4.7303009033203125,-0.6706490516662598,9.49658203125,-0.4742612838745117,-1.0835119485855105,-0.0021851174533367157
4.51099729537964,-0.574228346347809,9.656736373901367,-0.5532585382461548,-1.283123254776001,0.023243656381964687
4.140822887420655,-0.7130042314529419,9.716413497924805,-0.6296460628509521,-1.5299464464187624,0.04671148210763931
4.298755645751953,-0.8737722039222718,9.904040336608888,-0.6968429088592529,-1.8169254064559939,0.04191910102963448
4.186963558197022,-1.1151939630508425,9.642550468444826,-0.7211196422576904,-2.14232611656189,0.027489542961120605
3.9412126541137695,-1.0394676923751833,9.694929122924805,-0.8001843690872192,-2.524710178375244,-0.008184359408915045
3.634639978408814,-1.21779465675354,9.393671035766602,-0.8467695116996766,-3.0249624252319336,-0.044536899775266654
4.6185317039489755,-1.2164206504821777,9.827829360961914,-0.8784989714622499,-3.5662412643432617,-0.04083326458930969
4.431491374969483,-1.1675536632537842,9.850187301635742,-0.8738799095153809,-4.16059160232544,0.011024877429008484
4.887184143066406,-2.988150835037232,9.39405155181885,-1.2273283004760742,-5.090412139892578,-0.3869843184947968
5.43714189529419,-2.6653983592987065,10.062920570373537,-1.733872413635254,-6.055949687957765,-0.4409734010696411
6.515017986297608,-1.0040128231048584,12.060344696044922,-2.2826266288757324,-6.971915721893311,-0.26297172904014593
7.256516933441163,-0.6898624897003174,15.746671676635742,-2.715980768203736,-7.89019775390625,0.11112006753683092
11.11184597015381,0.7411824464797974,16.375814437866214,-2.828140497207642,-8.170016288757326,0.6877187490463257
15.809494972229006,-3.221334934234619,15.79117202758789,-3.2804908752441406,-8.216237068176271,0.7832194566726685
22.264354705810547,-4.512269020080566,16.590429306030277,-4.029872894287109,-7.8786892890930185,0.4070082604885102
25.28624725341797,-3.5469274520874023,20.220172882080078,-4.835052490234375,-7.076796054840089,-0.4843563437461853
24.38985824584961,-4.8929643630981445,15.688455581665039,-5.683096885681152,-6.154388427734375,-0.9609944224357606
23.79558372497559,-3.9954824447631836,13.322111129760742,-6.939316749572754,-5.385484218597413,-0.13166487216949463
19.54977798461914,-1.8159505128860476,13.475033760070803,-8.785375595092773,-4.5704407691955575,0.8175508379936219
16.244577407836918,-3.054872512817383,12.743293762207031,-10.08660888671875,-3.0991218090057377,1.06329345703125
15.79218864440918,-5.27033805847168,5.837332725524902,-9.875731468200685,-2.1129109859466557,-0.8390517234802246
38.68844985961915,-14.901432037353516,19.47571563720703,-6.374959945678711,0.32887807488441473,-3.0207481384277344
15.948170661926271,-11.468823432922365,14.712718963623047,-3.680427789688111,2.8335728645324707,-3.1877965927124023
15.214242935180664,-4.096291065216065,11.33976459503174,-2.277350187301636,3.819303035736084,-3.070667982101441
9.6615686416626,1.870944142341614,6.395815372467042,-1.5726318359375,4.451666831970215,-3.238728761672974
5.179451942443848,4.077460765838624,3.198869228363037,-1.7317004203796387,4.41685438156128,-3.1823477745056152
3.276900291442871,3.943890810012818,2.1671900749206543,-2.242566347122193,4.0679826736450195,-3.0104565620422363
3.628905057907105,1.986847162246704,2.7619612216949467,-2.4330825805664062,3.8238079547882085,-2.775263786315918
3.7380995750427246,-0.8082072734832764,3.4649970531463627,-2.165670871734619,3.8843045234680176,-2.4732334613800053
2.7716834545135502,-1.9362082481384277,4.080715179443359,-1.5539360046386719,4.027732372283936,-2.1841278076171875
1.2918061017990115,-1.315032720565796,4.727481842041016,-0.9074431061744691,4.099635124206543,-1.8725454807281494
0.8763799667358398,0.2995859384536743,5.601908206939698,-0.5856767296791078,4.182247161865234,-1.4725145101547243
1.4712281227111816,1.5514565706253054,6.304889678955078,-0.7022029757499696,4.40650224685669,-0.9490400552749634
1.244422793388367,1.9675180912017822,5.389899253845215,-0.9759840965270996,4.768375873565675,-0.3983765244483948
-0.2952953577041626,1.6819827556610107,3.5524964332580566,-1.1470028162002566,4.965801239013672,0.030392102897167206
-0.44405141472816473,1.8891487121582031,2.2721889019012456,-1.1671569347381592,4.958067417144776,0.38413625955581665
0.1938858926296234,2.251656293869019,1.5362943410873415,-1.10321044921875,4.905797004699707,0.6493718028068544
0.6632951498031616,2.696889877319336,1.3461568355560303,-1.0291785001754763,4.866992950439453,0.8045360445976258
1.3938890695571902,3.669042825698853,1.5513863563537598,-1.0329456329345703,4.878377437591554,0.8823772072792054
1.932084560394287,4.072033405303956,1.2293678522109988,-1.0864728689193728,4.935300827026367,0.850115716457367
2.7246515750885014,4.480194091796875,0.6620231866836548,-1.1117756366729736,4.934082984924316,0.727965533733368
3.597245693206787,5.158730506896973,-0.23190806806087497,-1.13650119304657,4.851922035217285,0.576552450656891
4.909794807434082,5.152191162109375,-0.2923576235771179,-1.1756536960601807,4.718892574310304,0.3668756186962128
6.887726783752441,4.576288700103761,0.5307279229164125,-1.1549534797668457,4.635207653045655,0.13464510440826416
8.722132682800295,4.2015533447265625,1.0632152557373047,-1.0608218908309939,4.613832950592042,-0.09611164033412933
9.777668952941896,3.369143486022949,0.4761515259742737,-0.9375971555709839,4.537579059600831,-0.28732454776763916
10.830193519592287,2.570444107055664,-0.41888320446014404,-0.7761155962944032,4.312286376953125,-0.3824689984321594
11.800210952758789,1.7404417991638184,-1.1203031539916992,-0.6143020987510682,3.9338154792785645,-0.31245157122612005
13.612627029418945,2.40452790260315,-0.5490552783012391,-0.5094814896583558,3.440602540969849,-0.06817761063575745
15.608252525329592,3.164426803588867,-0.07080517709255219,-0.5441792607307435,2.956048011779785,0.22229196131229403
16.735553741455078,3.3701133728027344,0.3888179659843445,-0.5314435362815858,2.4315667152404785,0.4184941053390503
17.330936431884766,3.5943200588226323,0.3331215679645539,-0.41514739394187933,1.8814435005187988,0.46690663695335394
16.77129173278809,3.476688861846924,-0.09305898100137712,-0.18632835149765015,1.3086812496185303,0.35808357596397405
16.288152694702152,2.7533271312713627,-0.4652798473834992,0.15351213514804843,0.6901967525482178,0.14384000003337863
16.1588134765625,2.265735149383545,-0.8541820645332338,0.5809983611106874,0.08364462852478027,-0.03385316580533981
14.548506736755373,2.419553279876709,-1.347722411155701,0.9614867568016053,-0.4922766089439392,-0.11949060112237932
22.084127426147464,6.818637371063233,-2.5092859268188477,0.9233238101005555,-1.2434073686599734,0.05335935950279236
47.55770492553712,9.011610984802248,8.45835590362549,-0.71549391746521,-1.954191327095032,1.7305314540863037
43.13204574584962,10.275367736816406,18.091270446777344,-0.5270298123359681,0.175218403339386,1.0434885025024414
1.7638748884201052,1.7398974895477295,6.651072025299073,-0.27465540170669556,0.26747080683708196,0.19504782557487488
4.597996711730957,-2.2249374389648438,10.19722080230713,-0.2674549520015717,0.6136507391929628,0.07637646794319153
-1.3884853124618532,1.4351917505264284,10.690609931945803,0.06790124624967576,0.07911910116672516,0.020040920004248623
4.291088104248047,-0.23651967942714694,11.225741386413576,0.4169777929782868,-0.055277928709983826,-0.4400014281272888
4.766528606414796,-9.071378707885742,8.756706237792969,0.42510721087455755,0.19999021291732788,-0.684690296649933
5.5442304611206055,-3.015103816986084,9.039425849914553,0.6214261054992676,0.31917089223861694,-0.7305614352226258
7.211541175842285,3.991170167922974,9.084410667419435,0.5721330046653749,0.39533931016921997,-0.6564987301826478
7.129214763641358,3.2383940219879155,9.424403190612795,0.145573228597641,0.5049338936805726,-0.4348289072513581
5.861388683319093,-0.5760103464126587,9.444829940795898,0.06663587689399719,0.4503190219402314,-0.18771284818649292
4.715536117553711,-0.6846625804901123,9.736001014709474,0.13892096281051636,0.3580445647239685,-0.12573064863681796
4.800753593444824,-0.8803314566612245,9.81414794921875,0.12612368166446689,0.2775156497955322,-0.14189888536930087
4.864899158477784,-0.9185819625854492,9.639149665832521,0.10249365121126176,0.20360824465751648,-0.1438138484954834
4.572525501251222,0.5919169187545776,9.976651191711428,0.03616785258054733,0.11340149492025377,-0.073892742395401
4.704627513885499,0.5166966915130615,9.91486930847168,-0.03932809829711914,0.010092277079820633,0.0044308421202003965
4.688637733459473,-0.3685615062713623,9.656770706176758,-0.06493222713470459,-0.05779858306050301,0.03137461841106415
4.777046203613281,-0.895452916622162,9.55718517303467,-0.061004567891359336,-0.10018309950828552,0.014679446816444397
4.9970502853393555,-0.43948858976364136,9.540257453918459,-0.06105619668960571,-0.13310764729976657,0.01200052723288536
4.895754814147949,-0.16626328229904175,9.552468299865724,-0.09330378472805023,-0.15890130400657654,0.035551797598600395
4.681017398834229,-0.20019645988941195,9.705410957336428,-0.12100592255592346,-0.21129350364208224,0.05716746300458908
4.7226014137268075,-0.3695775270462036,9.60866928100586,-0.14263014495372775,-0.2781941294670105,0.061617687344551086
4.872993469238281,-0.7844339013099672,9.457054138183594,-0.16238452494144442,-0.32909154891967773,0.0600850097835064
4.922585964202882,-0.7150236368179321,9.43710708618164,-0.16637299954891208,-0.362542599439621,0.06340260803699493
5.114436149597168,-0.3508028686046601,9.286903381347656,-0.19224047660827637,-0.3835797011852265,0.07839067280292511
5.018315315246582,-0.5979489088058472,9.205850601196289,-0.21951231360435486,-0.38941326737403875,0.08172275871038438
5.026456356048585,-0.7668579816818237,9.244837760925295,-0.21846190094947815,-0.41129729151725775,0.07092243432998657
5.067025184631348,-0.7741719484329224,9.216800689697266,-0.203748881816864,-0.426267147064209,0.054373536258935935
5.103533744812012,-0.6036160588264466,9.194913864135742,-0.19906508922576904,-0.4421260058879853,0.041937388479709625
5.058045387268066,-1.0114483833312988,9.058780670166016,-0.17818196117877963,-0.4482632279396057,0.025508932769298553
5.137264251708984,-0.7109346985816957,9.213611602783203,-0.19171109795570374,-0.45866593718528753,0.009915988892316818
4.9984498023986825,-1.3960418701171875,8.981025695800781,-0.16974881291389465,-0.4605935215950012,-0.030946975573897365
5.254941940307617,-1.2290806770324707,8.819734573364258,-0.13257871568202975,-0.46974384784698486,-0.05393857881426812
5.393270015716554,-0.5697236061096191,8.982275009155273,-0.1141948252916336,-0.48022660613060003,-0.04438681527972222
5.289284229278565,-0.4559478759765625,8.965595245361328,-0.1320018917322159,-0.478721022605896,-0.03289116546511651
5.340163230895996,-0.5538947582244873,9.076667785644531,-0.14834922552108765,-0.4876117706298828,-0.021719688549637798
5.434700012207031,-0.6100298166275024,9.07392692565918,-0.15296131372451782,-0.5017706751823426,-0.010076481848955154
5.437191009521484,-0.6346060037612915,8.9419641494751,-0.15183869004249573,-0.5172439217567445,0.01497719530016184
5.671935081481934,-1.0111534595489502,8.688525199890138,-0.15908658504486084,-0.5032292008399964,0.01702914759516716
5.509625434875488,-1.2142308950424197,8.516396522521974,-0.1150742769241333,-0.4932159185409546,-0.00039830061723478144
5.470274925231934,-0.564165472984314,8.928800582885742,-0.11865312606096269,-0.502683162689209,0.004231401253491641
5.408743858337402,-1.075937032699585,8.520462036132812,-0.1280709207057953,-0.513318955898285,-0.01509255822747946
5.533027648925781,-1.0946937799453738,8.699041366577148,-0.1015225201845169,-0.5256620049476625,-0.04260985553264618
5.784830093383789,-0.7648302912712098,8.583721160888672,-0.08847278356552124,-0.5265395641326904,-0.05454992875456811
5.211781978607179,-1.0969862937927246,8.657933235168459,-0.09873370826244354,-0.549380123615265,-0.08355121314525604
5.1014418601989755,-1.2822548151016238,8.650393486022951,-0.06584909558296204,-0.6280882954597474,-0.14268930256366733
5.574623584747315,-0.8144891262054443,8.785959243774414,-0.043531693518161774,-0.7077065110206605,-0.1644468903541565
5.435298919677734,-0.6716830134391786,9.072745323181154,-0.03922822698950768,-0.7744593024253846,-0.16531071066856384
5.4095659255981445,-1.1217546463012695,8.924026489257812,-0.022252466529607773,-0.8938183188438417,-0.1810052990913391
5.400073051452637,-0.9225615859031678,9.159191131591797,-0.00683859782293439,-1.0461413860321045,-0.21195995807647705
5.476641178131104,-1.1664927005767822,8.885827064514162,-0.04784981161355972,-1.1938725709915163,-0.25326794385910034
6.147303104400636,-1.396406888961792,9.524858474731445,-0.005535569041967392,-1.3305318355560303,-0.24253861606121066
5.505371570587159,-0.4890742897987366,9.393587112426758,0.07162033021450043,-1.487725377082825,-0.21464505791664124
6.15273141860962,-0.37549132108688354,9.603793144226076,0.06710837781429291,-1.6832042932510378,-0.21753089129924777
5.978322505950929,-0.572721302509308,9.259661674499513,0.05335360765457153,-1.9144920110702517,-0.2025187611579895
5.948211669921875,-0.5844337940216064,9.049306869506836,0.06105121225118637,-2.1627817153930664,-0.22950015962123874
5.3348965644836435,-0.41756683588027954,9.031081199645998,0.08115643262863159,-2.440553426742554,-0.24908149242401123
5.145838260650636,-0.8134947419166566,8.746404647827148,0.18985341489315036,-2.841189384460449,-0.28570932149887085
5.599112987518311,-0.7744866609573364,8.710490226745607,0.352295070886612,-3.270327568054199,-0.34434553980827337
5.883352756500245,-0.2854781746864319,8.934452056884766,0.47056376934051514,-3.7525219917297363,-0.3832418024539948
7.119346141815186,-0.1165870875120163,10.14093017578125,0.5645604133605957,-4.242338657379151,-0.2988489270210266
9.232768058776857,-0.49298083782196045,11.432208061218263,0.575522780418396,-4.659412860870362,-0.12754125893116
11.946531295776367,-1.1507868766784668,13.183549880981445,0.35838249325752264,-4.869905471801758,0.09645619243383409
14.743309020996094,-3.1226444244384766,13.001447677612305,0.19971759617328647,-4.887423992156983,0.12454265356063843
23.063762664794922,-2.7048254013061523,14.247432708740234,0.3325433433055878,-4.761756896972656,-0.06337650865316392
27.78166770935059,-3.1947197914123535,8.703480720520021,0.20434571802616122,-4.456928253173828,-0.26360493898391724
31.35842323303223,-6.437983512878418,3.0098867416381836,0.25228023529052734,-4.481518268585206,-0.5194791555404663
32.74233627319337,-8.76114273071289,0.16064423322677612,1.3616839647293093,-4.608455181121827,-0.9980466365814209
34.644859313964844,-7.227600574493409,2.236189365386963,2.5423288345336914,-4.160725116729737,-1.0449535846710205
34.925548553466804,-1.4015049934387207,3.219329833984375,3.0021634101867676,-4.476374149322511,-1.1091309785842898
46.14253234863281,2.3063471317291264,19.22435569763184,1.965998888015747,-3.565932989120484,-1.095524549484253
28.459909439086918,3.426784753799439,16.218370437622074,0.6897696852684022,-1.847621560096741,-0.9115256071090698
22.66961669921875,3.5320394039154057,13.649153709411623,-0.8640210628509521,-1.3383978605270388,-0.8158783912658691
16.800546646118168,1.395538091659546,11.246124267578125,-2.0562634468078613,-1.054119944572449,-0.8410939574241639
12.016762733459474,-1.6757787466049197,9.54455089569092,-2.7979302406311035,-0.9893919825553895,-0.942452073097229
8.938487052917482,-5.787351608276367,9.099194526672365,-2.677905559539795,-0.9057624340057373,-1.1307479143142702
7.040852069854737,-8.210730552673342,9.259161949157717,-1.7363225221633913,-0.7323639392852783,-1.257151246070862
3.7086329460144043,-6.562250137329102,9.756691932678224,-0.5240581035614014,-0.41960385441780096,-1.3629926443099978
0.9946243166923524,-3.5087170600891113,10.320343017578125,0.19023597240447998,-0.016919402405619625,-1.3474225997924805
-1.8449702262878418,-1.6088552474975586,10.035112380981445,0.4278581142425537,0.40888500213623047,-1.2104536294937136
-4.583277225494386,-0.8218845129013062,9.159875869750977,0.35512614250183105,0.7993364930152894,-1.1053686141967773
-5.805783271789551,-0.6355798244476318,8.63660526275635,0.1486363708972931,1.1747766733169558,-0.9885390400886537
-6.588550090789796,-1.3497864007949831,7.926077842712402,0.027308939024806026,1.5356290340423584,-0.8790397047996522
-7.184111118316651,-2.477434873580933,7.399144649505616,0.07427474856376648,1.847280740737915,-0.7838628888130189
-7.462390899658203,-2.8009827136993413,6.551656723022461,0.22703932225704196,2.14776611328125,-0.6549395918846131
-8.739702224731445,-2.158293962478638,5.394702911376953,0.36152100563049316,2.3774349689483647,-0.576749622821808
-8.355295181274414,-0.8985573053359985,5.255445957183839,0.207705095410347,2.581480026245117,-0.4519405663013459
-7.954761981964112,-1.0258473157882693,4.576820850372315,-0.07724454998970032,2.8442678451538086,-0.3037188351154328
-8.479175567626953,-1.992983341217041,3.1552097797393803,-0.19864062964916232,3.056313991546631,-0.1745928376913071
-7.9192609786987305,-2.2005720138549805,2.709861040115357,-0.22517389059066772,3.166164636611939,-0.0073220361955463895
-6.122745990753175,-2.1313221454620366,2.7940778732299805,-0.27270296216011053,3.3672800064086914,0.23835657536983493
-5.251871109008789,-2.002446174621582,2.4276449680328374,-0.32088455557823187,3.6007316112518315,0.5394349098205566
-4.581583023071289,-1.678606152534485,1.9130806922912598,-0.3718998730182648,3.8066534996032715,0.8641399741172792
-3.73315978050232,-0.6108880639076234,1.1189162731170654,-0.4394808113574982,3.954338550567627,1.1740069389343262
-1.8839806318283083,0.7080448865890503,0.9945690631866455,-0.5989766120910645,4.036829471588136,1.4674851894378662
0.5233963131904603,2.105673313140869,1.042692303657532,-0.7955567240715028,4.131489276885987,1.683908462524414
3.3510529994964604,2.948572397232056,0.8817363381385804,-0.91599839925766,4.209094047546387,1.7082632780075075
6.25523567199707,2.6862759590148926,0.6669623255729676,-0.8940939307212831,4.2608747482299805,1.558173656463623
8.293338775634766,2.4729521274566655,-0.06664913892745972,-0.674187421798706,4.240488529205323,1.2960469722747803
10.023680686950685,3.510387182235718,-0.685036301612854,-0.480266273021698,4.0927534103393555,0.9996454119682313
11.905054092407227,4.128808975219727,-0.785035789012909,-0.39686715602874756,3.842586755752564,0.7016743421554565
14.315034866333008,3.6796274185180664,-0.405398428440094,-0.3979484438896179,3.5787689685821538,0.44442847371101385
16.25932121276856,3.273277759552002,-0.937728762626648,-0.4181647300720215,3.300954103469849,0.25335896015167236
17.663217544555668,3.0971431732177734,-2.340703010559082,-0.44806686043739324,2.839959859848023,0.12613141536712646
19.260869979858402,0.9477105140686035,-3.2855348587036133,-0.5129866600036621,2.2553331851959233,0.157068133354187
16.38686752319336,-1.0034713745117188,-7.534829616546632,-0.38131844997406006,1.5568040609359743,0.4357134401798249
13.609522819519045,-2.9323368072509766,-9.728153228759766,-0.2568183243274689,0.35896211862564087,1.0685552358627322
12.32342052459717,-4.804127216339112,-8.605575561523438,-0.02592691592872143,-0.7686836123466493,1.945131540298462
53.3070411682129,20.739225387573246,10.313059806823732,-1.9189690351486208,-1.9112186431884766,2.68529486656189
58.002643585205085,35.31850814819337,34.424278259277344,-0.38637486100196844,3.4179368019104004,0.7807542085647583
0.6402040123939515,-7.176858425140382,-0.33294153213500977,-1.7113965749740603,1.9997129440307617,0.44924560189247137
2.8677048683166504,-5.274972438812257,15.546093940734865,-0.6715441942214966,2.8596549034118652,0.5806806683540345
-2.574747800827027,-4.313414096832276,14.17969608306885,0.42796036601066595,2.0018320083618164,-0.4896977841854096
2.554145336151123,-15.19488525390625,12.096216201782227,0.8543605804443359,1.5675672292709353,-0.6704538464546205
0.03978174924850464,1.0136734247207644,13.579892158508303,0.6533322930336,0.5283647775650024,-0.6536620259284974
3.174704074859619,0.03418399393558502,11.037051200866701,0.4638364315032959,-0.11152765154838562,-0.71079820394516
6.361902236938477,1.9799001216888428,9.63722038269043,0.22982189059257507,-0.24270452558994296,-0.5007086992263794
7.462040424346925,3.100157499313355,8.442994117736818,0.09580888599157335,-0.1490386426448822,-0.1992771327495575
7.751595973968507,1.9003496170043945,7.857708454132081,-0.03976499661803246,0.070842444896698,0.019048625603318218
6.355595111846925,-1.3529763221740723,8.085473060607912,-0.07216575741767883,0.31215614080429077,0.0658838525414467
4.652230739593507,-1.3521158695220947,9.106144905090334,-0.037618275731801994,0.38467878103256226,0.013479054905474188
4.6208510398864755,-0.2858926355838776,9.897201538085938,-0.07572948187589647,0.2991712689399719,0.009979013353586197
4.496604442596436,0.1187271922826767,9.931809425354006,-0.11647090315818787,0.1675778776407242,0.07051092386245728
4.708681583404542,0.08398205041885376,9.769227981567383,-0.1578420847654343,0.05240098014473916,0.11279228329658508
4.899590492248535,-0.37648209929466253,9.582674026489258,-0.14581799507141113,-0.04973633214831353,0.12573125958442688
4.730724811553956,-0.8040319681167603,9.49898910522461,-0.14150570333004,-0.1407727301120758,0.11609257757663727
4.839800357818604,-0.7462187409400941,9.432718276977539,-0.12908393144607544,-0.2150421887636185,0.09606868028640747
5.150263786315918,-0.17563912272453308,9.38821315765381,-0.16636589169502258,-0.26103442907333374,0.10521148890256883
5.267970085144043,0.08298102021217346,9.275515556335451,-0.2162558287382126,-0.3066655993461609,0.12425342947244646
5.200433731079102,-0.39269334077835083,9.280013084411623,-0.2496500313282013,-0.33808097243309027,0.14287744462490085
5.155295372009277,-0.6042758822441102,9.278545379638672,-0.2605379521846772,-0.37671202421188354,0.1275189965963364
5.092376708984375,-1.110784411430359,9.038090705871584,-0.25793024897575384,-0.38389763236045843,0.0895293653011322
5.306706905364991,-1.0649946928024294,8.928124427795412,-0.22890375554561618,-0.3784639239311218,0.07196690887212755
5.472980499267578,-0.8969058990478516,8.970265388488771,-0.21295741200447083,-0.3541890680789948,0.057431157678365714
5.437589168548585,-1.113917350769043,8.930363655090334,-0.17829245328903198,-0.34101888537406927,0.05230654776096344
5.433782100677491,-0.6197986602783203,8.961749076843263,-0.16937699913978577,-0.3241328001022339,0.06039328500628472
5.405419826507569,-0.2523565888404846,9.105717658996584,-0.18901304900646212,-0.3462543487548828,0.08391162008047105
5.224391460418702,-0.26817744970321655,9.238988876342773,-0.22724659740924838,-0.3965514898300171,0.11792837083339691
5.12309217453003,-0.722872257232666,9.136843681335451,-0.2407343238592148,-0.45110201835632324,0.11702374368906023
5.251439094543457,-1.0908132791519167,8.925403594970703,-0.21100810170173645,-0.46414363384246826,0.10248359292745592
5.244510173797608,-1.2924559116363525,8.611042022705078,-0.17249371111392978,-0.46628493070602417,0.0710754618048668
5.467109203338624,-1.1159069538116455,8.856372833251953,-0.15033631026744845,-0.4916840195655823,0.043657705187797546
5.348809719085694,-1.4412205219268799,8.840620994567873,-0.13735371828079224,-0.4915869534015656,-0.0044449856504797935
5.571063995361328,-1.724408030509949,8.426223754882812,-0.09646444767713548,-0.4630435407161713,-0.05347142368555069
6.007720947265625,-1.4875842332839968,8.385736465454102,-0.040807656943798065,-0.3994072377681733,-0.0880136638879776
6.125795364379883,-1.2512264251708984,7.9110121726989755,-0.012760878540575506,-0.3143206834793091,-0.11703632771968842
6.098371982574464,-0.6112668514251709,8.268361091613771,-0.00617048004642129,-0.23769211769104004,-0.11844623833894731
5.8381085395813,-0.5719688534736634,8.62238883972168,-0.020346760749816895,-0.18139442801475525,-0.10067652910947801
5.585633277893066,-0.7948879599571229,8.8129358291626,-0.01709057949483395,-0.1608404815196991,-0.09002282470464708
5.68411922454834,-0.7588493824005127,8.769634246826172,0.00034783178125508135,-0.19023147225379944,-0.07726046442985535
5.341899871826172,-0.8621024489402772,8.865829467773438,0.0026974515058100224,-0.23504365980625155,-0.0932508260011673
5.178727149963379,-0.9125386476516724,9.140151977539062,0.017503734678030014,-0.32418036460876465,-0.10712539404630662
5.000187873840332,-1.6258528232574463,9.09153461456299,0.04139716178178787,-0.4237311780452729,-0.16075468063354492
5.1867876052856445,-1.5215201377868652,8.623082160949709,0.12207064032554626,-0.5473172068595887,-0.23794762790203097
5.754872798919679,-0.33585208654403687,8.982975006103516,0.13127931952476501,-0.644864857196808,-0.23695632815361023
5.393815517425538,-0.23443669080734253,9.335175514221193,0.10023398697376251,-0.7351723909378052,-0.20665551722049716
4.980744361877441,-0.4760449528694153,9.739141464233398,0.10674456506967546,-0.9010519981384277,-0.19061316549777987
5.184401988983155,-0.7321642041206361,9.629339218139648,0.12321876734495164,-1.1224656105041504,-0.19520485401153564
5.608956813812257,-0.54241943359375,9.293807983398438,0.1585699170827866,-1.3294181823730469,-0.2112183123826981
5.637223243713379,-0.5021258592605591,9.469985961914062,0.13482385873794556,-1.5427219867706299,-0.1944568604230881
5.510185241699219,-1.0607272386550906,9.683673858642578,0.13977521657943726,-1.7871726751327517,-0.20911946892738342
5.460114479064941,-0.8475428223609925,9.664974212646484,0.16236193478107455,-2.0315909385681152,-0.276253342628479
5.435593605041504,-0.8014633655548096,9.409813880920412,0.14726768434047702,-2.3336377143859863,-0.30891808867454534
5.165118217468262,-1.2556264400482178,8.897708892822266,0.17404176294803622,-2.649901628494263,-0.4052172303199768
5.152822971343995,-1.1589717864990234,8.324570655822756,0.33126953244209295,-3.058455467224121,-0.5188347697257997
5.215043067932129,-0.40805840492248535,7.959054470062257,0.464460551738739,-3.6019804477691655,-0.6005982756614686
5.830036163330078,-0.18240022659301758,8.958804130554201,0.5460508465766908,-4.20977783203125,-0.5891630053520204
6.159931182861328,-0.3253285884857178,10.283392906188967,0.6408945322036743,-4.856485366821289,-0.49574324488639837
8.682583808898928,-0.5892692208290101,11.020344734191896,0.6688367128372192,-5.446392536163331,-0.38980257511138916
12.024563789367678,-1.3955304622650146,12.226917266845703,0.5215808153152466,-5.837354183197022,-0.38740709424018865
17.165363311767578,-0.8578158020973207,13.366316795349123,0.03782272711396218,-5.8348188400268555,-0.2767853438854218
21.54892158508301,1.711223840713501,13.010732650756836,-0.8510407209396362,-5.640056610107422,-0.10054298490285875
27.712791442871094,3.0548462867736816,11.27274799346924,-2.2297964096069336,-5.379780292510987,0.16973260045051575
31.25676536560059,-3.83383059501648,5.641875267028809,-3.357898712158203,-4.963089466094972,0.019164549186825756
28.156183242797855,-10.86669445037842,-5.577080726623535,-2.1918535232543945,-5.189128398895265,-0.7175066471099854
32.10351181030274,-10.40983295440674,-3.9505505561828613,-0.6230143904685975,-5.272240161895753,-0.9017208814620972
28.082712173461918,-9.755309104919435,-6.058376312255859,0.8742555975914003,-4.951122283935547,-0.8449555039405824
36.53099441528321,-5.3553738594055185,-1.9189159870147705,1.829665780067444,-5.460865020751953,-0.995303750038147
35.712677001953125,-2.603281021118164,9.32843017578125,1.8387476205825808,-4.267397880554199,-1.0006653070449831
25.980667114257812,-0.17955291271209717,7.5519118309021005,1.4464417695999148,-3.144634008407593,-1.0518991947174072
25.663671493530277,0.6378132700920106,10.059681892395021,0.8696078062057495,-2.4226148128509526,-1.1580452919006348
20.65228271484375,2.242982149124146,10.920461654663086,0.05273556709289551,-1.4399572610855105,-1.2502361536026003
15.704491615295412,1.9945577383041384,11.12060070037842,-0.8914693593978882,-0.6425032019615174,-1.3697402477264404
10.883495330810547,0.6299257874488832,10.654982566833498,-1.647583246231079,0.06205637753009796,-1.4739700555801394
6.931878566741944,-1.8686933517456055,9.287205696105959,-2.0651710033416752,0.6288857460021973,-1.5536090135574343
3.075744152069092,-5.911327838897706,7.6229047775268555,-1.7147607803344727,0.9753003716468812,-1.6069351434707644
-1.0978721380233767,-7.761398792266847,5.9145522117614755,-0.6644873023033143,1.1253056526184082,-1.7181020975112917
-2.7247304916381836,-6.231219768524171,5.709129810333253,0.4084714353084565,1.1395376920700075,-1.8101184368133545
-2.3357856273651127,-3.712935447692871,6.692487239837647,0.951160192489624,1.2273391485214236,-1.7066707611083984
-2.1920342445373535,-1.9708219766616824,7.585670948028565,0.9799460172653198,1.4692431688308718,-1.4005116224288943
-2.6739013195037846,-1.9810575246810915,7.741636753082276,0.7630894184112549,1.8569523096084597,-0.9943090677261353
-3.750248193740845,-3.2973020076751713,7.340095520019531,0.6493655443191528,2.2279586791992188,-0.6130071282386781
-4.049026012420655,-3.8291120529174805,6.867518901824952,0.6651477813720703,2.5667140483856206,-0.2435731291770935
-4.74678659439087,-3.7911458015441895,5.401082992553711,0.8080793619155884,2.9032270908355717,0.1210911348462105
-6.587432384490968,-2.8188965320587163,3.5271542072296147,0.9165301322937012,3.0875952243804936,0.387897789478302
-7.031766891479492,-1.138075828552246,2.670469999313355,0.7573610544204712,3.1192259788513184,0.6459230780601503
-6.647156715393066,-0.5342479944229126,2.0172367095947266,0.3987224996089936,3.1914920806884766,0.953226149082184
-6.802971839904785,-1.072780251502991,1.2286875247955322,0.15450225770473483,3.261476516723633,1.1961147785186768
-6.420258522033691,-1.563080668449402,0.920315444469452,0.08080672472715379,3.3029732704162598,1.3797694444656374
-4.984794139862061,-1.3067584037780762,1.3452445268630984,0.07918909937143327,3.388591051101685,1.5424582958221436
-4.348157405853272,-0.4080788493156433,1.3558875322341921,0.07339688390493394,3.5369606018066406,1.667208790779114
-3.223811626434326,1.4930223226547243,1.9964966773986816,-0.13207344710826877,3.6914706230163574,1.7863314151763916
-1.0112152099609375,2.4996628761291504,2.5847721099853516,-0.5017865300178529,3.9424428939819336,1.8957842588424685
-0.035781607031822205,2.2066359519958496,2.00629734992981,-0.6968241930007935,4.201004981994629,1.896053194999695
0.9522891640663148,2.555813789367676,1.377031207084656,-0.6914287209510804,4.322967529296875,1.778109669685364
2.6920838356018066,3.6189224720001225,0.9324921965599061,-0.6622604727745057,4.364362716674805,1.5660464763641357
4.507157325744629,3.946866989135742,0.4599171280860901,-0.6176447272300721,4.357203483581543,1.2636755704879763
6.593986511230469,3.1558725833892827,0.3233795762062073,-0.5138517618179321,4.286738395690918,0.9165623784065248
9.362128257751467,3.4013848304748535,0.5170996189117432,-0.38392934203147894,4.1894330978393555,0.6596879363059999
12.672983169555664,3.5506775379180913,0.6611669659614564,-0.3527496159076691,4.072223663330078,0.5139950513839722
14.904338836669922,2.5651648044586186,0.056615591049194336,-0.2784982025623322,3.910614490509033,0.46763929724693304
15.972740173339844,1.9882726669311523,-1.1388128995895388,-0.09141766279935838,3.6199200153350835,0.49533557891845703
16.245620727539062,2.1007177829742436,-1.7146877050399782,0.08868496865034105,3.139677047729492,0.5098579525947572
16.427118301391605,2.079524517059326,-1.4065632820129395,0.17534209787845614,2.616208076477051,0.5972434282302856
15.867822647094727,2.6675860881805424,-1.2821620702743532,0.22452294826507568,2.154337644577027,0.7176864147186279
12.590532302856445,2.743177890777588,-4.055510520935059,0.24953871965408325,1.6052937507629395,0.7860940098762513
10.335281372070312,1.8437256813049316,-5.11079216003418,0.319358378648758,0.8124833106994629,0.8503622412681581
33.59808731079102,12.719736099243164,-3.2046816349029545,-0.45063927769660955,-0.28601181507110596,0.933349609375
79.65213012695312,12.477787017822266,40.57456588745118,-1.9920655488967898,2.309995174407959,2.1151363849639897
-0.9259835481643677,1.879920840263367,-9.5747766494751,-0.48087936639785767,2.8027572631835938,0.9056078791618348
9.514217376708984,-3.211878061294556,16.861892700195312,-1.5866984128952029,2.754502296447754,1.5166362524032595
-9.453402519226076,0.7105415463447572,17.569688796997074,-0.8677316308021547,2.290709972381592,0.8617119789123535
-0.5680173635482788,-12.548281669616701,10.709080696105959,0.10378310084342957,1.5475379228591921,-0.23458531498908997
0.7261515259742738,-13.296089172363281,11.79871940612793,0.6969403624534608,0.6659767031669618,-0.5797499418258667
-0.12767414748668673,0.46896326541900635,13.559698104858398,0.7302483916282655,-0.06441354751586914,-0.6309304833412172
6.124623775482179,0.8487396240234375,10.33619499206543,0.4347739815711975,-0.2637846171855927,-0.84609192609787
8.665067672729492,4.1145219802856445,8.62146854400635,0.2552640438079834,-0.27665564417839056,-0.4966423511505127
8.324378013610842,3.584036350250244,7.829521656036378,-0.06931734830141069,-0.1097143664956093,-0.05955851823091507
7.442061424255371,-0.4322158694267273,7.508059978485108,-0.19529354572296143,0.2043118327856064,0.15984869003295898
5.37784481048584,-3.1333153247833256,8.20610237121582,-0.12646292150020602,0.3915342688560486,0.15595325827598572
4.274950981140137,-2.662090063095093,9.21195697784424,-0.06982722133398057,0.42855411767959595,0.03262345120310784
4.385450839996339,-0.41760241985321045,10.009559631347656,-0.0672227144241333,0.3097532391548157,0.004187702666968108
4.673270225524902,0.7137808203697206,10.022346496582031,-0.17158193886280063,0.1594359576702118,0.10218992084264757
4.861995697021484,-0.5227517485618592,9.536069869995117,-0.20942802727222445,0.05233421176671982,0.1659986972808838
4.841714382171632,-1.601154088973999,9.458047866821289,-0.1717747151851654,-0.04146020486950875,0.13500133156776428
4.677073001861573,-1.8067615032196045,9.36732292175293,-0.1313193589448929,-0.11115432530641557,0.06682378053665161
4.973191738128663,-0.9740290641784668,9.310706138610842,-0.120961993932724,-0.1540452688932419,0.029850661754608154
5.386094093322754,-0.6794341802597046,9.198598861694336,-0.1507341116666794,-0.16026675701141357,0.0533221960067749
5.337045669555664,-0.6194278597831727,9.223708152770998,-0.19112180173397067,-0.18097910284996033,0.09794638305902482
5.077387809753418,-1.228295087814331,9.274761199951172,-0.19404523074626925,-0.20145149528980258,0.10684840381145477
5.418741703033448,-1.2653948068618777,9.062568664550781,-0.16783045232295993,-0.19323614239692688,0.11126308888196947
5.402749061584473,-1.343604326248169,8.988567352294922,-0.15898913145065308,-0.1631375998258591,0.10963017493486406
5.288076877593995,-1.3304569721221924,9.06795406341553,-0.14940539002418518,-0.14117856323719027,0.10714815557003021
5.235475540161133,-1.0830481052398682,9.191890716552734,-0.1565064787864685,-0.14077845215797424,0.1114204451441765
5.103717327117921,-0.9554038643836976,9.312797546386719,-0.17395810782909396,-0.17380237579345703,0.11575157195329668
5.0865540504455575,-0.9570437073707582,9.34516716003418,-0.20472463965415955,-0.2346957176923752,0.12372203916311265
5.036962032318116,-1.0476506948471072,9.3714599609375,-0.24886023998260498,-0.30960157513618475,0.13208699226379395
5.1269593238830575,-0.9883933067321777,9.339099884033203,-0.27882033586502075,-0.36795103549957275,0.1423396319150925
5.072876930236816,-0.9756811857223511,9.215359687805178,-0.2916802167892456,-0.416850358247757,0.15188553929328918
5.069234848022461,-1.0282800197601318,9.167728424072266,-0.30723646283149725,-0.4597633481025696,0.15188851952552795
5.156605243682862,-1.2003402709960938,9.130910873413086,-0.3193119168281555,-0.48970106244087225,0.14632317423820496
5.275550842285156,-2.0237932205200195,8.771215438842773,-0.2765751779079438,-0.47633823752403265,0.10691158473491669
5.438323020935059,-1.7985290288925173,8.673608779907227,-0.21445782482624057,-0.45274198055267334,0.0993807688355446
5.6156816482543945,-1.34810209274292,8.526714324951172,-0.19080710411071777,-0.3985880315303803,0.09482794255018236
5.788325309753418,-1.648560166358948,8.42774772644043,-0.17953090369701388,-0.32880812883377075,0.09145648032426835
6.014960289001465,-1.778738617897034,8.342290878295898,-0.15339937806129456,-0.24180683493614197,0.0894981697201729
5.9448513984680185,-2.0296473503112793,8.192564964294435,-0.1181573048233986,-0.14165639877319336,0.07620134204626085
5.729516506195069,-2.2109169960021973,8.113626480102539,-0.0754140391945839,-0.042902663350105286,0.051257409155368805
5.6572160720825195,-2.2817397117614746,8.018513679504396,-0.029331462457776073,0.0538395419716835,0.011449352838099005
5.395699977874757,-2.6093590259552006,8.044905662536623,0.04159758239984512,0.1362290382385254,-0.038156177848577506
5.178117752075195,-2.418826818466187,8.38247585296631,0.1038101688027382,0.17357566952705383,-0.10278037935495378
5.021910190582276,-2.4353477954864506,8.53207015991211,0.17038249969482422,0.17749474942684176,-0.1677818447351456
4.5131330490112305,-2.2126641273498535,8.901637077331545,0.22417746484279635,0.13651788234710693,-0.2588180601596833
5.00671148300171,-1.4900779724121094,9.083788871765138,0.26778334379196167,0.04500778019428253,-0.3246568143367768
4.967679023742676,-0.6725718975067139,9.101366996765138,0.25171613693237305,-0.019191926345229152,-0.3174441456794739
5.1014862060546875,-0.3451613187789917,9.41544818878174,0.19281561672687533,-0.11631451547145844,-0.2856351137161255
5.1195573806762695,-0.029413655400276184,9.669239997863771,0.09833693504333496,-0.21384952962398532,-0.22765818238258362
4.8661651611328125,-0.814997971057892,9.36909580230713,0.028365764766931534,-0.3347594141960144,-0.2053996175527573
4.97116756439209,-1.337810754776001,9.33735752105713,0.009311807341873648,-0.48232781887054443,-0.22350455820560458
4.799167633056641,-1.1212686300277712,9.571014404296875,-0.015122762881219389,-0.6629139184951782,-0.2381204068660736
4.609924793243409,-0.8434149622917176,9.95644283294678,-0.0952923595905304,-0.9005392193794252,-0.240898996591568
4.290742874145508,-1.050495743751526,9.962649345397951,-0.1886302083730698,-1.1787127256393435,-0.27856314182281494
4.152618408203125,-2.2847886085510254,10.146420478820803,-0.2489297837018967,-1.5136418342590332,-0.3817866146564484
3.2988307476043706,-2.030800104141236,9.791851043701172,0.005155646242201328,-1.9031535387039187,-0.4019072353839875
5.066303253173828,-0.5312806963920594,10.313534736633303,0.09920699149370195,-2.303926944732666,-0.4152149856090546
5.088979244232179,-1.0304899215698242,9.852827072143555,0.03597516566514969,-2.567276954650879,-0.4229684174060822
5.434525966644288,-1.2832317352294922,9.586951255798342,0.08427887409925462,-2.8992958068847656,-0.5030912756919862
4.911004066467285,-1.66986620426178,9.12331771850586,0.24853710830211642,-3.220918655395508,-0.6124609708786011
5.015567779541016,-1.4084004163742068,8.868733406066896,0.387131929397583,-3.718373537063599,-0.681708574295044
5.375538349151612,-1.2066754102706911,9.111868858337404,0.5342556834220887,-4.294524669647218,-0.663301944732666
6.444936752319336,-1.284571647644043,9.916996955871584,0.6409700512886048,-4.826297760009766,-0.6178233027458192
8.561077117919922,-2.256561756134033,10.672233581542969,0.7060353755950928,-5.143449306488038,-0.5650833249092103
10.443302154541016,-2.4881553649902344,11.354519844055178,0.709064245223999,-5.3418288230896005,-0.5674252510070801
13.879841804504396,-2.2520833015441895,12.659068107604982,0.5922735333442689,-5.415726184844972,-0.5265284776687622
18.633058547973636,-2.3969724178314213,14.348237037658693,0.501124382019043,-5.273746013641358,-0.6066783666610718
24.670694351196293,-1.9052900075912478,13.411334037780763,0.3547539412975312,-4.819575309753418,-0.7129954099655151
27.669706344604496,-3.9156806468963627,9.968803405761719,0.06733791530132294,-4.3809552192688,-0.7879875898361206
27.130508422851562,-5.624176502227784,3.972750186920166,0.3666767477989197,-4.187906265258789,-0.9747609496116639
30.72451210021973,-6.936555862426758,1.973572015762329,1.2611110210418701,-4.0528273582458505,-1.0937581062316895
27.054388046264652,-5.089528560638429,-1.8830037117004395,2.4177045822143555,-3.9023277759552006,-1.269829869270325
33.90037536621094,0.3122855722904206,0.8436374664306641,2.505553483963013,-4.537265777587891,-1.2747837305068972
36.783416748046875,-0.27421510219573975,12.137347221374513,2.3461706638336186,-3.417284727096558,-1.2340779304504395
25.466119766235355,3.5640003681182866,8.535752296447756,1.4816142320632937,-2.6120100021362305,-0.8861624598503114
23.783861160278324,3.5293796062469487,9.200185775756836,0.44334256649017334,-2.2337696552276616,-0.8172178864479066
18.950635910034183,3.2436382770538335,8.336663246154787,-0.5771225690841675,-1.8989471197128298,-0.7514259815216064
15.568194389343263,1.7769330739974978,8.142724990844727,-1.404198169708252,-1.7059121131896973,-0.8033204674720765
13.364830970764162,0.08794943988323212,8.65594482421875,-1.881948471069336,-1.4740830659866335,-0.9067666530609131
11.401887893676758,-1.8664829730987549,10.050836563110352,-2.1211550235748295,-1.0277907848358154,-0.9529879093170166
8.81454849243164,-6.08515501022339,10.289030075073242,-1.7351608276367188,-0.4393050372600556,-0.8941062688827515
5.441514015197754,-7.946718692779542,9.71855354309082,-0.5742799043655396,0.1380508542060852,-0.9348873496055604
2.863575696945191,-5.196975231170655,10.254499435424805,0.4966040253639221,0.7237437367439271,-0.9595297574996948
0.9412192106246948,-1.9829980134963991,10.591920852661133,0.9321643710136415,1.332857608795166,-0.8044242858886719
-1.9683988094329834,-0.4907836019992829,9.488859176635742,0.9117655158042909,1.915323257446289,-0.6023661494255067
-4.739416122436523,-0.4094707667827607,7.657912731170655,0.7179946899414062,2.381368637084961,-0.45239600539207464
-7.578402996063233,-0.6705485582351685,5.491467475891113,0.5954591631889344,2.6024837493896484,-0.3992388546466828
-9.54130744934082,-1.1617265939712527,3.647681713104248,0.541800081729889,2.5645265579223633,-0.3636873960494995
-9.903194427490234,-1.3740358352661133,2.925283432006836,0.4838551878929138,2.4432065486907963,-0.27565717697143555
-9.574534416198732,-1.4636297225952148,2.964032888412476,0.36975765228271484,2.3762378692626953,-0.1366965025663376
-8.675045967102053,-1.4175615310668945,3.439162969589234,0.1566542088985443,2.4577639102935795,0.04686448723077774
-8.51299571990967,-1.7125498056411745,3.0349586009979252,-0.02735566720366478,2.6331741809844975,0.21097858250141147
-8.43191432952881,-1.8344247341156006,2.5506808757781987,-0.16041553020477295,2.802559137344361,0.36060911417007446
-7.96469783782959,-1.5243729352951052,1.9644551277160645,-0.2799299359321594,2.9714088439941406,0.5358009934425355
-6.86793088912964,-1.1423271894454958,1.8647695779800417,-0.40350592136383057,3.175240278244019,0.7076661586761475
-5.09157657623291,-0.6996136903762817,2.0878167152404785,-0.5326720476150513,3.4578759670257573,0.8867997527122499
-4.347502231597901,-0.21434643864631653,1.1719852685928347,-0.5820118784904481,3.765385627746582,1.004552245140076
-4.1431379318237305,0.8189099431037904,-0.17114150524139404,-0.612830936908722,3.946883916854859,1.055729627609253
-2.1209743022918706,2.1826436519622807,-0.018536970019340515,-0.7757427096366883,4.040806770324707,1.0829821825027468
0.707854151725769,2.900187253952027,1.073555111885071,-0.9914349317550659,4.273231029510499,1.0545397996902468
3.5247483253479004,3.554743766784668,1.077929973602295,-1.1548360586166384,4.593149185180664,0.9134600758552552
6.1543240547180185,2.0073149204254155,-0.26435807347297674,-1.1483575105667116,4.805331707000733,0.6280957460403442
8.333933830261232,1.0982277393341064,-1.4566714763641357,-0.830546498298645,4.695300579071046,0.34642791748046875
11.325200080871584,2.43735933303833,-1.152874827384949,-0.6343735456466675,4.424098491668702,0.1582826226949692
15.347729682922365,2.0583410263061523,0.013852529227733612,-0.6805310249328613,4.168391704559327,0.054761894047260284
18.185989379882812,0.284728616476059,0.5784385800361634,-0.5752295255661011,3.920811176300049,0.041883710771799094
17.91109657287598,-0.8399366140365601,-0.4563591480255127,-0.284298986196518,3.5528855323791504,0.1343733221292496
16.174686431884766,-0.8124232888221742,-1.4496979713439941,-0.042490694671869285,3.035038471221924,0.3585975766181946
13.175387382507326,-0.07138302177190782,-3.3573215007781987,0.05401169136166573,2.4179935455322266,0.620480239391327
7.645118236541749,0.10702284425497056,-7.655907154083253,-0.024642461910843853,1.5403643846511843,0.899097204208374
28.912418365478516,10.11024570465088,-11.065199851989748,-1.1041853427886963,-0.2810668051242829,1.4103295803070068
103.74726867675781,32.77543640136719,48.93727111816406,-2.178856372833252,1.580965876579285,2.137313604354859
-2.3904380798339844,8.038536071777344,-14.804108619689943,-0.869302809238434,3.132370948791504,0.2300112694501877
11.728645324707031,-4.696192741394043,19.85888481140137,-2.4700098037719727,3.2378058433532715,1.7982670068740847
-13.360907554626467,5.947442054748535,15.85600471496582,-0.9151549935340882,2.40423583984375,0.8102201819419862
-2.3387765884399414,-18.057331085205078,13.870918273925781,-0.0874430611729622,1.143669843673706,0.1011061817407608
-2.942334890365601,-12.636946678161623,12.378824234008789,0.2147057801485062,-0.08200782537460327,-0.2557994425296784
2.8786323070526127,-1.563387393951416,11.736535072326662,0.5367305874824525,-0.7137622237205506,-0.8965940475463867
8.687339782714844,0.7266995906829834,7.853853702545167,0.4066003859043122,-0.5337873697280884,-0.9297149777412416
9.151679039001467,6.319415092468262,7.892247676849366,0.11885956674814226,-0.2712787985801697,-0.36147308349609375
7.5951738357543945,3.2838058471679688,8.692876815795898,-0.2529221177101135,0.08044887334108354,0.11806289851665497
5.784087657928468,-2.639074563980103,8.041358947753906,-0.3841433525085449,0.2785998582839966,0.18082343041896823
4.127673149108887,-4.234087944030762,8.6962890625,-0.03346456959843636,0.15310433506965637,0.06841992586851121
4.302447795867921,-1.717097878456116,9.776000022888185,0.06158173084259033,0.054971050471067436,-0.08569809049367906
5.173433780670167,0.9206162691116333,9.905826568603516,0.008585088886320593,-0.0483204647898674,-0.04120829328894616
5.425256729125977,0.532718300819397,9.449732780456545,-0.12514071166515353,-0.05793343111872674,0.0855620950460434
4.962217807769776,-1.4690479040145876,9.398707389831545,-0.15938310325145724,-0.07576963305473328,0.11882116645574571
4.688099384307862,-2.1720385551452637,9.39027500152588,-0.09223674237728119,-0.14529587328433993,0.03293531015515328
4.9946560859680185,-1.5847796201705935,9.25285530090332,-0.003907448146492244,-0.20198267698287964,-0.048768717795610435
5.344942569732667,-0.6137211322784424,9.276846885681154,0.0019179404480382802,-0.22372965514659884,-0.06384791433811188
5.604201316833496,-0.5162466168403627,9.04172992706299,-0.03977355360984802,-0.19934652745723727,-0.02867651730775833
5.52686357498169,-0.5513930320739746,9.085748672485352,-0.06529646366834642,-0.17358529567718506,0.020880725234746933
5.278214454650879,-0.69317626953125,9.177416801452638,-0.1033722311258316,-0.1815239638090134,0.05088088661432266
5.095330238342285,-1.1223372220993044,9.183877944946289,-0.11465332657098772,-0.2104165703058243,0.044614292681217194
5.257122993469238,-1.2652198076248171,9.148735046386719,-0.09643442928791046,-0.22027929127216342,0.03385378420352936
5.355107307434082,-0.8370073437690736,9.114938735961914,-0.08918806910514832,-0.21804799139499667,0.03775111213326455
5.503273963928223,-0.7332101464271547,8.948921203613281,-0.09861575812101366,-0.1991180181503296,0.0505085401237011
5.603354930877686,-0.6460848450660707,8.887252807617188,-0.11396922171115875,-0.17004680633544922,0.07304906100034715
5.338976860046387,-0.7354931831359863,8.970207214355469,-0.1358861476182938,-0.1551077961921692,0.08924176543951036
5.2352566719055185,-0.9155827164649964,9.142318725585938,-0.14221525192260742,-0.14979960024356845,0.10020930320024492
5.372858047485352,-1.0178046226501465,8.96622085571289,-0.12116902321577074,-0.14168205857276917,0.09204184263944627
5.570077419281007,-0.72917640209198,8.828901290893555,-0.11922340840101243,-0.11884524673223497,0.0957493782043457
5.610267162322999,-0.5952602624893188,8.710222244262695,-0.13654603064060214,-0.0788276344537735,0.10952141135931016
5.373384475708008,-1.2495368719100954,8.689197540283203,-0.13338436186313632,-0.027414165437221527,0.10727235674858093
5.092589855194093,-1.7501193284988406,8.728425979614258,-0.09841597080230713,0.011156409047544004,0.07250869274139404
5.242464065551758,-1.9211666584014893,8.611487388610842,-0.04677139222621918,0.042107537388801575,0.029684619978070263
5.421960353851319,-1.4768617153167725,8.660158157348633,-0.014899945817887785,0.07772260904312134,0.0017583869630470874
5.393691062927246,-1.287262797355652,8.796738624572756,0.013791543431580068,0.12164819240570068,-0.01058766059577465
5.472332000732422,-0.863343358039856,8.77939224243164,0.02291001006960869,0.14652748405933383,-0.0024471464566886425
5.22107744216919,-1.2663960456848145,8.785238265991211,0.026852047070860866,0.17752756178379062,-0.009542327374219894
5.047813892364503,-1.2015819549560547,8.929388999938967,0.03712012618780136,0.1735392361879349,-0.035277143120765686
4.588483333587647,-0.9909281730651855,9.25604248046875,0.024442587047815323,0.13717861473560336,-0.04854699596762658
4.29832649230957,-1.5150603055953982,9.445625305175781,0.05050687119364739,0.0653485655784607,-0.09780628234148027
4.8754472732543945,-1.1998537778854372,9.22303104400635,0.07576543092727661,-0.03967198729515076,-0.14778174459934237
4.616135120391847,-0.024074837565422058,9.991046905517578,0.04417521506547928,-0.15690748393535617,-0.1434059739112854
4.8947110176086435,-0.3209744095802307,9.552791595458984,-0.015307263471186163,-0.29393255710601807,-0.09115913510322571
4.562836647033691,-0.5736004114151001,9.59353256225586,-0.0432712659239769,-0.4258358776569367,-0.07295453548431396
4.347778797149659,-0.4895161986351013,9.781641006469727,-0.07504068315029144,-0.5914797782897949,-0.08331198245286943
4.6039776802063,-0.5473969578742982,9.791054725646974,-0.12130001932382585,-0.8033374547958374,-0.08103782683610918
4.641654491424561,-0.7574035525321962,9.808606147766115,-0.1863921880722046,-1.0529037714004519,-0.0611700750887394
3.885739326477051,-1.3609423637390137,9.918280601501467,-0.214878112077713,-1.3384627103805544,-0.10597006976604462
4.506072521209718,-1.0497368574142458,9.67086410522461,-0.21012571454048157,-1.5920774936676025,-0.1759891360998154
4.924952507019043,-1.0898056030273438,10.241021156311037,-0.24493208527565002,-1.8586004972457888,-0.2150295376777649
4.1754913330078125,-2.3768563270568848,9.676894187927248,-0.08173840492963792,-2.0818018913269043,-0.2423315942287445
4.895879745483398,-1.7080023288726807,9.75356674194336,0.029256492853164673,-2.373327493667603,-0.2941122055053711
5.117204666137695,-1.3735815286636355,9.541366577148438,0.11956892907619476,-2.6281538009643555,-0.3799100816249848
5.973707675933839,-1.370289444923401,9.449036598205568,0.08771982789039612,-2.8953793048858647,-0.42174750566482544
5.104674816131593,-1.4912118911743164,8.810400009155273,0.15779305994510653,-3.117833137512207,-0.493571937084198
5.116994857788086,-0.879390060901642,8.657891273498537,0.37050327658653265,-3.56121826171875,-0.6187811493873597
5.827325344085694,-0.2656509280204773,9.353772163391115,0.5402068495750428,-4.069273471832276,-0.605487585067749
6.468697547912598,-1.1111253499984743,10.031188011169435,0.6887778043746948,-4.572900295257569,-0.5733364820480347
9.036535263061523,-1.8745946884155273,11.008563041687013,0.7323338985443115,-4.873578548431397,-0.505216419696808
11.797974586486818,-1.8671863079071045,12.344244003295898,0.6330976486206055,-4.974858760833741,-0.39704155921936035
15.751601219177248,-2.2283794879913335,13.229782104492188,0.3496216237545014,-4.891062259674073,-0.33092451095581055
20.32199287414551,-2.501152992248535,13.71662998199463,0.2709774971008301,-4.635716915130616,-0.40510743856430054
26.506090164184574,0.12071189284324646,11.680438995361328,-0.16129316389560702,-4.2316131591796875,-0.3899017572402954
27.031270980834964,-4.384412288665772,5.154062271118164,-0.32335826754570013,-4.010697364807129,-0.6165696978569032
28.1400318145752,-6.150175571441651,2.388490438461304,0.39617004990577703,-4.0872540473938,-1.0087733268737793
28.25429916381836,-4.9319167137146005,2.2814598083496094,1.2583558559417725,-4.083099842071534,-1.175069808959961
28.869535446166996,-2.2850949764251713,0.8967325091362001,1.7343268394470215,-4.473121166229249,-1.2894140481948855
41.18400573730469,-1.9961998462677002,15.010526657104492,1.58211088180542,-3.7498404979705815,-1.3458261489868164
26.698402404785156,0.23165753483772278,12.226383209228516,1.2306780815124512,-2.408413887023926,-1.1792439222335818
23.99564933776856,1.4541232585906982,12.022976875305178,0.4024713635444641,-1.8982840776443484,-1.0897026062011719
19.1356372833252,1.9347106218338015,10.590573310852053,-0.5101001858711244,-1.450897455215454,-1.0443875789642334
14.763080596923828,1.4597283601760866,9.27363395690918,-1.3691862821578982,-1.1992170810699463,-1.0574902296066286
11.219723701477053,-0.24086332321166992,8.374869346618654,-1.9409394264221191,-1.0191395282745361,-1.1625808477401736
8.563063621520998,-3.2508912086486816,7.993196964263917,-2.013890266418457,-0.871624529361725,-1.3222825527191162
6.741985797882081,-5.925570487976074,8.108487129211428,-1.4314972162246706,-0.7129518985748291,-1.4662158489227295
5.169066429138184,-5.561022758483887,8.722057342529297,-0.5518510341644287,-0.4417841732501984,-1.5478687286376953
3.4547648429870605,-3.799173355102539,9.203880310058594,0.12131812423467637,-0.040152687579393394,-1.574535608291626
1.58785355091095,-2.472825527191162,9.40618896484375,0.35403138399124146,0.40248325467109686,-1.491363525390625
-0.3711040318012238,-1.6206635236740115,8.655134201049805,0.31756451725959783,0.8239940404891968,-1.3211948871612549
-2.3757627010345463,-1.4532568454742432,7.61802864074707,0.17606890201568604,1.1522907018661501,-1.146822214126587
-2.942444324493408,-1.8283569812774658,7.726134777069093,-0.028895344585180283,1.4242610931396484,-0.9533663392066957
-2.3664672374725346,-3.09546446800232,7.831151485443116,-0.16092808544635775,1.796098232269287,-0.6920911669731141
-3.555115938186646,-4.471923351287843,6.484334945678711,-0.019901927560567856,2.2192456722259526,-0.41440692543983465
-5.448232173919679,-4.416689872741699,4.725542545318604,0.2682784497737885,2.407925605773926,-0.16460199654102328
-6.050108909606934,-3.1733202934265137,3.5876142978668217,0.37886226177215576,2.4223766326904297,0.1303678005933762
-6.643455505371094,-2.280423641204834,2.4754815101623535,0.2610640525817871,2.4011237621307377,0.4451759457588196
-6.4538540840148935,-1.6904410123825075,2.526572465896607,-0.007658570073544979,2.3856627941131596,0.7529317736625672
-5.177096843719483,-1.584256887435913,3.2781589031219487,-0.31814098358154297,2.5123121738433842,1.0713694095611572
-4.548187732696534,-2.011497259140015,3.634822368621826,-0.45089748501777654,2.7816979885101323,1.303544044494629
-3.9033560752868652,-1.5764740705490115,3.6206266880035405,-0.481284111738205,3.083585262298584,1.5178302526474001
-3.789685487747193,-0.7054942250251771,2.708000659942627,-0.4714334905147553,3.358377456665039,1.6752429008483887
-3.7479944229125977,0.5948366522789003,1.6694226264953613,-0.5222764015197754,3.5170733928680424,1.7866222858428955
-3.126522302627564,2.1390149593353276,1.2152122259140017,-0.6830196380615234,3.606095790863037,1.8582259416580202
-1.694044589996338,3.0305566787719727,1.2441349029541016,-0.882013499736786,3.660372257232666,1.8308075666427615
0.509419620037079,3.1691861152648926,1.7188960313797,-0.984220027923584,3.732868909835816,1.677004933357239
2.093246221542359,2.879451274871826,1.6362812519073486,-0.8992958664894105,3.8500819206237793,1.3909045457839968
3.424022674560547,2.9209005832672124,1.292586326599121,-0.6987956762313843,3.898707866668701,1.0365668535232546
5.110245704650879,3.6815552711486816,1.4040896892547607,-0.5643777251243592,3.8706626892089844,0.7315246462821962
7.942904472351074,4.045642852783203,1.968317985534668,-0.6240847110748291,3.831605195999146,0.4937881529331208
10.651256561279297,2.636674404144287,1.8699098825454714,-0.6344192624092103,3.7989978790283203,0.29236957430839544
12.27326774597168,1.557823896408081,0.9735065698623657,-0.45920073986053467,3.6716432571411133,0.1885979622602463
13.102469444274904,1.8567373752593994,-0.34686076641082764,-0.30389967560768133,3.3695716857910156,0.19836364686489108
13.686352729797365,1.455320119857788,-1.6426995992660525,-0.22316861152648926,2.9031817913055424,0.2948584854602814
14.007094383239748,0.7367776036262513,-2.518657684326172,-0.05818856507539749,2.308938264846802,0.44745635986328125
13.9495325088501,1.585390329360962,-3.24884033203125,0.11983849853277208,1.6553894281387331,0.6351685523986816
12.695577621459961,2.069054126739502,-5.358498096466065,0.21036496758460999,0.9805656075477601,0.8021506071090698
8.109955787658693,1.659933090209961,-9.321072578430178,0.2954056560993195,0.059657983481884,1.0010576248168945
45.200450897216804,14.271212577819826,-12.016550064086914,-0.8160415291786195,-2.173305034637451,1.3424810171127322
80.47920227050781,19.781967163085938,54.408546447753906,-1.7063124179840088,2.9781060218811035,2.5077793598175053
-4.318789958953858,7.593689918518066,-12.958359718322756,-1.0705932378768923,2.3990979194641113,0.7862650752067567
13.257513999938967,-9.330350875854492,18.247474670410156,-1.5900459289550781,3.4226548671722417,1.3380430936813357
-11.666915893554688,-2.6339628696441655,12.407272338867188,-0.36194610595703125,2.9019615650177006,0.4632806181907654
-2.8198060989379883,-17.15914344787598,13.187238693237305,0.6550949215888978,1.8382591009140017,-0.3042301535606384
-4.60331916809082,-6.404546260833741,15.599720001220703,0.6850777864456177,0.3851665556430817,-0.7511073350906372
1.3382394313812256,3.91507625579834,13.45095729827881,0.674600660800934,-0.4804878234863281,-0.9601614475250244
8.918067932128906,3.6243953704833984,9.197280883789062,0.18277424573898315,-0.5840870738029481,-0.5681933164596558
9.995253562927248,2.924041271209717,6.738007068634034,-0.07765133678913116,-0.2754467725753784,-0.08606841415166856
8.049269676208498,-0.8500778079032899,6.682133674621582,-0.10550988465547563,0.1952907145023346,0.15373055636882785
5.6368560791015625,-4.026352405548097,7.826432228088379,0.08486112952232361,0.46651884913444525,0.029446622356772426
4.113507747650147,-2.0960559844970703,9.408830642700195,0.21928352117538452,0.4606179296970368,-0.12718269228935242
4.12786865234375,0.40992456674575806,10.333153724670412,0.1261580139398575,0.3642233312129975,-0.13241904973983765
4.549802780151367,0.9517887830734253,10.186326026916506,-0.024644030258059505,0.21281996369361877,0.018879743292927745
5.09693717956543,0.04785922169685364,9.607611656188967,-0.12062641978263855,0.13660614192485812,0.13398985564708712
4.720901012420655,-1.5669032335281374,9.4822473526001,-0.11718378216028215,0.09067247807979584,0.12858583033084872
4.104150295257569,-1.3583128452301025,9.778926849365234,-0.0732363983988762,-0.01155176665633917,0.05274032801389694
4.450712203979492,-0.9081113934516908,9.6924524307251,-0.0688793957233429,-0.11981805413961412,0.009313138201832771
5.078448772430421,-0.46835261583328247,9.4242639541626,-0.11172159016132355,-0.1667328625917435,0.025308107957243923
5.208179950714112,-0.3382175266742707,9.291129112243654,-0.16250090301036837,-0.18402710556983948,0.07278435677289964
5.001841068267823,-0.43518882989883423,9.366399765014648,-0.20956820249557495,-0.20856943726539612,0.11067389696836473
5.079460620880128,-1.2492249011993408,9.246422767639162,-0.2151964455842972,-0.2300511598587036,0.12050617486238481
4.845774173736573,-1.2626662254333496,9.345503807067873,-0.20438817143440247,-0.26014688611030584,0.11700510233640672
4.8879666328430185,-0.9929174184799194,9.386458396911623,-0.21326413750648499,-0.29793217778205877,0.1142926961183548
5.226137638092042,-1.1901360750198366,9.169256210327148,-0.21102680265903476,-0.30468609929084783,0.10516497492790222
5.248456954956055,-0.9610462188720703,9.139081954956055,-0.21390244364738464,-0.3037103116512299,0.11360053718090057
5.113789081573487,-0.5690250992774964,9.321316719055178,-0.24837151169776917,-0.32747665047645574,0.1382747143507004
