AccX,AccY,AccZ,GyrX,GyrY,GyrZ
0.0004366263165138662,-0.0001429045805707574,0.0010372424731031062,5.766549406871492e-07,-6.13237375546305e-07,-1.4681029369967291e-06
4.075963497161866,-1.3142483234405518,9.70107650756836,0.001901764306239784,-0.005016501061618328,-0.01105471979826689
4.037408828735352,-1.3370865583419802,9.691020965576172,0.001283497316762805,-0.007244444452226162,-0.010930000804364683
4.0352277755737305,-1.3428125381469727,9.688129425048828,0.0004901696229353547,-0.00879191141575575,-0.012350745499134064
4.064215660095215,-1.3247454166412354,9.735612869262695,-0.0014224117621779442,-0.009884047321975233,-0.009188742376863958
4.052920341491699,-1.3385072946548464,9.702970504760742,-0.004385385662317276,-0.013089978136122228,-0.008929161354899406
4.061652183532715,-1.3709666728973389,9.693678855895998,-0.006058624479919673,-0.013130235485732557,-0.007934149354696274
4.061694622039796,-1.3457767963409424,9.69137191772461,-0.0029977431986480956,-0.013139666989445686,-0.00844066869467497
4.0560059547424325,-1.387312412261963,9.687207221984865,-0.002545519964769483,-0.012189827859401703,-0.007513681426644325
4.059978485107422,-1.3691809177398682,9.674844741821289,-0.0007344823097810149,-0.008271143771708013,-0.007728260941803455
4.07282304763794,-1.3559008836746218,9.687897682189943,-0.0005583766615018249,-0.008325351402163506,-0.010813540779054167
4.0421767234802255,-1.3471639156341553,9.68213748931885,0.0001523858227301389,-0.007707669865339995,-0.010383328422904015
4.044108867645265,-1.3409547805786133,9.709840774536133,-0.00014978107356000694,-0.009533360600471497,-0.00952436588704586
4.058088302612305,-1.3568005561828613,9.693562507629396,-0.0009009874775074423,-0.010228114202618599,-0.009069171734154226
4.057982921600343,-1.369138836860657,9.656185150146484,-0.0003190839197486639,-0.010310163721442223,-0.008458624593913557
4.056728363037109,-1.3567051887512207,9.692951202392578,0.00040863174945116043,-0.010051370598375799,-0.008149702101945877
4.053240299224854,-1.3740384578704834,9.655168533325195,0.0032270879019051795,-0.009941477328538895,-0.010608257725834846
4.048063278198242,-1.35030734539032,9.702073097229006,0.0012610394041985273,-0.008084445260465147,-0.011289596557617188
4.039584159851074,-1.3776351213455202,9.670778274536133,0.004514605738222599,-0.008083164691925049,-0.013323477469384672
4.048187732696534,-1.3441741466522217,9.706377029418945,0.004934512544423343,-0.010347036644816399,-0.014219953678548338
4.0551652908325195,-1.3530479669570925,9.689895629882812,0.0022939548362046485,-0.011256041005253792,-0.011865049600601196
4.068259716033936,-1.3334431648254395,9.701733589172365,0.0010000807233154774,-0.009217911399900915,-0.012490496039390564
4.077212810516358,-1.316328763961792,9.699882507324219,0.0011006456334143877,-0.009979760274291039,-0.010178870521485807
4.058692932128906,-1.3415307998657227,9.697620391845703,0.00045771524310112,-0.007407756987959147,-0.010076427832245827
4.045630931854249,-1.3774925470352175,9.695987701416016,0.00015434798842761668,-0.009129218757152557,-0.008624564856290817
4.063774108886719,-1.3585811853408816,9.676980972290039,0.001172203104943037,-0.008636378683149816,-0.011129520833492279
4.043671607971191,-1.3525732755661013,9.722709655761719,0.0021870220080018044,-0.009341459721326828,-0.011043877340853216
4.049319744110108,-1.3539422750473025,9.678036689758303,0.0025249517057091,-0.010285908356308937,-0.011119597591459753
4.036403656005859,-1.3970179557800293,9.703168869018555,0.002299974672496319,-0.01170954015105963,-0.010985200293362142
4.052002906799316,-1.360357165336609,9.709495544433594,0.002387982327491045,-0.010829073376953604,-0.012082323431968689
4.04177188873291,-1.3271253108978271,9.712496757507326,0.000768201076425612,-0.013291701674461365,-0.010649447329342367
4.044062614440918,-1.3432587385177615,9.723793029785156,-0.0013596666976809502,-0.014483108185231687,-0.010748574510216713
4.06114149093628,-1.3364630937576296,9.73190212249756,-0.00012181736383354293,-0.014445431530475616,-0.009877938777208328
4.075456142425538,-1.3452607393264773,9.712260246276857,-0.002273119287565351,-0.012172892689704895,-0.011038544587790968
4.072650909423828,-1.3572095632553103,9.692236900329592,-0.0015054264804348352,-0.012872328050434591,-0.008494621142745018
4.0592451095581055,-1.3595614433288574,9.674365043640138,0.0006455628899857402,-0.010743784718215467,-0.009159434586763382
4.0636353492736825,-1.3439751863479616,9.70298957824707,-0.0011948563624173403,-0.009713876061141493,-0.009660434909164907
4.048617839813233,-1.3604494333267214,9.709571838378906,-9.522450272925198e-05,-0.009618411771953108,-0.008844861760735512
4.043200016021729,-1.385275483131409,9.674922943115234,0.0030487868934869766,-0.009534221142530441,-0.011476307176053526
4.045884609222413,-1.3884315490722656,9.688013076782227,0.0023259599693119526,-0.009577819146215917,-0.012034866958856583
4.075865745544434,-1.3689640760421755,9.703536033630373,0.003428901080042124,-0.010441790334880354,-0.01113757584244013
4.072916507720948,-1.3668525218963623,9.705245971679688,0.002117912052199245,-0.00907101109623909,-0.011649851687252523
4.0281949043273935,-1.3322324752807617,9.66542720794678,0.0032299617305397987,-0.008946888148784637,-0.01214351784437895
4.049367427825929,-1.3460563421249392,9.69375228881836,0.002137963194400072,-0.008671117015182974,-0.009638307616114616
4.0459866523742685,-1.36242949962616,9.695125579833984,0.0008070134790614247,-0.008425830863416197,-0.011019510217010977
4.043591022491456,-1.3850837945938113,9.680298805236818,0.002487467369064689,-0.010370764881372452,-0.010459133423864843
4.050779342651367,-1.3539851903915407,9.693717002868654,0.0007993417675606907,-0.011148472316563131,-0.01062004268169403
4.047177314758301,-1.3675538301467898,9.69624996185303,0.0012863392475992441,-0.012529236264526846,-0.012522844597697258
4.05712652206421,-1.3499584197998047,9.680129051208498,0.002117498777806759,-0.01199160981923342,-0.013125824742019178
4.069155693054199,-1.3404943943023682,9.702303886413576,0.0021115865092724566,-0.01059732772409916,-0.01232112664729357
4.052828788757324,-1.368514657020569,9.702028274536133,0.003906714729964733,-0.00993509404361248,-0.012604680843651296
4.070265769958496,-1.358840584754944,9.699851989746094,0.004295100923627616,-0.00991886854171753,-0.011571838520467283
4.068176746368409,-1.3681812286376953,9.682576179504396,0.003448736155405641,-0.01076139323413372,-0.010573484003543854
4.070919990539551,-1.3524800539016726,9.69704818725586,0.004634845536202193,-0.008874040096998215,-0.011295524425804617
4.059712886810304,-1.3541349172592165,9.678056716918945,0.00573577405884862,-0.005393139552325011,-0.010442923754453659
4.0527753829956055,-1.3595052957534792,9.668044090270998,0.004226559307426215,-0.005559111945331097,-0.01136575546115637
4.0392866134643555,-1.3512554168701172,9.696225166320803,0.00373400142416358,-0.007103858049958945,-0.009834653697907926
4.021177768707276,-1.381192922592163,9.702634811401367,0.004683667793869972,-0.007854591123759748,-0.012488927692174911
4.053371429443359,-1.3500630855560303,9.682576179504396,0.004028575029224158,-0.010263589210808279,-0.012342527508735657
4.055654048919679,-1.3303658962249756,9.702903747558594,0.00473167421296239,-0.007432832382619381,-0.012100170366466047
4.070612907409668,-1.2726430892944336,9.720967292785646,0.002245154697448015,-0.0076268124394118795,-0.01039052661508322
4.042754173278809,-1.349919080734253,9.70906734466553,0.000699311145581305,-0.010155784897506239,-0.0103861503303051
4.05008602142334,-1.3824574947357178,9.706456184387209,-0.00011284479114692658,-0.012282097712159157,-0.008719670586287977
4.0549683570861825,-1.3642274141311648,9.700185775756836,-0.001239644247107208,-0.011722041293978691,-0.010205292142927648
4.052427768707276,-1.3471750020980837,9.714282035827638,-0.0002768297272268683,-0.011556418612599373,-0.00904814898967743
4.06305742263794,-1.3669499158859255,9.684974670410156,0.00020799662161152813,-0.009988335892558098,-0.00916594732552767
4.068216800689698,-1.3785591125488281,9.70425033569336,-1.719418105494697e-05,-0.009024514816701414,-0.009266160428524017
4.02139711380005,-1.3699207305908203,9.682284355163576,0.0017167459009215238,-0.0090387724339962,-0.009796374477446081
4.037776947021484,-1.3682348728179932,9.690249443054201,0.0006730374298058451,-0.008104348555207253,-0.010768884792923927
4.038627624511719,-1.3693771362304688,9.69508457183838,0.001419995678588748,-0.009723645634949209,-0.010233402252197266
4.073970317840577,-1.3546293973922732,9.720982551574709,0.0019065928645431995,-0.01051039807498455,-0.011820414103567602
4.067673206329347,-1.333393454551697,9.720619201660156,0.0015136221190914514,-0.010571764782071114,-0.011982048861682417
4.052006721496582,-1.3367109298706055,9.728222846984865,0.0015133704291656616,-0.00804811529815197,-0.011024454608559608
4.058743953704835,-1.3414355516433718,9.70956325531006,0.0006627902621403337,-0.007808205205947162,-0.010479727759957314
4.069558143615723,-1.3418042659759521,9.678884506225586,0.0018327331636101007,-0.006314673461019993,-0.010761138983070852
4.064549446105957,-1.3205567598342898,9.690483093261719,-0.0001830897235777229,-0.0051861326210200795,-0.009662318974733353
4.076772689819336,-1.3661938905715945,9.685678482055664,0.00044227644684724515,-0.00510720070451498,-0.00838671624660492
4.061556816101074,-1.3697421550750732,9.714442253112795,0.0013107024133205414,-0.0018047167686745527,-0.008504262194037437
4.068695068359375,-1.3595335483551025,9.673970222473146,0.002235386986285448,-0.0030581532046198845,-0.009275102056562902
4.052116394042969,-1.3723182678222656,9.67710590362549,0.003011988708749414,-0.0011019636876881123,-0.007273927796632052
4.047837734222413,-1.3756897449493408,9.693439483642578,0.005717423278838397,-0.0012248526327311993,-0.010242355987429619
4.033574104309082,-1.379990577697754,9.690690994262695,0.007566891610622406,-0.0013278283877298238,-0.010584918782114983
4.019023895263672,-1.3702809810638428,9.689166069030763,0.007221296895295382,-0.0007853488787077368,-0.01169530488550663
4.052193641662598,-1.3367248773574831,9.685646057128906,0.006146246567368507,-0.002750793239101768,-0.011270666494965553
4.027196407318116,-1.3397622108459473,9.703947067260742,0.004442334175109863,-0.0042884363792836675,-0.010934698395431043
4.038627147674561,-1.3314824104309082,9.728586196899414,0.004100935533642769,-0.007892985828220846,-0.012469319626688957
4.060079097747804,-1.3462049961090088,9.731292724609375,0.001088164863176644,-0.006124512758105994,-0.009759016335010529
4.031593799591065,-1.3601359128952029,9.715551376342773,0.0015158008318394423,-0.007354858797043563,-0.009913912042975426
4.033010482788086,-1.3593437671661377,9.715045928955078,0.0012838643742725255,-0.007924797013401985,-0.010370561853051186
4.043179512023926,-1.3533035516738894,9.724169731140138,0.0002665251959115267,-0.009968043304979803,-0.009742828086018562
4.014566898345948,-1.3619894981384277,9.705355644226076,0.0013368042418733241,-0.011019191704690458,-0.01128326915204525
4.053882122039796,-1.365948796272278,9.693193435668945,0.0009388394537381829,-0.012737501412630081,-0.010985984466969969
4.043974399566651,-1.3638825416564941,9.705506324768068,0.001614983309991658,-0.010943019762635231,-0.012783659622073174
4.048321723937988,-1.3554790019989014,9.703301429748537,0.0031686201691627502,-0.01108184549957514,-0.014412811025977135
4.052400588989258,-1.35618793964386,9.694703102111818,0.0016562311211600902,-0.00925643462687731,-0.012658627703785896
4.053107261657715,-1.3394984006881716,9.690763473510742,0.0047876713797450066,-0.008620831184089186,-0.013438157737255096
4.0382704734802255,-1.320167422294617,9.693807601928711,0.001965204952284694,-0.008794032037258148,-0.00961316004395485
4.065489768981934,-1.3561820983886719,9.70655918121338,0.0007341221207752824,-0.007374856155365706,-0.00937069021165371
4.036268711090089,-1.344844102859497,9.692151069641115,0.0021622909698635344,-0.006127979140728713,-0.00967022031545639
4.051068782806397,-1.343077063560486,9.6913537979126,-0.0005587314954027534,-0.006463751662522555,-0.009040184319019318
4.027230262756348,-1.3407160043716433,9.73152828216553,-0.000958653457928449,-0.008910132572054863,-0.010464094579219818
4.0437211990356445,-1.3632266521453857,9.702634811401367,-0.002034505130723119,-0.012283636257052422,-0.011068434454500677
4.052544593811035,-1.357356309890747,9.691568374633789,0.0010637667728587987,-0.010259891860187055,-0.010980706661939621
4.057449817657472,-1.344771146774292,9.718032836914062,-0.00025970209389925003,-0.010658732615411283,-0.010709268972277641
4.036896705627441,-1.339579224586487,9.699918746948242,0.0010039415210485458,-0.010479477234184744,-0.00955453794449568
4.04955816268921,-1.3707804679870605,9.705838203430178,0.001021128264255822,-0.008860625326633453,-0.008693945594131948
4.0478272438049325,-1.3652739524841309,9.69476318359375,0.0009416642133146524,-0.00884215161204338,-0.009650460444390776
4.055979251861573,-1.3377305269241335,9.708932876586914,-0.000353030685801059,-0.0069737532176077375,-0.009636031463742256
4.044987201690675,-1.3768614530563357,9.714109420776367,0.00235124584287405,-0.00517958076670766,-0.01041421387344599
4.043716907501222,-1.3381125926971436,9.70214366912842,0.0020560543052852154,-0.004780941177159549,-0.008758222684264183
4.055402278900147,-1.3703992366790771,9.701636314392092,0.004121996462345123,-0.0038815313018858433,-0.0070489062927663335
4.052314281463624,-1.3382070064544678,9.698415756225586,0.0047697178088128575,-0.0028480724431574345,-0.008068271912634374
4.035037517547608,-1.3462330102920534,9.689673423767092,0.0042983400635421285,-0.001759338192641735,-0.006297526881098747
4.016759872436523,-1.3721722364425661,9.722173690795898,0.004559020046144725,-0.0015823093708604574,-0.007536047603935004
4.034039974212647,-1.3567912578582764,9.715164184570312,0.004874021280556918,-0.003080338938161731,-0.009132979437708855
4.041141510009766,-1.3464429378509521,9.68088150024414,0.006147063337266445,-0.0015399419935420158,-0.008543062955141068
4.036628723144531,-1.3488192558288574,9.706928253173828,0.005522030871361495,-0.003119818400591612,-0.0070407334715127945
4.031164169311523,-1.3469942808151247,9.702280044555664,0.004885181784629822,-0.004711866844445468,-0.00926441140472889
4.041888236999512,-1.3664913177490234,9.702449798583984,0.003241336438804865,-0.0035646329633891582,-0.010379849933087828
4.0341763496398935,-1.3480993509292605,9.704689025878906,0.0043785469606518745,-0.0058288765139877805,-0.009109850972890854
4.052890777587891,-1.3585106134414675,9.68554210662842,0.004658315796405078,-0.004961621947586536,-0.009784338995814323
4.019965648651124,-1.3484156131744385,9.680718421936037,0.005296168848872185,-0.004093227442353965,-0.0110552366822958
4.046171188354492,-1.3509727716445925,9.723516464233398,0.005704836454242469,-0.0055699371732771405,-0.01132042147219181
4.036807060241699,-1.3591705560684206,9.704109191894531,0.0064740446396172055,-0.004825538024306297,-0.010715597309172155
4.008943557739258,-1.3598551750183105,9.671138763427734,0.007759007625281811,-0.003581979544833303,-0.011767704971134664
4.026676177978516,-1.3413798809051514,9.721418380737305,0.006235708016902209,-0.005787430331110954,-0.011138281784951689
4.013372421264648,-1.3411142826080322,9.735677719116211,0.005574048962444068,-0.007776854094117881,-0.011954933404922485
4.004919052124023,-1.3426117897033691,9.72299098968506,0.004762797616422176,-0.008831241168081762,-0.013004399836063385
4.022211551666261,-1.3259273767471316,9.72489643096924,0.004157060757279396,-0.009147924371063711,-0.01314791012555361
4.039149761199952,-1.325904130935669,9.697992324829102,0.0015086975181475284,-0.010070765390992165,-0.011538316495716574
4.053144931793214,-1.3471348285675049,9.71220111846924,0.0018546861829236152,-0.009176298044621946,-0.009270088747143745
4.0461792945861825,-1.3444777727127077,9.699345588684084,0.0033576490823179488,-0.007707109674811363,-0.011123153381049635
4.039441108703613,-1.3233137130737305,9.690712928771974,0.0026254565455019474,-0.0069255256094038495,-0.010228942148387434
4.003814697265625,-1.36224901676178,9.732734680175781,0.004117639269679786,-0.009558714926242828,-0.010140364058315756
4.015933513641358,-1.3589982986450195,9.702674865722656,0.0022851221729069953,-0.009177054278552534,-0.012363264337182045
4.010582447052003,-1.3707076311111452,9.703726768493654,0.0033914553932845592,-0.010855077765882017,-0.011184139177203178
4.023296356201172,-1.3524799346923828,9.716008186340334,0.0020566813182085757,-0.013175996020436287,-0.012626256793737411
4.030215263366699,-1.3407323360443115,9.719751358032227,0.0016473421128466728,-0.013503849506378174,-0.013495533727109434
4.0495452880859375,-1.3509417772293093,9.698050498962404,0.001934519736096263,-0.012274973094463348,-0.013313950039446356
4.071002960205078,-1.3332934379577637,9.70333480834961,0.0023445792030543093,-0.00901462696492672,-0.011680931784212591
4.040044784545898,-1.354175686836243,9.67230224609375,0.003755608340725303,-0.0059987623244524,-0.010991586372256279
4.02065372467041,-1.3669546842575075,9.687023162841797,0.003956234548240901,-0.006483069621026516,-0.011337772943079473
4.019789218902589,-1.3330994844436648,9.689273834228516,0.006445684470236301,-0.005297004245221615,-0.012089041061699392
4.036520957946777,-1.3318636417388916,9.723130226135256,0.005192328710108996,-0.007448241114616394,-0.012280887924134733
4.015778064727784,-1.3660757541656494,9.710854530334474,0.0063942475244402885,-0.009776960127055647,-0.013144052587449552
4.030605316162109,-1.3179118633270264,9.736515998840334,0.005575150717049838,-0.009476708248257637,-0.013411079533398153
4.021793842315675,-1.3361327648162842,9.730109214782717,0.006116158794611693,-0.011033398099243643,-0.013616861775517464
4.0081448554992685,-1.3511087894439697,9.698493957519531,0.005156847182661296,-0.010677194222807884,-0.012546288780868055
4.0294861793518075,-1.3170936107635498,9.720276832580568,0.005318304058164359,-0.012151984497904778,-0.012932145968079567
4.018216609954835,-1.3224363327026367,9.711597442626953,0.004431967157870532,-0.011720487847924232,-0.010576964356005194
3.9948918819427495,-1.3434460163116455,9.702519416809084,0.0014028331497684123,-0.013852952979505064,-0.012734659016132355
3.9994707107543945,-1.3339174985885622,9.755298614501953,0.0019502913346514108,-0.017576489597558975,-0.013083931989967825
4.023346900939941,-1.3040518760681152,9.743764877319336,-0.0019375655101612212,-0.021614525467157364,-0.014386333525180817
4.038696765899659,-1.3166067600250244,9.746919631958008,-0.0059269252233207234,-0.02383677288889885,-0.013019149191677572
4.0388641357421875,-1.303102970123291,9.704371452331545,-0.007106408476829529,-0.02329288050532341,-0.013215429149568083
4.03138017654419,-1.327683687210083,9.687891006469727,-0.00896235276013613,-0.022912878543138504,-0.009670919738709928
4.043844223022461,-1.356903910636902,9.683762550354006,-0.005768150556832553,-0.023738011717796326,-0.010442078113555908
3.993999242782593,-1.378461003303528,9.70457172393799,-0.0051157474517822266,-0.025599619373679165,-0.013745740056037903
4.010837078094483,-1.372516751289368,9.727117538452148,-0.0029647366609424357,-0.03062108345329762,-0.0178704634308815
4.041882991790772,-1.336952328681946,9.717879295349123,-0.0018854998052120209,-0.03270074352622033,-0.017395146191120148
4.044679641723633,-1.3050131797790527,9.715228080749513,-0.003174570854753256,-0.030595591291785244,-0.017686845734715465
4.025944709777832,-1.278071999549866,9.731703758239748,-0.00676774512976408,-0.03502398356795312,-0.017769549041986465
4.020715713500977,-1.3463827371597292,9.735950469970703,-0.010683748871088028,-0.03862369805574417,-0.014613582752645017
4.003973007202148,-1.3791894912719727,9.734100341796875,-0.014221180230379105,-0.04607347026467324,-0.01440514624118805
4.020450115203858,-1.3581706285476687,9.695061683654787,-0.015544039197266104,-0.05084622651338577,-0.01778801530599594
4.048357009887695,-1.3363472223281863,9.672513008117678,-0.016974167898297313,-0.0531843826174736,-0.018612841144204143
4.099064350128175,-1.285905361175537,9.724419593811037,-0.018324580043554306,-0.054501548409461975,-0.01899087987840176
4.0937700271606445,-1.3171056509017947,9.714506149291992,-0.02075277641415596,-0.05060451105237008,-0.017644397914409637
4.06293821334839,-1.371082663536072,9.694098472595217,-0.021079571917653087,-0.05208636075258255,-0.01438053883612156
4.090924263000488,-1.3500895500183105,9.695275306701662,-0.01932528242468834,-0.04996756836771966,-0.01419045589864254
4.087151050567628,-1.39528226852417,9.693631172180178,-0.015967784449458126,-0.04777475818991662,-0.014509089291095734
4.094319820404054,-1.3873963356018066,9.659441947937013,-0.012999785132706167,-0.04558783024549484,-0.015244656242430212
4.0678467750549325,-1.3731119632720947,9.695263862609865,-0.009754492901265623,-0.04290313273668289,-0.017095737159252167
4.1078081130981445,-1.371514081954956,9.700279235839844,-0.007652102969586849,-0.04377033933997155,-0.01615477353334427
4.066542625427246,-1.3807297945022585,9.675189971923828,-0.004963894374668598,-0.04285848140716553,-0.01698202453553677
4.125853061676026,-1.3744305372238161,9.678888320922852,-0.0062600960955023766,-0.0435251034796238,-0.017481446266174316
4.157944679260254,-1.335231423377991,9.634779930114748,-0.0030111633241176605,-0.039311099797487266,-0.018329480662941936
4.140409469604492,-1.27319610118866,9.658533096313477,-0.005118227098137141,-0.03693819046020508,-0.015138628892600538
4.111979007720948,-1.333148717880249,9.66867446899414,-0.008769572712481024,-0.03169792518019677,-0.011753248050808907
4.092647552490234,-1.4207544326782227,9.666303634643555,-0.0077213104814291,-0.03372870013117791,-0.01118709146976471
4.060562610626222,-1.4452118873596191,9.653067588806154,-0.000875797588378191,-0.035557899624109275,-0.015401453711092474
4.0932817459106445,-1.4050989151000977,9.67921257019043,0.0033276290632784367,-0.03685710951685906,-0.02007070556282997
4.100064277648926,-1.3581579923629763,9.682945251464844,0.0025417041033506393,-0.03949662297964096,-0.021960331127047542
4.076826572418214,-1.376356601715088,9.697698593139648,0.0034862391185015444,-0.0403510257601738,-0.022408889606595043
4.129732131958008,-1.3593128919601443,9.692784309387209,0.0032763432245701556,-0.043534718453884125,-0.022135034203529358
4.1495208740234375,-1.348549008369446,9.700314521789553,-0.0026162322610616684,-0.0417650230228901,-0.019394390285015106
4.1767988204956055,-1.355076551437378,9.65234375,-0.0012251726584509017,-0.041346017271280296,-0.019070621579885483
4.180740833282472,-1.3545377254486084,9.636613845825195,0.0008361074724234642,-0.03593667596578598,-0.017510792240500454
4.232671737670898,-1.3171294927597048,9.639735221862795,0.0010640542022883892,-0.02428095974028111,-0.014044809155166151
4.229820251464844,-1.3362460136413574,9.620975494384766,0.002634620992466808,-0.012546001002192497,-0.009564819745719435
4.209302425384522,-1.3816637992858887,9.579207420349123,0.005974458530545235,-0.0028832554817199707,-0.006663163658231498
4.14753532409668,-1.3987914323806765,9.601839065551758,0.010343815200030805,0.005504309199750423,-0.0086490111425519
4.0907559394836435,-1.4276162385940554,9.664832115173342,0.012596912682056427,0.007502721156924964,-0.011057565920054914
4.121879100799561,-1.3802293539047243,9.643105506896974,0.01469217147678137,0.008345771580934525,-0.015641679987311367
4.086572647094727,-1.4264109134674072,9.670190811157227,0.017040979117155075,0.005197185091674328,-0.016448261216282848
4.1126112937927255,-1.3780646324157715,9.684376716613771,0.0203896202147007,0.0030924526508897547,-0.019150935113430023
4.148907661437988,-1.330585837364197,9.685443878173828,0.018735326826572418,0.002476718975231052,-0.017449656501412395
4.173262596130371,-1.2828359603881836,9.65597438812256,0.017058033496141434,0.004111275542527438,-0.01596744731068611
4.110931873321534,-1.3087021112442019,9.656146049499513,0.013127738609910011,0.00478760339319706,-0.011922474019229414
4.10859489440918,-1.3202497959136963,9.679774284362795,0.011626733466982841,0.004147907253354789,-0.011706437915563583
4.084545135498047,-1.334442138671875,9.672197341918945,0.008973342366516592,0.002530578523874283,-0.011412156745791435
4.0580549240112305,-1.3269295692443848,9.700218200683594,0.007636211346834899,-0.003316163085401058,-0.01097600255161524
4.06060552597046,-1.3135113716125488,9.72454833984375,0.005534824449568988,-0.009077376686036588,-0.01119508408010006
4.095445156097413,-1.3241320848464968,9.696632385253906,0.0019354567630216481,-0.01628292351961136,-0.011830412782728674
4.111942291259766,-1.3423001766204834,9.656841278076172,0.00014383076631929728,-0.013824651017785072,-0.010643798857927322
4.134072303771973,-1.3339086771011355,9.656485557556154,0.00021301140077412128,-0.013716666959226133,-0.010724615305662155
4.148944854736328,-1.3062341213226318,9.67877197265625,0.00038526553544215863,-0.009542672894895078,-0.011334724724292755
4.166567325592042,-1.341910004615784,9.64841938018799,0.0015285458648577335,-0.003891491796821356,-0.007596567738801242
4.160306453704835,-1.3705016374588015,9.604757308959961,0.0058929212391376495,0.005019943695515395,-0.00899219233542681
4.129781723022461,-1.3865436315536501,9.62667751312256,0.01036032382398844,0.010200316086411476,-0.009296306408941747
4.124394893646241,-1.3944816589355469,9.645776748657227,0.015815380960702896,0.01573973149061203,-0.010315264575183393
4.093981266021729,-1.3612517118453982,9.685604095458984,0.019462781026959423,0.018567033112049103,-0.012965391390025617
4.086338043212891,-1.39738130569458,9.673280715942383,0.021949065849184993,0.019397888332605362,-0.015917867422103882
4.098260879516602,-1.3196166753768923,9.703025817871094,0.02294973842799664,0.01926519349217415,-0.015906149521470073
4.067222118377686,-1.282421588897705,9.693859100341797,0.020376618951559067,0.016713403165340424,-0.013607478700578214
4.069940090179444,-1.2761290073394775,9.743341445922852,0.014160527847707273,0.01161118783056736,-0.012858751229941847
4.064049243927003,-1.2359517812728884,9.750391006469727,0.009476477280259132,0.005809749942272902,-0.010174767114222051
4.079346656799316,-1.259026646614075,9.731226921081545,0.0019211294129490852,0.0017778497422114017,-0.0063162026926875114
4.083832740783691,-1.314361333847046,9.685079574584961,0.0004422251076903195,0.0020861753728240733,-0.004676441662013531
4.086005210876465,-1.3342523574829102,9.673659324645998,-0.0005693308776244521,0.0010448122629895808,-0.005298365838825703
4.087947368621827,-1.3283263444900515,9.664556503295898,0.0013697091490030289,0.0007391692488454283,-0.007247442845255137
4.084295272827148,-1.358515739440918,9.617958068847656,0.0023737249430269007,0.003180854953825474,-0.009811027906835081
4.047667980194093,-1.3524885177612305,9.690361976623537,0.004605053924024105,-0.00011291276314295828,-0.011313303373754026
4.05068302154541,-1.3063331842422488,9.734360694885256,0.0024564403574913744,-0.0016741680447012186,-0.012815020047128202
4.072045803070069,-1.3059546947479248,9.752931594848633,-0.0024959233123809104,-0.007167767733335495,-0.011075232177972794
4.058795452117921,-1.3247929811477663,9.75225830078125,-0.004545434378087521,-0.014290231280028822,-0.01145804114639759
4.0373902320861825,-1.3624000549316406,9.70363521575928,-0.0033636467996984725,-0.01894733123481274,-0.011650126427412033
4.067313671112061,-1.3272906541824343,9.707375526428224,-0.008460920304059982,-0.022334748879075054,-0.009600842371582985
4.097189903259277,-1.3377017974853516,9.686565399169922,-0.008894029073417188,-0.02484024316072464,-0.010298321023583412
4.114857196807862,-1.3234684467315674,9.69051265716553,-0.009071459993720055,-0.022386023774743084,-0.011010894551873207
4.110878944396973,-1.298793435096741,9.687204360961914,-0.0110784312710166,-0.019841367378830913,-0.010588159784674644
4.098771572113038,-1.2759437561035156,9.715504646301271,-0.012630487792193891,-0.019810698926448822,-0.007424619514495135
4.132449626922608,-1.3092730045318604,9.678260803222656,-0.015617952682077886,-0.017307080328464508,-0.003988377749919891
4.090852737426758,-1.3771806955337527,9.672802925109865,-0.013893983326852323,-0.014856347814202309,-0.0038983810227364306
4.061523914337159,-1.3832048177719118,9.665891647338867,-0.011340429075062277,-0.015202329494059088,-0.007027480751276016
4.095855236053468,-1.3697543144226074,9.660612106323242,-0.008004297502338888,-0.014317456632852554,-0.007557821925729514
4.121737480163574,-1.3671610355377197,9.66099262237549,-0.0055433642119169235,-0.01257141772657633,-0.008347111754119398
4.116692066192628,-1.3457628488540652,9.621973991394045,-0.003332485677674413,-0.008352147415280342,-0.011115913279354574
4.116457462310792,-1.3316434621810915,9.706770896911623,-0.004968078341335059,-0.0035416192840784792,-0.008273132145404816
4.064251899719238,-1.3722380399703982,9.703082084655763,-0.005054914858192206,-0.0053435564041137695,-0.008013051934540273
4.067571640014648,-1.4144085645675661,9.681551933288576,-0.004849457181990147,-0.010173968039453031,-0.009945697151124479
4.066688537597656,-1.3370631933212282,9.701434135437013,-0.002181497169658542,-0.013293659314513206,-0.012645003385841848
4.086339473724366,-1.3383532762527468,9.689327239990234,-0.0019449862884357574,-0.013929559849202635,-0.009347248822450638
4.087642192840577,-1.3561503887176514,9.70200824737549,-0.0018127416260540485,-0.014419424347579481,-0.010356223210692406
4.076946258544922,-1.3566719293594363,9.70390033721924,-0.0016014793654903772,-0.016583390533924103,-0.012632640078663826
4.112279415130616,-1.3352999687194824,9.690978050231935,-0.002510443096980453,-0.016634084284305573,-0.01075746398419142
4.1400251388549805,-1.3354090452194216,9.657144546508789,-0.00026734793209470814,-0.014724078588187696,-0.010644346475601196
4.136355876922608,-1.3123154640197754,9.657585144042969,0.0005883367266505957,-0.009455972351133825,-0.009468860924243927
4.087798118591309,-1.3463971614837646,9.665857315063477,0.0010342171881347895,-0.0062513365410268315,-0.008206452243030073
4.03943967819214,-1.358536720275879,9.680948257446289,0.0002138565905625001,-0.007083924487233162,-0.010290478356182577
4.073373794555664,-1.3961693048477175,9.68221187591553,0.005123069044202567,-0.010702391155064108,-0.010384954512119293
4.098921775817871,-1.3437632322311404,9.685662269592287,0.0036773965694010258,-0.010631847195327284,-0.01291155256330967
4.124896526336671,-1.3196986913681032,9.69784450531006,0.005512323696166278,-0.01176307164132595,-0.011575425043702126
4.103594779968262,-1.3536015748977663,9.715573310852053,0.002710258821025491,-0.009683553129434586,-0.011822390370070936
4.09839677810669,-1.382533311843872,9.697514533996584,0.004634176380932331,-0.009366447106003761,-0.010321431793272497
4.111023902893066,-1.3531959056854248,9.648487091064453,0.005438153166323901,-0.007933402433991432,-0.012509404681622984
4.122337341308594,-1.2919424772262575,9.648561477661133,0.0051693576388061055,-0.0033297711052000523,-0.011975796893239021
4.077269554138184,-1.319695234298706,9.670185089111328,0.0050138430669903755,-0.0033064766321331267,-0.010508814826607704
4.078568935394288,-1.3951946496963503,9.68459701538086,0.007084775250405074,-0.006032790523022414,-0.01207597367465496
4.0303711891174325,-1.4253954887390137,9.673573493957521,0.009195110760629179,-0.008812539279460907,-0.014785778708755972
4.070285320281983,-1.3520649671554568,9.685754776000977,0.009927208535373213,-0.015028269961476326,-0.018744558095932007
4.105244159698487,-1.3247780799865723,9.709883689880373,0.008790509775280952,-0.014030263759195806,-0.017339453101158142
4.110508918762207,-1.3030145168304443,9.704840660095217,0.006468790117651225,-0.012360758148133756,-0.016016237437725067
4.099932193756104,-1.340707540512085,9.712821960449219,0.00802463572472334,-0.01334601640701294,-0.014139083214104177
4.094773769378663,-1.3721266984939577,9.678342819213867,0.00806290749460459,-0.009608827531337738,-0.014760199934244156
4.090995311737061,-1.34009325504303,9.67300033569336,0.007819872349500656,-0.010507375933229925,-0.013514956459403038
4.127538204193116,-1.3155817985534668,9.654065132141115,0.008717887103557587,-0.006373398005962372,-0.013307751156389715
4.101824283599854,-1.3878467082977295,9.645092964172365,0.01030065305531025,-0.0008869275334291161,-0.012433480471372604
4.080247402191163,-1.40016770362854,9.649624824523928,0.015649188309907913,0.0014953768113628032,-0.016454221680760387
4.10465145111084,-1.3626719713211062,9.683136940002443,0.017913119867444042,0.0039629219099879265,-0.017238071188330654
4.146137714385987,-1.351093053817749,9.648125648498537,0.021007686853408813,0.011040659621357918,-0.017158629372715953
4.1191301345825195,-1.3009357452392578,9.686485290527344,0.021529475226998333,0.018003977835178375,-0.016498470678925518
4.140156269073487,-1.310168743133545,9.699690818786623,0.02228328213095665,0.025968959555029873,-0.01584376208484173
4.116192817687988,-1.352917194366455,9.692667961120607,0.023069275543093685,0.028043650090694427,-0.012962060980498792
4.155878067016602,-1.321570873260498,9.681355476379396,0.023276133462786678,0.03156299516558648,-0.012324482202529907
4.1673035621643075,-1.2061053514480593,9.694828987121584,0.023338183760643005,0.04279488697648049,-0.009124154224991798
4.071232318878175,-1.3112105131149294,9.667284965515138,0.01956067979335785,0.051136177033185966,-0.00367851066403091
4.087121963500977,-1.3342676162719727,9.7150354385376,0.021701712161302567,0.05079020932316781,-0.0022389451041817665
4.065764427185059,-1.3636466264724734,9.6896448135376,0.02240957878530026,0.052256975322961814,-0.0037733791396021843
3.9668438434600835,-1.4101455211639404,9.70126724243164,0.02750963717699051,0.05213224515318871,-0.006690501235425472
4.041604995727539,-1.2775285243988037,9.769398689270021,0.029441172257065776,0.04758981615304947,-0.007905412465333939
3.996517419815064,-1.340586066246033,9.748653411865234,0.025496985763311386,0.04557878896594048,-0.006459140218794346
4.00752878189087,-1.4075331687927246,9.7381067276001,0.030716782435774807,0.040733683854341514,-0.010843848809599876
4.026430130004883,-1.35960590839386,9.724418640136719,0.03681940957903863,0.04040364921092987,-0.013934201560914518
4.003283023834229,-1.3318512439727783,9.710726737976076,0.04063154757022858,0.042261790484189994,-0.015966193750500682
3.996680736541748,-1.3109877109527588,9.750720977783203,0.04194649681448937,0.038929469883441925,-0.015535528771579267
4.074312686920167,-1.276255249977112,9.727108001708984,0.04072387516498566,0.04242166876792908,-0.01078313495963812
4.030242919921875,-1.3050055503845215,9.700709342956545,0.046436470001935966,0.05661875009536743,-0.006630924064666034
4.061638832092285,-1.2613421678543093,9.739768981933594,0.04175518453121185,0.0509885884821415,-0.008435565046966078
4.066508769989015,-1.23311984539032,9.664384841918945,0.04203573241829873,0.0588294118642807,-0.0062541146762669095
3.992006063461304,-1.200862526893616,9.734410285949709,0.04061768576502801,0.06303413957357408,-0.004514501430094242
3.982327461242676,-1.2137541770935059,9.746117591857912,0.032993048429489136,0.06392809003591539,-7.675716187804937e-05
3.9656822681427006,-1.249197006225586,9.76722049713135,0.028812915086746216,0.0616956688463688,0.0006000351277180017
4.039570331573487,-1.2038537263870241,9.702957153320312,0.030249597504734996,0.06329832971096039,0.0006893199752084912
3.9718487262725835,-1.2016067504882812,9.752879142761232,0.027233559638261795,0.06927874684333801,0.006202834192663432
3.897806167602539,-1.2296974658966064,9.811212539672852,0.021395903080701828,0.06336198002099992,0.009949009865522385
3.9489402770996094,-1.3686347007751465,9.704795837402344,0.0247470885515213,0.05499257519841195,0.009631262160837652
3.9254081249237065,-1.260317087173462,9.764669418334961,0.029195727780461315,0.057712920010089874,0.003032841952517629
4.016456604003906,-1.0550595521926882,9.789334297180178,0.02441570907831192,0.05645168572664261,0.006919225212186576
4.04810380935669,-1.119519114494324,9.763517379760742,0.01717825792729855,0.0657673329114914,0.020893348380923275
4.014004707336426,-1.2963176965713503,9.716347694396974,0.022211093455553055,0.07849829643964769,0.027502583339810375
4.061712265014648,-1.369204044342041,9.674995422363281,0.035704854875803,0.09138596057891846,0.024271445348858837
4.081019401550293,-1.2941462993621826,9.686264038085938,0.047565545886755,0.11177372187376024,0.02889678254723549
4.041713237762452,-1.2288706302642822,9.79818344116211,0.058803256601095207,0.12911221385002136,0.03563228622078896
3.9991171360015874,-1.1337242126464844,9.874165534973146,0.06612578779459001,0.1361086666584015,0.04246781766414642
3.9161319732666016,-1.0463818311691286,9.881131172180178,0.060109078884124756,0.13532330095767978,0.05771502107381821
3.649219036102295,-1.2740504741668701,9.850887298583984,0.04667435213923455,0.1166016384959221,0.0633053183555603
3.52629828453064,-1.2873221635818484,9.893914222717287,0.03384984657168389,0.08838574588298798,0.0542069859802723
3.5233948230743413,-1.3128106594085693,9.942986488342287,0.01525849010795355,0.05457201600074768,0.04299668222665787
3.7340366840362553,-1.3091590404510498,9.941242218017578,0.000612168456427753,0.032773826271295554,0.03227648884057999
3.768807172775269,-1.2457671165466309,9.892249107360842,-0.005832829512655735,0.020758621394634247,0.029250083491206173
3.8171768188476562,-1.315458655357361,9.828929901123047,-0.007346577476710082,0.012739023193717003,0.02854804135859013
3.7415907382965092,-1.3198684453964236,9.833210945129396,-0.004071474540978671,0.00791328214108944,0.02626785635948181
3.7980535030364995,-1.2811179161071777,9.849714279174805,-0.004145622253417969,0.007051371503621341,0.01973772421479225
3.8187415599823002,-1.232842803001404,9.821377754211428,-0.003389430232346058,0.0074685001745820045,0.018739191815257076
3.8034031391143803,-1.2243345975875857,9.864553451538086,-0.003949517849832774,0.005374351516366005,0.018773278221488002
3.815133571624756,-1.2318973541259766,9.88052749633789,-0.00426661130040884,0.000800592766609043,0.015862287953495983
3.8119671344757085,-1.2202275991439822,9.868314743041992,-0.002085696905851364,0.0003034494875464589,0.015231302008032799
3.856484651565552,-1.2238439321517947,9.84151363372803,-0.003589816158637405,0.0035516007337719206,0.015589853748679161
3.9639391899108887,-1.2392668724060059,9.831480026245117,0.003056988585740328,0.012687058188021185,0.02121177688241005
3.938634634017945,-1.2571501731872559,9.894874572753906,0.01351043861359358,0.023191701620817184,0.027689069509506226
3.9627902507781987,-1.2751564979553223,9.829609870910646,0.021349366754293442,0.03475375100970269,0.03457869589328766
3.871178150177002,-1.3352991342544558,9.76453495025635,0.034915212541818626,0.0523197464644909,0.03801658749580383
3.395018339157105,-1.4715220928192139,9.785926818847656,0.03635646402835846,0.04592156782746316,0.02943548932671547
3.5676589012145996,-1.5319905281066895,9.807046890258789,0.03777655214071274,0.02671287022531033,-0.0010270708007737996
3.8231151103973393,-1.385502576828003,9.751105308532717,0.0491897314786911,0.0301689337939024,-0.012092731893062592
3.881969451904297,-1.2509055137634277,9.779487609863281,0.057967543601989746,0.04069148749113083,-0.010375087149441244
3.8179328441619877,-1.254127025604248,9.851879119873047,0.06298112124204637,0.0476091131567955,-0.005720322486013175
3.7149918079376225,-1.3115462064743044,9.893044471740724,0.06414344161748887,0.044700153172016144,-0.005280990153551102
3.7174630165100098,-1.2169296741485596,9.92213535308838,0.0556032657623291,0.03811905905604363,-0.004876871593296528
3.786303997039795,-1.311086893081665,9.796995162963867,0.055859837681055076,0.03744002804160119,-0.004343749023973942
3.845617532730103,-1.3362401723861697,9.823810577392578,0.06447853893041612,0.048230819404125214,0.0011802978115156295
3.5668313503265385,-1.3377270698547363,9.617969512939453,0.07360738515853882,0.055692020803689964,-0.004021039698272944
3.2117002010345463,-1.653416991233826,9.742124557495117,0.07402824610471727,0.030724763870239258,-0.02339809946715832
3.622432947158814,-1.446127533912659,9.750918388366701,0.09062508493661882,0.003697982290759683,-0.05062022805213928
3.52696442604065,-1.3252588510513308,9.838722229003906,0.08939249068498613,0.0016580347437411547,-0.06345786899328233
3.88992190361023,-1.320169806480408,9.881752967834474,0.0950903594493866,0.007150080520659686,-0.06995021551847459
3.803685903549195,-1.02005934715271,9.8438196182251,0.10196147114038469,0.02095397189259529,-0.0668376609683037
3.851088047027588,-0.9158980250358583,9.93453598022461,0.08734112232923509,0.02028208784759045,-0.05462337285280228
3.8356816768646245,-0.8883616924285889,9.94051742553711,0.06951786577701569,0.019553674384951595,-0.03580561280250549
3.8514938354492188,-1.1477313041687012,9.85798740386963,0.06520401686429979,0.024538036435842514,-0.0254061259329319
3.8268301486969,-0.9840428829193115,9.857686042785646,0.06379836052656175,0.03205157071352005,-0.019147323444485668
3.32676911354065,-0.7430378198623657,9.593008995056154,0.03589621558785439,0.02668027020990849,-0.013424647971987724
3.2404081821441655,-0.6990329623222352,9.892108917236328,-0.02233311347663403,-0.01821063458919525,-0.01871416158974171
3.203499078750611,-1.2892473936080935,9.733889579772951,-0.04040681198239327,-0.04863277077674866,-0.034023381769657135
3.2976191043853764,-1.0099215507507324,10.025625228881836,-0.0575471892952919,-0.08722498267889024,-0.06394387781620026
3.7848389148712163,-1.0505154132843018,10.029744148254396,-0.07739253342151642,-0.11555223166942596,-0.0766364559531212
3.539430618286133,-0.7078205347061157,9.95595455169678,-0.10162822902202606,-0.13853524625301364,-0.0682072639465332
3.675496339797974,-0.7852675914764404,10.136738777160646,-0.14413568377494812,-0.18241856992244723,-0.063772551715374
3.618037223815918,-1.1311824321746826,9.900909423828125,-0.16761757433414462,-0.21068331599235535,-0.059837203472852714
3.4691195487976074,-0.9954286217689515,9.850779533386232,-0.18304057419300082,-0.2402654141187668,-0.0692688524723053
3.3879120349884038,-1.0721430778503418,10.02035903930664,-0.2077566683292389,-0.2917726933956147,-0.08722682297229767
3.3484542369842534,-1.6525570154190066,9.762515068054201,-0.1859496980905533,-0.33939820528030396,-0.123605877161026
3.2254216670989995,-1.5869979858398438,10.033123016357422,-0.143387109041214,-0.3981123864650727,-0.1785864531993866
3.670161724090576,-1.5430302619934082,10.116265296936037,-0.10239171236753465,-0.4636965692043305,-0.21824759244918823
3.7690162658691406,-0.8514788150787354,10.373647689819336,-0.08954259753227234,-0.5312896370887757,-0.22106999158859253
3.713590145111084,-0.5869664549827577,10.501795768737795,-0.10696038603782654,-0.6355847716331483,-0.19144164025783542
3.3778953552246094,-0.5893893241882324,10.76226329803467,-0.1306698173284531,-0.8109724521636963,-0.1594512313604355
2.6008615493774414,-1.1352159976959229,10.924998283386232,-0.13426274061203003,-1.044283151626587,-0.14357645809650424
2.645851373672486,-0.292319267988205,11.428154945373537,-0.18937048316001892,-1.3974844217300417,-0.09051057696342468
1.6772830486297607,-1.2560346126556396,10.591692924499513,-0.271467924118042,-1.7955034971237185,-0.08435285836458208
2.306772947311402,-0.7691227197647095,11.448633193969727,-0.34882780909538275,-2.2417073249816895,-0.08311643451452257
2.166274785995484,-0.9916051626205444,11.285752296447756,-0.39789256453514105,-2.6381366252899174,-0.18816810846328735
2.8874244689941406,-1.6655817031860352,10.993296623229982,-0.3962305784225464,-3.0326673984527592,-0.28283411264419556
3.5481715202331543,-1.8741354942321777,10.904926300048828,-0.37356886267662054,-3.3920540809631348,-0.3605595827102661
3.1627063751220703,-2.488010883331299,10.475539207458498,-0.35787257552146917,-3.755680561065674,-0.3921855986118317
2.468674659729004,-3.22081732749939,9.5208215713501,-0.09804712235927582,-4.30450439453125,-0.5773335099220277
3.5348045825958256,-4.3134002685546875,9.625948905944826,0.40704926848411566,-5.119087219238281,-0.8610906004905702
6.705515384674073,-3.598607063293457,12.07970714569092,0.738732397556305,-5.814053535461426,-0.9612056016921997
9.365414619445803,-3.3111317157745366,14.842539787292482,0.8133552074432373,-6.2332167625427255,-0.9574124813079834
14.413278579711914,-4.196893215179444,16.793615341186527,0.7039006948471069,-6.093767166137695,-0.8960600495338441
17.61764144897461,-5.626154899597168,17.012411117553714,1.0638980865478516,-5.901194095611573,-0.9508757591247559
30.680852890014652,-4.9011807441711435,17.495861053466797,1.285229206085205,-5.395286083221436,-0.9327448010444642
33.348243713378906,-9.71668338775635,10.986286163330078,1.8148090839385986,-4.890135288238526,-1.044229507446289
32.88212966918946,-10.022735595703125,8.504019737243654,3.402365922927857,-4.650756359100343,-1.2698235511779785
31.760633468627933,-7.402039527893066,7.414742469787598,4.460077762603761,-3.9972357749938965,-0.76639062166214
40.76298904418946,3.4233844280242924,12.673797607421875,3.642671346664429,-3.831526756286621,-0.23140978813171387
37.760345458984375,1.9975881576538086,21.160747528076172,1.716381311416626,-2.193780660629273,-0.010072503238916397
23.204742431640625,0.2743218839168549,12.726078033447266,-0.11629128456115723,-1.4752888679504395,0.42791560292243963
18.088314056396484,-3.668742895126343,8.988641738891602,-0.9998689889907837,-1.6606274843215945,0.4383809566497803
13.632920265197756,-6.76269292831421,7.234533309936523,-0.8362650871276855,-2.0841882228851323,0.21058718860149386
12.092655181884766,-7.702279567718507,8.41578006744385,-0.15950058400630954,-2.5572752952575684,-0.07995476573705675
12.37557888031006,-6.087968826293945,11.566795349121094,0.4443866312503815,-2.595485925674439,-0.21509212255477905
11.46102046966553,-3.6420998573303223,14.619232177734375,0.6371552348136903,-2.0946598052978516,-0.14010657370090487
9.171122550964357,-1.6694209575653076,15.303840637207031,0.46867004036903387,-1.300234079360962,-0.010613257065415382
3.9071402549743652,-0.9681718349456787,13.345146179199219,0.23110495507717135,-0.531922459602356,0.027528492733836177
-0.6681174039840698,-0.4366745054721833,10.517847061157227,0.09815394133329393,-0.0005499943508766593,-0.04078606516122818
-4.115787029266358,0.3471432328224182,7.896135330200195,0.04589912667870522,0.30653733015060425,-0.14746038615703586
-6.807309150695801,1.0879716873168945,5.491774559020996,0.02138970978558064,0.48994314670562744,-0.27031731605529785
-8.183228492736818,1.3804347515106201,4.673729419708253,-0.06512461602687836,0.5605847239494325,-0.35864049196243286
-8.418703079223633,0.9619559049606323,5.363403797149659,-0.2023848593235016,0.6728014945983887,-0.34682306647300726
-7.847207546234132,-0.04546905308961868,6.651101589202882,-0.27105399966239935,1.0051078796386719,-0.26292976737022405
-8.194612503051758,-0.6266082525253296,6.849985122680664,-0.2200853079557419,1.5232532024383545,-0.1583130657672882
-9.547334671020508,-0.5065754652023315,5.565017223358155,-0.15259562432765963,2.026528835296631,-0.06470420211553575
-10.839061737060547,0.810748815536499,3.5851340293884277,-0.22393794357776645,2.360967874526978,0.032394491136074066
-10.90510654449463,1.5872995853424072,2.498361587524414,-0.5017812252044678,2.5345995426177983,0.17187023162841797
-9.700831413269045,1.0823583602905273,2.668904542922974,-0.7544930577278138,2.7010016441345215,0.34995049238204956
-8.379581451416016,0.6315128207206727,3.1190521717071538,-0.8159247040748597,2.9690752029418945,0.5203749537467958
-7.525618076324464,0.8815619349479676,2.946330308914185,-0.7506102919578553,3.2962019443511967,0.6406499147415161
-6.986546516418457,1.695287346839905,1.8898987770080566,-0.673961877822876,3.590518712997437,0.7048388719558716
-6.436907291412354,2.415538787841797,0.532709300518036,-0.6456054449081421,3.7566759586334233,0.7293415665626527
-5.088045120239258,2.4714150428771973,-0.10156016051769257,-0.6566131711006166,3.8131680488586426,0.75122207403183
-3.6802299022674565,2.485989570617676,-0.11066091060638428,-0.6291519403457642,3.846742630004883,0.7981879115104676
-2.036730527877808,3.4577262401580815,0.3742901980876923,-0.6493584513664247,3.8720664978027344,0.8664732575416566
0.5421484112739564,4.466010570526124,1.713691592216492,-0.7703136801719667,3.937678337097168,0.899229884147644
3.739418268203736,5.364423274993897,2.66072940826416,-0.9029716849327089,4.093371391296387,0.8093287348747255
7.354892253875733,4.328802108764648,2.8575797080993652,-0.897836983203888,4.245714664459229,0.5470222234725952
10.18392848968506,2.369011402130127,2.3211181163787846,-0.585777997970581,4.265946865081788,0.21048679947853088
12.319944381713867,1.6938292980194092,1.9639623165130615,-0.11229117214679718,4.125371456146241,-0.06473699957132341
14.853618621826172,1.4302550554275515,2.0914099216461186,0.16438180208206177,3.899060487747193,-0.17800524830818176
17.373062133789062,0.5222905874252319,2.5452458858489995,0.29722917079925537,3.6571807861328125,-0.1082633063197136
19.02429008483887,-0.2176092267036438,2.0195691585540776,0.38076367974281317,3.3996410369873047,0.06615725904703142
19.3917236328125,-1.042986035346985,0.8404871225357056,0.4585532546043396,2.9818799495697026,0.2954669892787934
19.542091369628906,-0.9482819437980653,0.11245985329151154,0.43198791146278387,2.3964052200317383,0.6021574139595033
18.977655410766605,-1.646406888961792,-0.3883023262023926,0.3583083152770996,1.7648897171020508,0.879980504512787
17.281421661376953,-1.8435959815979004,-2.6837537288665776,0.32468399405479437,1.124434471130371,1.1674982309341433
12.423328399658203,-0.5921216011047363,-6.326477527618409,0.23581692576408386,0.10905764251947404,1.364643692970276
11.283876419067383,-0.5792111158370972,-5.428937911987305,0.13234405219554904,-0.9629157781600952,1.550791144371033
75.28018951416017,17.649023056030277,38.63568115234375,-3.1040036678314213,-2.5230596065521245,1.326589822769165
19.989273071289062,10.2854700088501,12.896991729736328,-0.29396370053291326,4.410488128662109,-0.18708942830562594
8.934146881103516,-6.0539212226867685,10.412217140197756,-1.2925922870635986,2.0104835033416752,0.7826622128486634
-2.917510986328125,-2.8887786865234375,10.14502811431885,0.14115904271602633,2.9534544944763184,0.6489623188972474
-4.35389280319214,-6.262303829193116,13.898401260375977,-0.08770918846130371,1.5081562995910645,-0.19669328629970553
-1.3915868997573855,-12.417257308959961,10.612691879272461,0.30911764502525335,0.9404129981994629,-0.5877861380577089
1.0079600811004639,-0.997917652130127,12.854137420654297,0.3232469260692597,0.036456987261772156,-0.5081459283828735
4.102938652038574,1.9864021539688113,11.469542503356935,0.15323324501514438,-0.27702945470809937,-0.4783523380756379
6.6891889572143555,1.5825238227844238,9.407702445983888,0.010110447183251381,-0.33793866634368896,-0.2964471280574799
7.632808208465577,1.1636896133422852,8.732915878295898,-0.04782593250274658,-0.07916814833879472,-0.03535933047533035
6.198386192321777,-1.0262315273284912,8.55142593383789,-0.08864843845367432,0.18133275210857394,0.1080194339156151
4.296390056610108,-3.4641249179840092,8.802013397216797,-0.016404980793595317,0.27750861644744873,0.05940603837370873
3.7531011104583745,-2.4062814712524414,9.60132694244385,0.061229553073644645,0.24351640045642856,-0.0335172563791275
3.9535083770751953,-0.43048802018165594,10.274535179138185,0.03169292211532593,0.14800335466861728,-0.052565693855285645
4.1737990379333505,0.153122290968895,10.335442543029787,-0.0852164626121521,0.07601442188024522,0.022341473028063778
4.227398395538331,-0.7594202756881714,9.958697319030763,-0.15066604316234591,0.008181024342775345,0.08744125813245775
4.203866481781007,-1.415998935699463,9.71824836730957,-0.15482988953590393,-0.04258301854133606,0.09809318929910661
4.011217594146729,-1.6730569601058962,9.79081439971924,-0.129656657576561,-0.1085691750049591,0.0626325234770775
3.9470391273498535,-1.4909328222274782,9.8609619140625,-0.1309897750616074,-0.19243475794792175,0.01727956533432007
4.385442733764648,-0.9633489847183228,9.982057571411133,-0.17241477966308594,-0.24718971550464633,0.027594231069087982
4.292520046234132,-0.9239739775657655,9.83284091949463,-0.2055589407682419,-0.2761850059032441,0.05896161496639252
4.235386848449707,-0.8966681957244873,9.907264709472656,-0.24780231714248657,-0.3286744058132172,0.07621264457702637
3.638320684432984,-1.7498390674591064,9.711356163024904,-0.2914981245994568,-0.3965137898921967,0.05776920542120934
4.176743984222413,-1.2594599723815918,9.871579170227053,-0.3104535639286042,-0.5696101188659668,-0.0015086719067767265
4.386529922485352,-1.2908868789672852,9.90318012237549,-0.34341132640838623,-0.5656324625015259,0.04895431175827981
3.7483134269714355,-1.7178068161010742,9.406481742858888,-0.2977525591850281,-0.756018102169037,-0.015038864687085152
4.606182098388672,-1.535550832748413,9.563809394836428,-0.33470585942268377,-0.7405449151992798,-0.0004217652603983879
4.153749465942383,-1.9865107536315918,8.920856475830078,-0.2539941668510437,-0.8570038676261903,-0.04764114320278168
4.634299278259277,-1.5003532171249392,9.27302360534668,-0.26002338528633123,-0.8632081151008607,-0.046353429555892944
5.323392868041992,-1.2181499004364014,9.64637851715088,-0.22298164665699008,-0.9433025121688843,-0.04405177757143975
4.147702217102051,-1.4525920152664187,8.799252510070803,-0.24718865752220154,-0.970560371875763,-0.036310207098722465
5.4960737228393555,-0.9157281517982484,9.73172378540039,-0.26954671740531927,-1.056710958480835,-0.030843777582049373
4.077860355377198,-2.067133903503418,8.51017475128174,-0.27880057692527777,-1.0837019681930544,-0.06135689467191696
6.001329898834229,-1.700782656669617,9.432626724243164,-0.2775394022464753,-1.071363925933838,-0.007481475826352836
5.159029483795167,-2.280112504959107,8.473637580871584,-0.23617760837078097,-1.0094540119171143,-0.03704191744327545
4.661859989166261,-3.0707764625549316,7.774825096130371,-0.14382657408714294,-1.1842061281204226,-0.18598422408103943
6.339537620544434,-2.172698974609375,8.52428722381592,-0.11469240486621857,-0.9840736389160156,-0.14803786575794223
6.354209423065186,-1.8665372133255007,8.424354553222656,-0.04060152545571328,-0.9472768306732178,-0.1636604815721512
5.976404666900636,-2.182626724243164,8.237218856811523,-0.019227679818868637,-0.8601500391960145,-0.19145442545413974
5.922656059265137,-2.163105726242066,7.99119758605957,-0.0051236338913440704,-0.7784119248390199,-0.18864470720291138
6.606841087341309,-1.960940718650818,8.257522583007812,0.007836274802684784,-0.662947416305542,-0.1552572697401047
6.197936534881593,-1.9860923290252686,8.059519767761232,0.05760422348976135,-0.5841178297996522,-0.15755239129066467
5.68068790435791,-2.294743537902832,7.717320919036866,0.079988032579422,-0.5500107407569886,-0.20106120407581332
6.230334281921387,-1.3046065568923952,8.486600875854492,0.08016636967658997,-0.5252241492271424,-0.1968878209590912
5.901738643646241,-1.437481164932251,8.592587471008303,0.09017048031091691,-0.5332446694374086,-0.1945335865020752
5.925936698913574,-1.4759122133255007,8.43471908569336,0.08355043083429338,-0.5412306785583496,-0.18445934355258944
6.163814544677734,-1.4906255006790163,8.526621818542482,0.08066204935312273,-0.5545649528503418,-0.1794385313987732
5.630943775177003,-1.743818998336792,8.446569442749023,0.08846449106931688,-0.5814025402069092,-0.18428464233875277
5.557129859924316,-1.8017432689666748,8.565972328186037,0.10469621419906616,-0.6589021682739258,-0.21604208648204806
5.602558135986328,-1.7831463813781738,8.352384567260742,0.13755123317241671,-0.7729017734527588,-0.2677170336246491
5.834370136260987,-1.5240097045898438,8.424696922302248,0.16068077087402344,-0.837396800518036,-0.27801123261451727
5.879340171813965,-1.4251853227615359,8.43625259399414,0.17783214151859286,-0.9282292127609253,-0.297479659318924
5.569009304046632,-1.4707430601119997,8.598351478576662,0.18259195983409884,-1.0441812276840212,-0.3245697021484375
5.899687767028809,-1.6687190532684326,8.386133193969727,0.2021782845258713,-1.168910026550293,-0.3607624471187592
5.97410535812378,-2.0899264812469487,8.087420463562013,0.27268913388252264,-1.272562026977539,-0.419514536857605
6.148073196411133,-1.9176950454711914,7.979448318481445,0.3311899602413178,-1.3776392936706543,-0.4854482710361481
5.795053958892823,-1.9619108438491824,8.431258201599123,0.3820652365684509,-1.5249781608581543,-0.5534097552299501
6.104613780975343,-1.8578766584396365,8.243931770324709,0.450381487607956,-1.721383810043335,-0.6078492999076844
6.228021621704102,-1.4084161520004275,8.247931480407717,0.504951000213623,-1.9418801069259646,-0.6395050883293153
6.330426216125488,-1.4338649511337282,8.087882041931154,0.5395672917366029,-2.1828155517578125,-0.6647896170616151
6.425039768218995,-1.698058843612671,7.847600460052491,0.5872383117675781,-2.479605197906494,-0.7137593626976014
6.703567981719972,-1.5611873865127566,7.714466094970703,0.6708049774169922,-2.804639577865601,-0.7805874347686768
7.008157253265382,-1.0023305416107178,7.663017749786378,0.6985177993774414,-3.178179025650025,-0.8338969349861146
7.239997863769531,-0.29941448569297796,7.457147598266602,0.713538408279419,-3.5816037654876713,-0.8370859622955322
7.656215190887452,-0.5520569682121278,7.798274040222168,0.6870681047439575,-3.963123321533203,-0.8637534976005555
8.795332908630373,0.3396098017692566,8.008381843566896,0.6633514165878296,-4.248134136199952,-0.8164633512496948
10.041584968566896,0.8725169897079468,8.688915252685547,0.5570562481880189,-4.583096504211426,-0.6314612627029419
12.0434045791626,1.3568807840347292,10.10970973968506,0.331223726272583,-4.647698879241944,-0.35954225063323975
13.323318481445312,1.2735348939895632,10.320885658264162,0.19083704054355624,-4.253198146820069,-0.08643707633018494
15.185578346252443,0.22242730855941772,9.563682556152344,0.13888467848300937,-3.8449087142944336,0.1240518167614937
19.159698486328125,-0.6794703006744385,10.515287399291992,0.009924399666488172,-3.523270606994629,0.2775648832321167
24.510883331298828,0.39599722623825073,11.013175964355469,-0.6062225103378296,-2.9006206989288335,0.6601375341415405
22.6026782989502,-0.824516773223877,9.89063358306885,-1.3670524358749392,-2.0659949779510502,0.8072785139083862
17.644847869873047,-3.1083099842071538,6.916912078857422,-1.7064939737319949,-1.5202124118804932,0.585271179676056
13.504243850708008,-5.331489086151124,2.102023124694824,-1.140149235725403,-1.666243314743042,0.06734247505664825
16.43865013122559,-3.6891918182373047,-1.6298274993896484,-0.2486076056957245,-2.0640490055084233,-0.5053712129592896
14.90843391418457,-4.458216667175293,-5.066364765167237,0.8767505288124086,-2.8547480106353764,-1.3762731552124023
15.425209999084474,-0.9389150738716127,-5.528814315795898,1.700951099395752,-4.008448123931886,-2.1498703956604004
26.56466865539551,1.121851921081543,3.9592795372009277,1.9981347322463991,-4.594296455383301,-2.899242877960205
25.069347381591797,4.144591331481934,8.059011459350586,1.2962262630462646,-3.9214661121368413,-3.0226869583129883
22.51559066772461,3.9690499305725098,7.678277492523194,-0.06943559646606445,-3.432264804840088,-3.139568090438843
20.553087234497074,0.7675337791442871,8.513751983642578,-1.0487452745437624,-2.9335646629333496,-3.301017045974732
17.14962387084961,-1.1562501192092898,7.451619625091554,-1.609601140022278,-2.5529189109802246,-3.330641746520996
14.711996078491211,-3.4295802116394043,7.004515171051026,-1.799867868423462,-2.3155524730682377,-3.3755226135253906
11.879014015197756,-6.747446060180664,6.677309989929199,-1.5837169885635378,-2.133078813552857,-3.3086981773376465
9.17791271209717,-9.779099464416506,6.425143718719483,-0.7126550674438477,-2.0840036869049077,-3.130159378051758
7.860339641571046,-10.038004875183107,6.688711643218995,0.5015068054199219,-2.0543377399444585,-2.921162843704224
6.457595348358155,-8.313298225402834,7.377349376678468,1.5400400161743164,-1.9705973863601687,-2.6256699562072754
5.3637146949768075,-5.294911861419679,8.600675582885742,2.003031969070435,-1.7515448331832888,-2.2446179389953613
4.8753676414489755,-2.8341474533081055,10.461899757385256,1.7833629846572878,-1.3100829124450684,-1.7177888154983523
4.833794593811035,-1.0758206844329834,12.488118171691896,1.1252483129501345,-0.5867271423339844,-1.1379964351654053
4.55001163482666,-0.5821447372436523,13.62483310699463,0.2090739905834198,0.3950375616550446,-0.5592360496520996
3.589445114135742,-1.8043140172958376,13.550581932067873,-0.596036732196808,1.4021514654159548,-0.06368371844291687
1.293535351753235,-3.6269454956054688,11.992451667785646,-0.9873871207237245,2.24397611618042,0.31793335080146795
-1.5111966133117676,-5.521022796630859,9.150837898254396,-0.8290367722511293,2.754305362701416,0.5425528287887573
-3.9945106506347656,-5.104837417602539,6.349827766418457,-0.3677164912223816,2.903655290603638,0.7235628366470337
-5.044101715087891,-3.2325723171234135,4.813112735748292,-0.011300011537969114,2.7962267398834233,0.9521453380584717
-4.385702133178711,-1.291835069656372,5.0284576416015625,0.026925729587674144,2.633147716522217,1.22020161151886
-2.9161007404327397,0.11272828280925751,6.153641700744629,-0.1617065668106079,2.6246316432952885,1.4498349428176882
-2.220201015472412,0.8951044082641602,7.205864906311035,-0.4572806656360627,2.7830772399902344,1.5976935625076296
-1.5773073434829714,1.227708339691162,7.971201419830323,-0.7911467552185059,3.038731575012207,1.6801453828811648
-0.9073869585990907,1.2701464891433718,8.54141139984131,-1.0485165119171143,3.370057821273804,1.699751615524292
-0.2657336294651032,1.2908011674880984,8.881591796875,-1.1951782703399658,3.7314102649688725,1.648527503013611
-0.128397136926651,1.5200726985931396,8.810463905334474,-1.2444728612899782,4.078141212463379,1.5291200876235964
0.660511076450348,2.292664051055908,9.026307106018068,-1.3482254743576052,4.367040157318116,1.359126091003418
1.5248963832855225,2.9742960929870605,9.225258827209474,-1.5417535305023193,4.680756092071534,1.2344334125518799
1.8644224405288699,2.9123101234436035,8.727770805358888,-1.7159242630004883,4.989772319793702,1.099647402763367
1.2115306854248047,2.8865389823913574,7.677768230438233,-1.8045932054519656,5.180262565612793,0.9111381173133851
0.968373477458954,3.1481187343597417,7.152841091156007,-1.8672492504119873,5.162685394287109,0.6857925057411195
1.5515042543411257,3.546780586242676,7.701484203338624,-2.0144064426422124,5.059962272644043,0.4809015095233918
3.035881996154785,4.015462875366211,9.287683486938477,-2.240262508392334,5.011294841766358,0.3031102120876313
4.991559982299805,4.294278144836426,11.00404453277588,-2.5444297790527344,5.105218410491944,0.148941308259964
6.337584495544434,4.4300808906555185,12.060482025146484,-2.8493032455444336,5.293056488037109,-0.020133795216679577
7.050054073333741,4.419131278991699,12.555902481079102,-3.0983588695526127,5.455578804016113,-0.24266137182712558
7.389399528503418,4.667224407196046,12.870357513427734,-3.296620607376099,5.532405853271484,-0.495012104511261
7.995254993438722,5.4973249435424805,13.244302749633789,-3.4872887134552006,5.518265724182129,-0.7800417542457582
8.97779655456543,6.576345443725586,13.827893257141115,-3.735988140106201,5.446450233459473,-1.1199074983596804
10.07478141784668,8.222173690795898,14.404019355773928,-4.023658275604249,5.330466270446777,-1.5536369085311892
11.500661849975586,10.053467750549318,14.9357385635376,-4.381281375885011,5.177812576293945,-2.1326746940612793
13.663007736206055,12.372179985046388,15.086095809936523,-4.871791839599609,5.011810779571534,-2.7921676635742188
15.73085689544678,12.988285064697266,14.670857429504396,-5.387952327728272,4.821673870086671,-3.487783908843994
18.082277297973636,12.320582389831545,14.418811798095703,-5.706834316253663,4.60292911529541,-4.099205493927003
20.614761352539062,12.165336608886719,13.911762237548828,-5.886568546295167,4.417869567871094,-4.437953948974609
21.232746124267578,12.248115539550781,12.154052734375,-5.975136280059815,4.231825828552246,-4.43195390701294
19.48870658874512,13.511877059936523,8.900785446166992,-5.946721076965332,3.862548351287842,-4.176465511322022
17.13082504272461,14.581807136535646,5.782569408416749,-5.692744731903077,3.224152088165283,-3.8041622638702397
16.367046356201172,12.920085906982422,4.896963596343995,-4.952074527740479,2.4490904808044434,-3.421421527862549
17.167461395263672,7.457056522369386,4.967646121978761,-3.4978168010711674,1.8006532192230225,-3.0741364955902104
17.955709457397464,5.440638542175293,3.6563889980316167,-1.7654623985290527,1.339980125427246,-2.6285960674285893
18.172283172607422,6.3290557861328125,0.28805214166641235,-0.6061102747917176,0.972333550453186,-1.8937662839889529
17.39354705810547,6.294512271881104,-3.0174915790557866,-0.05700954422354699,0.5442718267440796,-0.9908919334411621
13.58346462249756,-8.172689437866211,-5.934546947479249,1.606795907020569,-0.3296999931335449,-0.23654951155185702
10.992327690124513,11.423991203308107,-0.2681985199451447,4.135977745056152,-1.4315392971038818,-0.5400905013084413
0.6752328872680664,-0.6011901497840882,16.889453887939453,3.9029812812805176,-0.7681178450584413,0.07960975170135498
2.2917914390563965,-7.397625446319581,24.48201942443848,2.9003868103027344,-0.9563918709754945,-0.3974388539791108
5.484219551086426,1.7801038026809695,14.39010238647461,1.797720551490784,-1.0651423931121826,-0.9406879544258119
5.477498531341554,-2.8216111660003667,7.841557502746582,1.9231184720993044,-1.377472758293152,-1.004342794418335
13.611249923706055,5.32306718826294,15.8709716796875,1.3849494457244873,-1.3739131689071657,-0.4962810277938843
12.708507537841797,11.519045829772951,19.045328140258793,0.8626055717468262,-0.25125727057456976,-0.25902494788169866
0.643877923488617,5.982858657836914,10.105828285217287,0.6024574041366577,0.02950924448668957,-0.2652782201766968
2.528118133544922,-0.0402141809463501,10.241092681884766,0.20169021189212802,-0.34779039025306707,-0.30902373790740967
5.783461570739746,-1.2293503284454346,10.89048480987549,0.22578254342079163,-0.2445177882909775,-0.2837313413619995
4.4268999099731445,0.8964174389839173,9.884188652038576,0.1372817009687424,-0.13989126682281494,-0.18322306871414185
4.54617738723755,-0.533158838748932,10.52465343475342,0.07766236364841461,-0.06605402380228044,-0.1684163510799408
4.440181732177734,-2.595634937286377,9.864789962768555,0.10722825676202775,-0.043638806790113456,-0.1500304639339447
4.5095624923706055,-1.5112415552139284,10.173163414001467,0.14881721138954163,-0.032906357198953635,-0.11782076954841614
4.086902618408203,-1.2096009254455566,10.010083198547365,0.13728617131710055,-0.01291494071483612,-0.10000920295715332
4.324642181396484,-1.4799623489379883,10.02052116394043,0.12157000601291656,0.002639990067109466,-0.07906202971935272
4.1513428688049325,-1.3577280044555664,10.060897827148438,0.12243939936161041,0.0034578191116452217,-0.05534345284104348
3.8431093692779545,-1.3253451585769656,9.943701744079592,0.11757253110408783,-0.00011604594328673558,-0.05119682848453522
3.7651631832122807,-1.207574009895325,9.925342559814453,0.09811446815729143,-0.01885383576154709,-0.04604793339967728
3.8124265670776367,-0.9804122447967529,10.02817153930664,0.07341767847537994,-0.039226550608873374,-0.03692779690027237
3.876430034637451,-0.6503035426139833,10.151979446411133,0.03061253391206265,-0.051312904804945,-0.019916869699954987
3.870846033096314,-0.5989162921905518,10.047169685363771,-0.028717566281557083,-0.05740122869610787,-0.0006487559294328094
3.8806016445159917,-0.7586045265197754,10.009227752685547,-0.08055486530065538,-0.06326423585414886,0.015938930213451385
3.8451380729675293,-1.0156934261322021,9.91044330596924,-0.11881925165653229,-0.06972976773977281,0.028687380254268646
3.979641914367676,-1.3422200679779053,9.855598449707031,-0.140683114528656,-0.07455484569072723,0.03615694865584374
3.896649599075318,-1.369056224822998,9.772882461547852,-0.14784808456897738,-0.07245564460754395,0.04165460541844369
3.9064729213714604,-1.503249526023865,9.661797523498537,-0.14058825373649597,-0.06729575246572496,0.0341709889471531
3.785207033157349,-1.7040717601776123,9.471745491027834,-0.12168978154659271,-0.05727244541049004,0.027624476701021194
3.5479183197021484,-2.046486616134644,9.472647666931154,-0.10290113091468811,-0.07679224014282227,0.012407110072672369
3.366228342056275,-1.9850728511810303,9.340874671936037,-0.08739972114562988,-0.11095713824033739,-0.008657814934849739
3.8966684341430664,-1.5797948837280273,9.693897247314453,-0.06789811700582506,-0.1396532654762268,-0.026256289333105087
4.281095981597901,-1.6008832454681396,9.748250007629396,-0.04512710496783257,-0.11072014272212982,-0.03653130307793618
3.966479063034058,-1.6143091917037966,9.628951072692873,-0.02675103023648262,-0.07972782850265503,-0.033376913517713554
3.873673439025879,-1.4123694896697998,9.629354476928711,-0.014006977900862694,-0.07376306504011156,-0.047748178243637085
3.9408757686614995,-1.6875513792037966,9.691500663757326,0.0019077061442658307,-0.06941404938697815,-0.06126295030117035
4.045195102691651,-1.424671292304993,9.80272102355957,0.0007202543783932924,-0.06786020845174791,-0.060981348156929016
3.990848302841187,-1.3099026679992676,9.768836021423342,-0.0004133867332711816,-0.05706147104501724,-0.05722163990139962
3.7783141136169434,-1.4407086372375488,9.714900970458984,-0.00798882357776165,-0.06687705963850023,-0.06376306712627411
3.775335550308228,-1.5330791473388672,9.805343627929688,-0.03233040496706963,-0.0793485939502716,-0.06274443864822388
3.7348096370697026,-1.4568279981613161,9.713416099548342,-0.047629516571760185,-0.09751436114311218,-0.07610418647527696
3.462813377380371,-1.4481284618377686,9.558462142944336,-0.04204713925719262,-0.1377285867929459,-0.10434973239898682
3.764572381973267,-1.7850095033645632,9.67812728881836,-0.027324598282575607,-0.16665093600749972,-0.14790290594100952
3.521410703659058,-1.6884430646896365,9.83448123931885,-0.035502977669239044,-0.20400677621364596,-0.16124813258647921
3.908129453659058,-1.5019620656967165,9.894779205322266,-0.054498933255672455,-0.22439031302928927,-0.19682204723358154
3.992897272109986,-1.4300510883331299,9.937727928161623,-0.06481702625751495,-0.2521902322769165,-0.1926974803209305
3.873671054840088,-1.3647329807281494,9.81915283203125,-0.08669800311326982,-0.2803031802177429,-0.20007593929767611
3.9925768375396733,-1.3920269012451172,9.883279800415039,-0.10075457394123077,-0.31220498681068426,-0.21868325769901278
3.9976947307586674,-1.4106622934341433,9.885956764221193,-0.11896758526563646,-0.3509918451309204,-0.21286861598491671
4.072944164276124,-1.573613166809082,9.790614128112795,-0.12694342434406283,-0.39947196841239935,-0.2138124406337738
3.9284017086029057,-1.2323149442672732,9.81324577331543,-0.1484171897172928,-0.45770561695098877,-0.24013040959835055
4.074113368988038,-0.9021971225738525,10.102482795715334,-0.20101037621498108,-0.5354599356651307,-0.21457476913928988
3.816017866134644,-1.0529773235321045,9.924208641052248,-0.253248542547226,-0.6424826383590698,-0.21351547539234164
3.498581171035767,-1.1825982332229616,10.234543800354006,-0.30073162913322454,-0.8120657801628114,-0.24062174558639526
3.1289975643157963,-1.3557678461074831,10.296775817871094,-0.34532794356346136,-1.0455539226531982,-0.2572875916957856
2.6027464866638184,-1.2812423706054688,10.221710205078125,-0.3886753618717194,-1.3357415199279785,-0.262137770652771
2.687601089477539,-1.056769609451294,10.360281944274904,-0.43666198849678045,-1.6825921535491943,-0.28672745823860174
3.0164778232574467,-0.5552657842636108,10.50660800933838,-0.4860611259937287,-2.0250790119171147,-0.29398012161254883
2.921715259552002,-0.5222680568695068,10.636322021484375,-0.542376458644867,-2.3709611892700195,-0.3071249425411225
2.7634346485137944,-1.0162286758422852,10.604434013366701,-0.5672874450683594,-2.760133504867554,-0.3579958379268647
3.0116431713104252,-1.0854504108428955,10.461359024047852,-0.5822470784187318,-3.228415012359619,-0.39658978581428533
3.1261227130889897,-1.2599197626113894,10.838186264038086,-0.5965247750282289,-3.735864400863648,-0.3923472762107849
2.1973509788513184,-2.5945107936859135,10.258084297180178,-0.49284151196479803,-4.522176742553711,-0.5255587697029115
2.1534433364868164,-1.8185162544250488,10.454153060913086,-0.43930739164352417,-5.381862163543702,-0.455946832895279
2.390682935714722,-2.2206578254699707,11.956589698791506,-0.3119218945503235,-6.800748348236085,-0.5892761945724487
4.088536739349366,-1.495791554450989,14.287573814392092,-0.36833781003952026,-8.075031280517578,-0.608904540538788
7.21842908859253,-1.4642975330352783,17.984172821044922,-0.6825414896011353,-9.056641578674318,-0.7057170867919922
12.7071008682251,-2.945009231567383,17.68965339660645,-1.3984597921371462,-9.561691284179688,-0.7018911838531494
21.96288871765137,-3.1939034461975098,20.965158462524418,-2.3556017875671387,-9.333107948303224,-0.4883812665939331
25.5578784942627,-5.966374397277832,18.310962677001953,-2.88112735748291,-8.623010635375977,-0.5295444130897523
22.080762863159183,-6.74598503112793,17.81711006164551,-2.8337023258209233,-7.751891136169434,-0.7290475964546205
17.90561294555664,-6.659458160400391,14.02231216430664,-2.9315021038055424,-7.572031021118164,-0.8824901580810547
20.646717071533203,-4.525721549987793,18.645109176635746,-3.464145421981812,-6.961847305297852,-0.9059011340141297
19.257329940795902,-3.546787738800049,19.090023040771484,-4.539904594421387,-5.32349967956543,-0.47185239195823675
16.41350555419922,-4.698848724365234,19.60258293151856,-5.876521587371827,-3.346313953399658,0.09735145419836046
23.555931091308594,-8.95082759857178,19.56340599060059,-4.876379013061523,-1.4476526975631716,-0.8507074713706971
31.879432678222656,-16.55400848388672,30.391353607177734,-2.822667121887207,2.2377412319183354,-0.9480665922164917
9.578476905822756,-10.521490097045898,15.41298580169678,-1.1923635005950928,4.263084411621094,-0.6422758698463441
3.552919387817383,-3.939262866973877,5.617052555084229,-0.3306057751178742,4.683032035827637,-0.6062349677085878
1.2638299465179443,1.578341841697693,2.0877025127410893,-0.27561005949974066,4.392439842224121,-0.7558536529541016
2.346163272857666,4.493808269500733,2.297480583190918,-0.9734627604484559,4.148044586181641,-0.6652384400367738
2.1628534793853764,4.289416313171387,2.0613412857055664,-1.6905468702316286,4.0233426094055185,-0.5907602310180664
2.516180992126465,1.218015193939209,2.976287841796875,-1.966504216194153,4.107427597045898,-0.5275060534477235
2.485907554626465,-0.3025021851062775,4.53175163269043,-1.7186046838760378,4.2716217041015625,-0.4203891158103943
3.3505406379699707,-0.12487084418535234,6.593526363372804,-1.286787509918213,4.591815471649171,-0.28854429721832275
3.595439195632935,1.2519898414611816,7.034379959106445,-0.9536595344543457,5.134507179260254,-0.09773061424493791
1.4162664413452148,3.042859315872193,4.394501209259034,-0.8072398900985718,5.549240589141847,0.07066105306148529
-0.9620544314384462,4.228528499603272,1.520076036453247,-0.8496169447898866,5.538530349731445,0.22643119096755981
-0.4985666275024414,3.980651378631592,1.1020056009292605,-0.9096806049346924,5.285871028900147,0.3532581925392151
0.9429885745048524,3.7024538516998295,1.774595379829407,-0.8077307939529419,5.086850166320801,0.4547960460186005
1.213325619697571,4.294801712036133,2.3644871711730957,-0.6523634195327759,5.024366855621339,0.49195021390914917
2.4564354419708256,4.415628910064698,3.6037623882293706,-0.5599797368049623,5.015874862670898,0.4715383052825928
3.515763759613037,4.641147613525391,3.553558826446533,-0.42671301960945135,5.1538190841674805,0.4109602272510529
3.307054042816162,5.027873516082765,2.319662570953369,-0.27842575311660767,5.243369102478027,0.23208932578563693
3.4507019519805913,5.321697235107422,1.2348433732986452,-0.2312334328889847,5.168364524841309,0.023845845833420757
4.208589553833008,4.632976531982422,0.8855585455894471,-0.19149620831012729,5.021426200866699,-0.2077489197254181
5.650860786437988,3.5607047080993652,1.4199228286743164,-0.1177426278591156,4.872098445892335,-0.37994271516799927
7.68962049484253,2.461380243301392,1.8254666328430176,-0.002755517140030861,4.754101753234863,-0.4450171887874604
9.479504585266115,1.6425796747207644,1.176899075508118,0.1385053247213364,4.610873222351074,-0.4457863867282868
11.131084442138672,0.7127497792243959,-0.052660848945379264,0.2845647931098938,4.315856456756593,-0.4212163984775544
13.138227462768555,0.2171635925769806,-0.9269101023674012,0.43255808949470526,3.8287882804870605,-0.337663620710373
15.38121223449707,-0.030000068247318268,-1.1999473571777344,0.5225635170936586,3.2174565792083745,-0.17715135216712952
17.060125350952152,-0.14412716031074524,-1.389181971549988,0.5787018537521362,2.5459477901458745,0.03772107511758804
18.35265159606934,0.04665376991033554,-0.9656696319580078,0.5762802958488465,1.8042662143707275,0.2996252775192261
20.506410598754886,-0.6180426478385926,0.8504846096038818,0.5560522079467773,1.1335257291793825,0.5275344848632812
23.18594741821289,-0.7555341124534608,3.32656741142273,0.5609982013702393,0.7091556787490845,0.715219795703888
24.11284637451172,-0.6349914073944092,4.158102989196777,0.4959784150123596,0.48019817471504217,0.8838475942611694
22.469398498535156,-0.4897060692310334,3.31906008720398,0.3869077861309052,0.25649845600128174,0.9574333429336548
19.632345199584964,-0.9520829916000366,1.5627642869949343,0.355190634727478,-0.046278994530439384,0.9181779623031616
14.345209121704102,-0.8311730027198793,-2.523989677429199,0.3892310559749604,-0.5274575352668763,0.7897676229476929
8.145231246948242,-0.7481196522712709,-7.071260452270508,0.3549621105194092,-1.3568462133407595,0.6568605899810791
2.6275379657745366,-1.7349488735198975,-9.382077217102053,0.34207767248153687,-2.4409301280975346,0.5979035496711732
32.00548171997071,11.659996032714844,26.153264999389652,-0.19168297946453097,-4.434473991394043,1.3373597860336306
50.96266174316406,22.595033645629886,49.03036117553712,-1.624086618423462,2.004932403564453,-0.46354147791862493
-22.89016151428223,0.5292458534240723,-3.4150435924530034,-0.40736046433448797,0.685448408126831,-0.4385646283626557
9.071280479431154,-16.25406074523926,17.233663558959964,-0.1837839335203171,0.06186354160308838,0.11351601779460907
1.346281170845032,-0.6437662839889526,10.09253787994385,-0.26835066080093384,-0.7428099513053895,-0.19190704822540283
7.059152126312257,-5.925400733947754,7.781211853027344,-0.02468337677419186,-0.06923601776361467,-0.590315580368042
6.650058269500733,-0.7948740720748901,9.326884269714357,0.11335647106170654,-0.19882903993129733,-0.3173150420188904
7.2341322898864755,3.1209897994995117,9.462735176086428,0.057191960513591766,0.12427946180105211,-0.15953220427036288
5.373183727264405,-1.7506395578384402,9.349048614501953,0.039080359041690826,0.29424884915351873,-0.03283504396677017
4.407620906829835,-1.1846330165863037,9.993453025817873,0.023039413616061214,0.29583421349525457,0.01837984472513199
3.9177129268646245,-1.9762153625488281,10.00141716003418,0.00926822703331709,0.24237799644470215,-0.0004149359010625631
4.12476396560669,-1.2651218175888064,9.91781234741211,-0.0037721022963523865,0.1539995223283768,-0.009694929234683515
4.313335895538331,-0.6093406081199647,9.944949150085451,-0.054107360541820526,0.0941097214818001,0.009620197117328644
4.283438205718995,-0.7260760664939881,9.998027801513672,-0.10442274808883667,0.04540307819843292,0.04006143286824227
4.068019390106202,-1.4294524192810059,9.852298736572266,-0.1209404692053795,-0.00988386943936348,0.04613276943564416
4.140239238739015,-1.346379637718201,9.91064453125,-0.12082678824663164,-0.07021644711494446,0.033653900027275085
4.227680683135987,-1.2176954746246338,9.896106719970703,-0.14680591225624084,-0.10023129731416704,0.03419014811515808
4.403393268585206,-1.3326390981674197,9.686546325683594,-0.1645714193582535,-0.11360540241003038,0.04179712384939194
4.510756969451905,-1.4116421937942507,9.640629768371584,-0.1713399887084961,-0.11449488252401353,0.05898407846689224
4.336306095123292,-1.3737486600875857,9.630642890930178,-0.17307353019714355,-0.16557337343692782,0.04236965999007226
4.364587783813477,-1.021470069885254,9.87123203277588,-0.21044263243675232,-0.15290229022502902,0.08806540071964264
4.105556011199952,-1.8051401376724245,9.597522735595703,-0.17978124320507052,-0.18871147930622104,0.07587271928787231
4.670318126678468,-1.5934295654296875,9.721959114074709,-0.17711840569972995,-0.21192753314971924,0.06131650879979134
4.496682167053223,-1.61490797996521,9.517153739929201,-0.19138164818286899,-0.18890497088432312,0.08202457427978516
4.247720241546632,-1.932434916496277,9.363341331481935,-0.1524634510278702,-0.19805178046226501,0.062403168529272086
4.393826484680176,-1.869696855545044,9.355059623718263,-0.1399439573287964,-0.15191590785980225,0.07320743054151536
4.648919105529785,-1.8768291473388672,9.356649398803711,-0.10393403470516205,-0.1758922785520554,0.02417657896876335
4.76459836959839,-1.869478702545166,9.251570701599123,-0.08708157390356065,-0.11571168899536133,0.03199364244937897
4.561920642852784,-1.8669390678405762,9.248234748840334,-0.057428762316703796,-0.11071080714464189,0.01769786700606346
4.512993335723878,-1.8385621309280398,9.258264541625977,-0.04023563489317895,-0.06948842853307725,0.018019940704107285
4.041916847229004,-2.1017291545867924,9.032225608825685,-0.015027916990220548,-0.051738619804382324,0.00620885705575347
4.404360771179199,-1.9948512315750124,9.2635498046875,0.007550493348389865,-0.03838110715150833,-0.014484556391835213
4.812404632568359,-1.7533550262451172,9.286537170410156,0.03535078465938568,-0.015707300975918773,-0.02538105472922325
4.610161304473878,-1.6887856721878054,9.093617439270021,0.06363794207572937,0.03266219049692154,-0.017962278798222545
4.4319658279418945,-1.5819761753082275,9.110332489013672,0.06999188661575317,0.06211673095822335,-0.018375732004642487
3.984603643417359,-1.6362295150756836,9.422199249267578,0.05887547880411148,0.05677411332726479,-0.019671162590384487
3.5631136894226074,-1.9269757270812988,9.477167129516602,0.06104804202914239,-0.0564577654004097,-0.060032051056623466
4.051037311553956,-1.7366271018981934,9.529159545898438,0.0446213036775589,-0.0770954042673111,-0.07673848420381547
3.738989114761353,-1.8743891716003418,9.54820442199707,0.0825764760375023,-0.16023549437522888,-0.1322850435972214
3.8519942760467534,-0.6934638619422914,9.964885711669922,0.03424840047955514,-0.2463497519493103,-0.14349496364593506
3.592685461044312,-0.7471379637718202,9.844661712646484,-0.038213241845369346,-0.35492461919784546,-0.13939751684665683
3.3087160587310795,-1.169966459274292,10.326449394226076,-0.07401683181524278,-0.5455357432365419,-0.15790852904319763
3.806138038635254,-1.5232752561569216,10.107599258422852,-0.11751743406057359,-0.7231837511062622,-0.2148941904306412
3.786645650863648,-1.8232336044311523,9.693570137023928,-0.10296674817800523,-0.8827743530273438,-0.27111661434173584
4.439533710479737,-1.184690594673157,9.702375411987305,-0.10739616304636003,-1.034040927886963,-0.3008637130260468
4.596041202545167,-1.4399075508117676,9.785773277282717,-0.1719525158405304,-1.0883569717407227,-0.2979079186916352
3.3032014369964604,-1.8459593057632449,9.509392738342287,-0.18818469345569613,-1.2506918907165527,-0.2945716083049775
4.334432601928711,-2.6659357547760014,9.578633308410646,-0.036690708249807365,-1.4587585926055908,-0.327598512172699
5.204689502716065,-0.8020263314247132,10.128645896911623,-0.0015527679352089765,-1.618964672088623,-0.2776059806346894
4.45467233657837,-1.6221433877944949,9.695287704467773,-0.03191551193594933,-1.694216847419739,-0.2877490520477295
4.680231571197511,-1.3343330621719363,10.111787796020508,-0.05409447103738785,-1.8962641954422,-0.2791707515716553
4.614534378051758,-1.3342920541763308,9.414677619934084,-0.05829819291830063,-2.1294295787811284,-0.34647455811500555
5.089719772338867,-0.6636608839035034,9.597815513610842,-0.10476406663656236,-2.367715358734131,-0.31948485970497137
4.816343307495117,-0.9181684255599976,9.39796257019043,-0.10599929094314575,-2.6699514389038086,-0.33497861027717596
4.583012104034425,-1.4727187156677246,9.194639205932617,-0.057892676442861564,-3.068188190460205,-0.38009622693061834
5.053800106048585,-0.829152286052704,9.192599296569826,0.009903955273330213,-3.53853178024292,-0.3845272660255432
5.818199634552003,-0.2932491898536682,9.238818168640138,0.057090722024440765,-4.025070667266847,-0.3227407932281494
6.802258968353272,-0.06120416522026062,10.369121551513672,0.03774997591972351,-4.476528167724609,-0.15558241307735446
8.800683975219727,-0.9911121129989624,12.348085403442383,-0.07680710405111314,-4.756391525268555,0.04589563980698586
11.768085479736328,-2.3226804733276367,14.330279350280763,-0.41043165326118475,-4.725111961364746,0.28033268451690674
13.431492805480959,-4.358054637908936,13.308081626892092,-0.6547384262084961,-4.552202701568604,0.39375895261764526
19.647903442382812,-5.033010482788086,15.23690700531006,-0.5626080632209779,-4.194915294647218,0.29547393321990967
22.431573867797855,-4.63033390045166,9.678919792175295,-0.3446187973022461,-3.750144243240357,0.03512715548276901
28.845809936523438,-4.880510330200195,3.5347120761871342,-0.22515960037708285,-3.64666748046875,-0.3035944700241089
30.579952239990234,-5.6909852027893075,0.0686098039150238,0.259438693523407,-3.7217743396759038,-1.0263087749481201
30.454784393310547,-5.54117488861084,2.1412680149078374,0.6989471316337587,-3.7538268566131596,-1.5004525184631348
31.456815719604496,-2.6149666309356694,4.090965270996094,0.8798491954803467,-4.135329723358155,-1.983856201171875
40.79130172729493,-2.8929219245910645,17.081151962280277,0.20395471155643466,-3.4381494522094727,-2.0823307037353516
28.698928833007812,-3.895352125167847,16.490777969360355,-0.6488215923309326,-2.099129915237427,-1.8453123569488525
23.659133911132812,-5.128925800323487,15.001626968383789,-1.291948199272156,-1.5987359285354616,-1.6752984523773193
19.27653312683106,-7.009133815765382,14.907062530517578,-1.4534655809402468,-1.112985372543335,-1.6084944009780886
15.618995666503906,-9.318549156188967,14.373402595520021,-1.1932172775268555,-0.7662969231605531,-1.5559028387069704
11.06735134124756,-8.98442268371582,13.72184944152832,-0.5065353512763978,-0.4727020859718323,-1.4472490549087527
6.223408222198487,-7.332805156707765,13.09013557434082,0.24783153831958774,-0.31726822257041937,-1.3672711849212646
3.1236121654510502,-4.459702491760254,13.46324348449707,0.5714411735534668,-0.18879847228527072,-1.2648584842681885
1.8742825984954834,-2.532837390899658,14.235230445861818,0.49223506450653076,0.1359796077013016,-1.0992585420608523
-0.3980427384376526,-2.079741954803467,12.943177223205568,0.38740006089210516,0.7174590826034546,-0.9444724917411805
-4.841482162475586,-2.063771009445191,10.041392326354982,0.46272945404052734,1.2216732501983643,-0.9166374802589418
-8.825550079345703,-1.5313019752502441,7.523710250854492,0.5492537021636963,1.3842316865921023,-0.9448407888412476
-10.503978729248047,-1.166106939315796,6.908341884613038,0.5206899642944336,1.3201009035110476,-0.9907380938529969
-8.859663963317873,-0.6752942800521851,8.40345096588135,0.29661089181900024,1.4371129274368288,-0.9126619100570679
-8.171513557434084,-1.1869369745254519,8.867025375366211,0.03321678936481476,1.9160220623016357,-0.7494090199470521
-10.983981132507326,-2.0363645553588867,6.717697620391847,-0.05002371966838837,2.3613536357879643,-0.595805287361145
-12.85140609741211,-2.191875219345093,4.169912815093995,-0.0357615314424038,2.4981632232666016,-0.4034542441368103
-11.607930183410646,-1.3728253841400146,4.526096343994141,-0.12312681972980499,2.521652460098267,-0.14868789911270142
-9.317712783813477,-1.6115667819976807,5.253653049468995,-0.33443054556846624,2.7929427623748784,0.19771626591682434
-8.741496086120607,-2.3737854957580566,4.470880031585694,-0.3499026000499726,3.1702566146850586,0.5519492030143739
-8.782864570617678,-1.7191863059997559,2.8647990226745605,-0.2667182385921479,3.4327545166015625,0.8943418264389038
-7.6306352615356445,0.11272899806499481,2.0241415500640874,-0.30940932035446167,3.586858987808228,1.1887998580932617
-6.1239776611328125,1.0024548768997195,1.526444911956787,-0.4757835865020752,3.724689483642578,1.427950978279114
-4.136730194091797,1.5846906900405886,1.3968231678009033,-0.61674302816391,3.8631439208984375,1.6168271303176882
-1.511599898338318,2.330548524856568,1.7330480813980105,-0.7041293382644653,4.015582561492921,1.726699471473694
1.157278656959534,2.8968341350555424,2.1511299610137944,-0.7122757434844971,4.19263792037964,1.7137863636016846
3.596890211105347,3.83843994140625,2.2237515449523926,-0.6608308553695679,4.321459770202637,1.5481756925582888
7.024103641510011,4.198415756225586,2.1385998725891113,-0.6172266602516175,4.379700660705566,1.2457147836685183
10.686610221862795,2.345839023590088,1.424119234085083,-0.4111090004444123,4.352581977844238,0.8524609804153442
13.948671340942383,0.09181702136993408,0.7373031377792358,0.0704093873500824,4.163495540618897,0.49069082736968994
17.47224617004395,-0.02217293158173561,0.9712719917297363,0.46543374657630926,3.8896443843841557,0.2686997652053833
19.959392547607422,-0.6596988439559937,0.5568606853485107,0.5787527561187744,3.652131319046021,0.20772838592529297
20.26025390625,-2.4836249351501465,-1.3115278482437136,0.6466614007949829,3.315283536911011,0.29998657107353216
19.591932296752933,-3.0548946857452397,-3.423783302307129,0.7445242404937744,2.7174708843231206,0.5560978651046753
19.06413841247559,-2.6819288730621342,-4.814841270446777,0.6629664301872255,1.9930773973464968,0.9483345746994019
16.350641250610355,-2.470059394836426,-8.069389343261719,0.42557334899902344,1.1872225999832156,1.3789942264556885
51.40766143798828,13.855984687805178,-2.841991424560547,-2.2894186973571777,-1.0505536794662478,2.0148546695709233
67.89878082275392,29.10896492004395,38.30649948120118,-2.3333826065063477,1.6619781255722048,0.32666391134262085
-2.945441246032715,0.14038020372390747,1.9930174350738525,-1.2641340494155886,3.3717415332794194,0.10595718026161194
6.199441909790039,-8.802202224731445,16.51803970336914,-0.14374810457229614,2.3467967510223393,0.965598464012146
-12.601789474487305,-3.0666723251342773,10.79608154296875,-0.07152464985847473,1.1795629262924197,0.28594651818275457
0.4115273356437683,-12.305396080017092,12.124499320983888,0.12796670198440552,0.37678310275077825,-0.31604403257369995
-0.10447412729263306,-9.309411048889162,10.783159255981445,0.2639831304550171,-0.22795557975769043,-0.5332615971565248
4.5712995529174805,0.7996491789817811,10.547872543334961,0.33951506018638616,-0.4008680582046509,-0.8511431813240052
7.747991561889648,1.0324119329452517,8.761943817138672,0.29440170526504517,-0.1477790027856827,-0.5275720953941346
8.61483669281006,3.3708367347717285,8.674833297729492,0.18002460896968844,0.1684703528881073,-0.23736380040645602
6.114008903503418,1.8940989971160889,9.273753166198732,0.03963860869407654,0.41748321056365967,0.050008241087198264
4.496243476867676,-1.7745404243469238,9.48001480102539,0.042172521352767944,0.4946041405200959,0.11785650253295898
3.7062075138092045,-3.099477052688599,9.678791046142578,0.12716591358184814,0.5085931420326234,0.04112974181771279
3.5314195156097417,-1.55351459980011,10.059480667114258,0.19756010174751282,0.4470010697841645,-0.07081235945224762
3.8717041015625,0.6478179693222046,10.39836311340332,0.0996341183781624,0.37826946377754217,-0.0483163446187973
3.8737235069274902,0.32872352004051214,10.255342483520508,-0.01612984761595726,0.29384824633598333,0.04834982007741928
3.6979942321777344,-0.9351688623428345,10.140819549560547,-0.04038604348897934,0.21669043600559237,0.10338423401117326
3.235796213150025,-1.257951021194458,10.274277687072756,-0.041476115584373474,0.11191303282976152,0.09236584603786469
3.421381950378418,-1.1488912105560303,10.258580207824709,-0.052158042788505554,0.008688153699040413,0.0672644153237343
3.620697021484375,-1.1394904851913454,10.04006576538086,-0.07348518073558807,-0.04651929065585137,0.06815619766712189
3.7991192340850835,-0.6712379455566406,10.103196144104006,-0.10166752338409424,-0.10313100367784502,0.08576299995183946
3.836958885192871,-1.0412371158599854,9.789618492126467,-0.12801581621170044,-0.1814830154180527,0.08102400600910187
4.589344501495362,-0.5496162176132202,9.873708724975586,-0.15483467280864718,-0.15876547992229464,0.11886435747146606
3.9087288379669194,-1.0292792320251465,9.745593070983888,-0.14910888671875,-0.13459537923336032,0.15565428137779236
4.029192924499512,-1.1878714561462402,9.876545906066896,-0.1490427553653717,-0.15305887162685397,0.1420250087976456
3.532392263412476,-1.4499974250793457,9.49009895324707,-0.14772745966911316,-0.206218495965004,0.08870327472686768
4.441195487976074,-0.5933585166931152,10.01054573059082,-0.18190455436706543,-0.19590741395950317,0.10491324216127397
3.6331071853637695,-1.3560770750045779,9.522580146789553,-0.149862214922905,-0.23290392756462097,0.08888553828001024
4.165441036224366,-1.1921312808990479,9.643657684326172,-0.1558694839477539,-0.22183926403522494,0.05786519870162011
3.5522882938385014,-0.9798877239227295,9.78810787200928,-0.1895912736654282,-0.25114554166793823,0.06652275472879411
3.875083208084107,-1.2445931434631348,9.91543483734131,-0.18640659749507907,-0.3189156353473664,0.030386310070753098
4.233787536621094,-1.1268619298934939,9.729092597961428,-0.19802169501781466,-0.3101683259010315,0.050783846527338035
3.9838409423828125,-1.9034395217895508,9.157223701477053,-0.1644641309976578,-0.318543016910553,0.022990502417087555
4.499232292175293,-1.6941163539886475,9.300351142883303,-0.15681374073028564,-0.28991922736167913,-0.0026605091989040375
4.4201860427856445,-1.056227445602417,9.602210998535156,-0.14669550955295566,-0.22298745810985568,0.023598890751600266
4.191629886627198,-1.6241366863250732,9.247576713562013,-0.10454168915748596,-0.22309751808643344,0.010038696229457855
4.21606206893921,-1.7224161624908447,9.341300964355469,-0.0868414267897606,-0.27804410457611084,-0.04365168511867523
4.246728420257569,-1.5404380559921267,9.582223892211914,-0.08913741260766984,-0.21524593234062195,-0.037644673138856895
4.126548767089844,-1.7054076194763184,9.34301280975342,-0.03299026936292648,-0.2259167730808258,-0.066325880587101
4.28483772277832,-1.409255027770996,9.434716224670412,-0.03233569487929345,-0.2230459749698639,-0.08840175718069078
4.406620025634766,-1.0348721742630007,9.487247467041016,-0.03872133791446686,-0.21656049787998202,-0.08321353048086168
4.159296035766602,-1.3019957542419434,9.638572692871094,-0.02018173784017563,-0.24242074787616733,-0.08235672116279602
3.951850414276123,-1.1494542360305788,9.765073776245117,-0.01004940737038851,-0.3001828491687775,-0.0936194658279419
3.840564727783203,-1.243748426437378,9.812870025634766,0.006166750099509955,-0.38568395376205444,-0.10640529543161394
3.530714511871338,-0.977350413799286,10.092152595520021,-0.010020765475928785,-0.495486855506897,-0.12089909613132477
3.745742559432984,-1.5810620784759521,10.261122703552248,0.0489557608962059,-0.7523368000984193,-0.17115357518196106
3.8312170505523686,-0.8635157942771913,10.194066047668459,0.03335284814238549,-0.808990776538849,-0.12919917702674866
3.7237737178802495,-1.169281840324402,10.129920959472656,0.04843980073928833,-1.0907748937606814,-0.1752796173095703
4.067458629608155,-1.1806782484054568,10.047121047973633,-0.024075224995613098,-1.155943274497986,-0.10549534112215044
3.896253347396851,-0.6089766621589662,10.158318519592287,0.00039539491990581155,-1.4757326841354372,-0.11965987086296082
4.0450334548950195,-0.3914873003959656,10.211626052856445,-0.1128963828086853,-1.6292533874511719,-0.07060600072145463
4.401130676269531,-0.8132185935974121,10.213577270507812,-0.2536419630050659,-1.8584028482437136,-0.09934093058109283
3.837668657302857,-1.7319215536117556,10.788688659667969,-0.30422201752662664,-2.14937686920166,-0.1435524821281433
3.9254133701324467,-1.5063430070877077,10.081013679504396,-0.27315965294837957,-2.2863311767578125,-0.2192855924367905
4.253662109375,-1.4634435176849365,9.528032302856445,-0.2899676561355591,-2.638636589050293,-0.2623660862445832
4.35219430923462,-1.1501435041427615,9.227836608886719,-0.21869035065174106,-3.002873420715332,-0.3282738029956818
4.322090148925781,-1.0285879373550417,9.196739196777344,-0.12683254480361938,-3.4628951549530034,-0.4052921831607819
5.028129100799561,-1.2526938915252686,9.581403732299805,0.03845533356070519,-4.000064849853516,-0.4124430119991303
5.659537315368652,-1.7220906019210818,9.910365104675295,0.21016781032085421,-4.529390811920167,-0.39512544870376587
7.270268917083741,-3.037493467330933,10.57288932800293,0.3104016482830048,-4.917409896850586,-0.33358499407768255
10.634939193725586,-1.8589041233062744,12.841300010681154,0.09461027383804321,-4.975890636444093,-0.23725830018520358
13.18978500366211,-3.3633522987365723,13.876615524291992,-0.2630136907100678,-4.721700668334961,-0.18009336292743686
16.633670806884766,-4.8917603492736825,14.412023544311523,-0.2775950133800507,-4.405022144317628,-0.27388566732406616
23.236080169677734,-4.218502998352051,13.288947105407717,-0.29144418239593506,-3.978648900985718,-0.514143705368042
27.85431671142578,-5.114152908325195,8.280708312988281,-0.48577558994293213,-3.6502997875213627,-0.81793349981308
29.30230712890625,-8.281289100646974,2.96726655960083,-0.1440700888633728,-3.5836651325225835,-1.3202223777770996
29.12620353698731,-9.134837150573732,3.3524465560913086,0.9447684288024902,-3.6925063133239746,-1.8110214471817019
27.982200622558594,-5.466545581817628,2.622966051101685,1.5975705385208132,-3.9752745628356934,-1.9180837869644167
40.01115417480469,-2.9945657253265385,16.282943725585938,0.9998752474784852,-3.748673915863037,-1.8762924671173096
30.40312004089356,-2.729870319366455,18.339212417602543,0.034745991230010986,-2.275450944900513,-1.603261947631836
22.74718475341797,-3.287968158721924,14.44454860687256,-0.9816001653671265,-1.678739070892334,-1.3608278036117556
18.80672836303711,-4.643070697784425,13.615436553955078,-1.5362852811813357,-1.2773032188415527,-1.2972916364669802
12.895178794860842,-6.16243600845337,11.013258934020998,-1.7124480009078982,-1.1005558967590332,-1.2596101760864258
9.20604133605957,-7.831888198852539,10.501715660095217,-1.3082265853881836,-1.1527827978134157,-1.3337163925170898
7.358275890350343,-7.713004589080811,11.416017532348633,-0.6913281083106996,-1.135183930397034,-1.2751564979553223
5.872493743896484,-6.2932143211364755,12.855417251586914,-0.1635974645614624,-0.9338698983192445,-1.0754520893096924
3.804872989654541,-4.248056411743164,13.496558189392092,0.091631256043911,-0.508945107460022,-0.8110377788543701
1.560143232345581,-3.2128431797027592,13.40624523162842,0.14755132794380188,0.03318561241030694,-0.5898361206054688
-0.5980610847473145,-2.716510772705078,12.873751640319826,0.12158390879631042,0.630271315574646,-0.3910414278507233
-2.2166128158569336,-2.3524889945983887,11.952572822570803,0.08216113597154619,1.2571241855621338,-0.1991374045610428
-3.522911548614502,-2.4580295085906987,10.230562210083008,0.13648958504199984,1.8525826930999756,-0.051183417439460754
-5.869922161102296,-2.391699552536011,7.615404605865479,0.2985100746154785,2.274163961410523,0.042078129947185516
-7.219787120819093,-1.7445778846740723,5.826123714447022,0.367734044790268,2.3959467411041264,0.16727134585380554
-8.231328010559084,-0.8230479359626771,4.333390235900879,0.3122980892658234,2.424715518951416,0.3214618861675263
-8.892407417297365,-0.576966404914856,3.5478465557098393,0.1235238090157509,2.4083828926086426,0.4651961326599121
-8.81454372406006,-0.5834695100784302,3.374557733535767,-0.09565169364213945,2.4200401306152344,0.6295008063316346
-8.120567321777344,-0.8537315130233765,3.479146242141724,-0.28042072057724,2.5390658378601074,0.8112718462944032
-7.673854351043702,-1.081372141838074,3.2468624114990234,-0.37698218226432806,2.7323503494262695,1.0163000822067263
-7.459797382354737,-1.017448902130127,2.7074131965637207,-0.42138192057609564,2.9153342247009277,1.2445871829986572
-6.299411296844483,-0.3662119805812836,2.9410400390625,-0.5141078829765321,3.081846237182617,1.473927140235901
-4.88332223892212,0.10122641175985338,3.166731834411621,-0.6517869830131532,3.3219044208526616,1.7063357830047607
-3.3360145092010502,0.356026291847229,3.432074308395386,-0.7622246742248535,3.5665214061737065,1.9083824157714844
-1.0005998611450195,1.260427474975586,4.040452480316163,-0.8786280155181885,3.8589060306549077,2.094720602035523
0.46242785453796387,1.928818941116333,3.1420187950134277,-0.9382157325744629,4.170155048370362,2.183098793029785
1.3439697027206423,2.679600715637207,1.7981834411621094,-0.9040537476539613,4.2770752906799325,2.1511220932006836
2.8642783164978027,3.4788448810577397,1.1593616008758545,-0.8435170054435731,4.190099716186523,2.0070803165435795
5.117606639862061,3.734325170516968,1.1767332553863525,-0.7511916756629945,4.052441596984863,1.772111415863037
7.199553489685059,3.448322296142578,1.2655153274536133,-0.6139723062515259,3.8798363208770756,1.506437063217163
9.367570877075195,3.0685644149780273,1.366047501564026,-0.4364440739154816,3.6629922389984135,1.2641282081604004
11.195780754089357,2.541095733642578,1.276769042015076,-0.24454277753829956,3.4136264324188237,1.0669026374816895
13.538039207458498,1.793988108634949,2.2060036659240723,-0.1085771918296814,3.124414682388306,0.9608580470085145
16.513629913330078,1.1755031347274782,3.1780955791473393,-0.010659240186214447,2.907141447067261,0.9508553743362427
19.443748474121094,0.7162212133407593,3.287963151931763,0.051431979984045036,2.7253959178924565,1.017146348953247
20.958126068115234,0.9326178431510926,1.868824124336243,0.07704145461320878,2.4454288482666016,1.128097176551819
20.811691284179688,0.873622238636017,-0.10939402133226396,0.0694345086812973,1.9647532701492312,1.212092995643616
19.28630828857422,0.7070317864418031,-1.921664357185364,0.11650662124156952,1.3381017446517947,1.262098789215088
15.453058242797852,1.425406098365784,-5.207047939300538,0.13913445174694064,0.5841638445854188,1.2887754440307617
11.41848659515381,1.4127247333526611,-8.105730056762695,0.07094849646091461,-0.41017147898674017,1.3360307216644287
6.633199691772461,-0.7510794997215272,-11.369877815246584,0.15714287757873535,-1.5324584245681765,1.3639589548110964
78.61393737792969,-17.088171005249027,64.31675720214844,3.31262755393982,-2.578303337097168,-0.9144797921180726
0.660106122493744,11.908456802368164,-2.2198064327239995,0.6424450874328613,5.279313087463379,0.10974929481744768
-0.07907439768314362,-8.297347068786623,18.5804615020752,1.0258108377456667,1.1262009143829346,0.008570355363190176
-5.507392883300781,1.870178461074829,12.784799575805664,0.6186761856079102,1.308136582374573,0.13173060119152072
-1.9622318744659424,10.747345924377443,16.656784057617188,-0.07731065899133684,-0.36982232332229614,-0.3227683603763581
3.5185256004333496,-4.885599613189698,9.961292266845703,-0.2415502965450287,-0.3303276300430298,-0.5487536787986756
7.739413261413574,-2.1158707141876225,8.79836940765381,-0.0714130699634552,-0.7566229701042176,-0.14215806126594543
8.030009269714357,-0.20637480914592746,7.809962272644043,-0.022345319390296936,-0.2676540911197663,-0.011116496287286283
6.595475196838379,-4.507463455200195,7.600255012512207,0.1167430579662323,0.191637858748436,0.006618646904826164
4.382366657257081,-2.2443029880523686,9.155562400817873,0.2141496688127518,0.3714756071567536,0.04401397705078125
3.5112898349761967,-0.8627333641052246,10.18173599243164,0.20659437775611877,0.3082692921161652,-0.01689843088388443
3.8936381340026855,-0.8467388153076172,10.193736076354982,0.1045079603791237,0.25877952575683594,0.0017889279406517744
4.43959665298462,-0.7974835634231567,10.056204795837404,0.034485116600990295,0.24561478197574618,0.06230342388153076
4.145183086395265,-1.2306514978408816,9.858028411865234,-0.003601803444325924,0.23236417770385742,0.09454534202814104
3.3537163734436035,-1.766815423965454,10.260404586791992,-0.032306380569934845,0.1579803377389908,0.07594557106494904
3.186385154724121,-1.668704390525818,10.425554275512695,-0.07596510648727417,0.039691139012575156,0.046221684664487846
3.2783455848693848,-1.5593096017837527,10.092814445495607,-0.08713675290346147,-0.08505789935588837,0.02697345055639744
4.352153301239015,-1.4407861232757568,9.90289306640625,-0.10556530952453613,-0.15840637683868408,0.016265461221337322
4.811692714691163,-1.1265887022018435,9.847924232482912,-0.15304571390151978,-0.12184784561395647,0.0704687237739563
4.4968109130859375,-1.4413478374481201,9.523550987243654,-0.1758876293897629,-0.12596279382705688,0.07732473313808441
4.80720090866089,-1.7508480548858643,9.423771858215334,-0.18716622889041903,-0.0471181720495224,0.1382662802934647
4.148958206176758,-1.8465466499328613,9.528280258178711,-0.15304900705814364,-0.04923349991440774,0.1415201723575592
4.343432903289796,-1.2364845275878906,10.08848762512207,-0.18381921947002414,-0.024915527552366257,0.17893521487712863
3.5934336185455327,-1.9637200832366943,9.505822181701662,-0.18873736262321472,-0.06309422105550767,0.1596343666315079
3.7867517471313477,-1.7938387393951416,9.8256311416626,-0.21280771493911743,-0.14054058492183688,0.1109863817691803
4.341508865356445,-1.6558367013931277,9.769135475158693,-0.23995429277420044,-0.13531836867332458,0.14226730167865756
3.7999179363250737,-2.1950855255126953,9.316004753112795,-0.20507976412773132,-0.17381714284420016,0.11466939747333527
4.49448299407959,-1.510181188583374,9.945853233337404,-0.24863746762275696,-0.17313466966152194,0.14314334094524386
3.976011276245117,-2.537785530090332,9.330266952514648,-0.2114571183919907,-0.19238775968551636,0.11415677517652513
4.572057247161866,-2.2836253643035893,9.43946933746338,-0.20589761435985568,-0.1450864225625992,0.16057103872299194
4.059038162231445,-2.6399376392364506,8.86063861846924,-0.1382066309452057,-0.17224071919918063,0.07570023834705353
4.945687770843507,-2.03329873085022,9.467682838439943,-0.17061306536197665,-0.05103550851345062,0.16130271553993225
4.399066925048828,-2.808162212371826,8.975783348083498,-0.09687988460063934,0.019716015085577968,0.14778286218643188
4.107640266418457,-2.862253189086914,8.909988403320312,-0.03433257713913918,-0.03596200421452523,0.030142448842525482
4.795415878295898,-2.141030550003052,9.331276893615724,-0.0545244961977005,0.1721555143594742,0.1145029067993164
3.9824130535125737,-2.819204807281494,9.026787757873537,0.0034713179338723425,0.11977645754814148,0.04341399669647217
3.8248274326324467,-2.585442543029785,9.203740119934084,0.029052169993519786,0.10090851783752441,0.002038956852629781
4.339313030242921,-2.1187214851379395,9.681916236877443,0.023891650140285492,0.18031588196754456,0.038031037896871574
3.76716160774231,-2.752926588058472,9.16269302368164,0.08327862620353699,0.1443731635808945,-0.005815607495605946
3.9394235610961914,-2.299072265625,9.322441101074219,0.08514343947172166,0.13400906324386597,-0.024047967046499252
4.931744575500488,-1.6853225231170654,9.743649482727053,0.07664144039154053,0.16883461177349093,-0.0027378397062420845
4.032743453979492,-1.816434621810913,8.944971084594727,0.08728956431150438,0.2024352997541428,0.0015844989102333784
3.788119316101074,-1.9689489603042605,9.716894149780273,0.06281471252441406,0.1604743152856827,0.0039343805983662605
3.161674976348877,-2.1270575523376465,9.655038833618164,0.06351453065872192,0.14987175166606906,0.0229120496660471
2.567324161529541,-3.233102083206177,9.368864059448242,0.08680566400289537,0.01069004088640213,-0.032310705631971366
3.3336131572723393,-2.3581964969635014,9.71306896209717,0.07776831835508348,-0.10476862639188768,-0.0842277854681015
3.7044215202331543,-1.747643232345581,9.778454780578615,0.0608002282679081,-0.17089435458183289,-0.1006513610482216
3.3337063789367676,-1.9303158521652224,9.574329376220703,0.036637015640735626,-0.23108120262622836,-0.10945209115743638
3.277967929840088,-2.1000983715057377,9.699772834777834,0.014694492332637312,-0.33280783891677856,-0.1284226626157761
3.898643970489502,-2.0547482967376713,9.984889030456545,0.009098078124225141,-0.4267118871212006,-0.15466955304145813
4.322646141052246,-1.7217079401016238,9.516234397888185,-0.003069321159273386,-0.4207774698734284,-0.17036184668540955
3.2763314247131348,-2.0013782978057866,9.276420593261719,0.016365617513656616,-0.4693692028522492,-0.19098193943500522
4.184183597564698,-1.4638841152191162,9.978584289550781,-0.04462023079395294,-0.5461764931678773,-0.20893612504005432
4.086674213409425,-2.038538217544556,9.576571464538576,-0.0703934207558632,-0.5816490054130555,-0.21185454726219177
3.9199736118316655,-1.9931867122650146,9.80766487121582,-0.08978353440761566,-0.6481488347053529,-0.25596851110458374
4.545954227447511,-1.7692543268203738,9.722010612487795,-0.12389887869358063,-0.6906183362007142,-0.2754679620265961
4.1644043922424325,-1.7637648582458496,9.8573694229126,-0.17694437503814697,-0.742314636707306,-0.2719254493713379
4.516751289367676,-2.094192743301392,9.578590393066406,-0.20081594586372375,-0.8239847421646118,-0.27831432223320013
4.398639678955078,-1.6037920713424685,9.730019569396974,-0.22652445733547213,-0.9049197435379028,-0.27774432301521307
4.174360275268555,-1.990434169769287,9.584238052368164,-0.25150901079177856,-1.0298908948898318,-0.2994441688060761
4.050061225891113,-1.1153379678726199,9.85924816131592,-0.3298716843128205,-1.2193915843963623,-0.29728630185127264
4.013045310974121,-1.0850355625152588,9.874808311462404,-0.39870515465736395,-1.4042862653732302,-0.2855510711669922
3.830225944519043,-1.188127636909485,9.547696113586428,-0.4708649516105652,-1.622084975242615,-0.27928870916366577
2.9167959690094,-2.370998620986939,8.755593299865724,-0.4536172151565552,-1.8999370336532595,-0.3230753839015961
5.614519119262695,-1.430760383605957,11.025409698486328,-0.3107273876667023,-2.129730701446533,-0.28867259621620184
2.916178464889527,-2.3152120113372807,8.617711067199709,-0.2608386278152466,-2.408125400543213,-0.3402197659015656
6.421381950378418,-0.614237904548645,10.789407730102539,-0.2765347361564636,-2.6960570812225346,-0.1993570625782013
4.5097761154174805,-1.6806026697158816,9.522441864013672,-0.19046716392040255,-3.1519947052001953,-0.3035556674003601
5.1517395973205575,-0.9965555667877197,10.120036125183107,-0.22690117359161377,-3.4981319904327397,-0.17198994755744934
6.096593379974366,-2.7752513885498047,11.000938415527344,-0.13972871005535129,-3.975042581558228,-0.13740569353103638
6.830833911895753,-2.471647262573242,12.184006690979006,-0.2657897472381592,-4.310222148895265,0.009558148682117462
7.948401927947999,-4.559134483337402,13.188061714172365,-0.41581135988235474,-4.49060869216919,0.03596932068467141
10.725671768188477,-5.299090385437012,13.630105018615724,-0.475158154964447,-4.418542385101319,-0.023938991129398346
15.092824935913086,-7.4295244216918945,12.85100841522217,-0.12702426314353943,-4.377922058105469,-0.25652763247489935
21.463590621948246,-7.49866819381714,12.624142646789553,0.2841287851333618,-4.145442485809327,-0.5147433280944824
26.268779754638672,-5.606024742126465,9.775057792663576,0.2010476738214493,-3.8909459114074707,-0.6774089336395264
27.495431900024418,-3.9797809123992924,5.20836067199707,-0.21001499891281128,-3.684470415115357,-0.870998740196228
29.9368896484375,-4.757525444030762,5.122736930847168,-0.5912160873413086,-3.70477294921875,-1.0597153902053835
28.46370124816895,-3.455543756484986,4.610851287841797,-0.595359206199646,-3.9686629772186284,-1.5435233116149902
39.44098281860352,-5.055025100708008,15.753661155700685,-0.8458352088928223,-3.758921384811402,-1.9158514738082888
32.51531982421875,-5.080207347869874,19.07805442810059,-0.9330929517745972,-2.349329233169556,-1.9207518100738525
27.465686798095703,-3.6946647167205815,17.75390434265137,-1.2376073598861697,-1.5382338762283327,-1.859833002090454
20.579612731933594,-5.047865867614746,16.248695373535156,-1.1848651170730593,-0.8751951456069946,-1.970250725746155
13.847531318664553,-7.094879150390625,13.43734645843506,-0.7854224443435669,-0.6939637064933778,-2.0306189060211186
9.471672058105469,-8.461776733398438,12.004298210144045,0.1636834740638733,-0.8264597058296205,-2.173055648803711
7.293645858764648,-7.703344345092773,12.713245391845703,1.1141868829727175,-0.9169692397117616,-2.1898751258850098
6.237669467926026,-5.533457279205323,13.86648464202881,1.6286625862121582,-0.7302843928337098,-2.0113720893859863
4.087000846862793,-3.746279239654541,14.381660461425781,1.6858421564102175,-0.2483484148979187,-1.777143955230713
1.2333858013153076,-3.3197946548461914,13.659847259521484,1.4657480716705322,0.38567724823951727,-1.5309970378875732
-2.0045218467712402,-3.645295381546021,11.831975936889648,1.2206033468246462,0.9831477999687196,-1.2916364669799805
-5.824756145477296,-3.991064786911011,9.058040618896484,1.1410099267959597,1.3950331211090088,-1.110793471336365
-8.126648902893068,-3.7007784843444824,7.007081031799316,1.1229079961776736,1.6083593368530273,-0.9808403253555298
-8.954026222229006,-3.211908578872681,5.910837173461914,1.021128296852112,1.7660810947418213,-0.815292775630951
-9.783271789550781,-3.3266184329986577,4.721083164215089,0.87108314037323,1.9035215377807617,-0.5786002278327943
-10.363435745239258,-3.5806074142456055,3.9351813793182377,0.6873622536659242,2.0061120986938477,-0.2572371661663056
-10.149371147155763,-3.62841010093689,3.747847557067871,0.4499778151512146,2.0938694477081303,0.1344610303640366
-9.623323440551758,-3.6499893665313725,3.5246949195861816,0.23432841897010803,2.247139215469361,0.5250093936920166
-9.101580619812013,-3.4163038730621342,3.2838492393493652,0.06652228534221649,2.4459095001220703,0.8779967427253724
-8.468361854553224,-2.6652703285217285,2.5014975070953374,-0.06039922311902047,2.6549034118652344,1.1914757490158083
-8.052446365356445,-1.6201231479644775,1.5212720632553103,-0.18158823251724243,2.827248811721802,1.4590691328048708
-7.021263599395753,-0.6789607405662538,0.9580568075180054,-0.32262429594993597,2.9525418281555176,1.689045310020447
-5.5305328369140625,0.12718406319618225,0.7463030815124512,-0.42124301195144653,3.087319850921631,1.8422938585281374
-3.913571119308472,0.9226682186126709,0.9174048900604248,-0.47205874323844915,3.2434816360473633,1.918262839317322
-2.173778533935547,1.8954441547393799,1.129728674888611,-0.5181366205215454,3.422329664230347,1.9463845491409304
-0.2003720998764038,2.7710399627685547,1.2566888332366943,-0.5682841539382935,3.5957543849945073,1.8754441738128662
1.5301958322525027,3.4381356239318848,1.3564231395721436,-0.5819151997566224,3.710366487503052,1.6832141876220703
4.149092674255371,4.157938480377198,2.141699075698853,-0.6174265146255493,3.7842099666595463,1.409020185470581
7.184690952301026,2.842659711837769,2.5060806274414062,-0.5510006546974183,3.8774166107177734,1.0293521881103516
9.715329170227053,1.3812825679779053,2.6693022251129155,-0.2546123266220093,3.8706343173980717,0.6323375701904297
12.437968254089357,1.628754258155823,2.8937938213348393,0.005432041827589274,3.778971910476685,0.3172898292541504
14.567759513854982,1.109832763671875,2.2497177124023438,0.09501231461763383,3.6509594917297363,0.06467994302511217
15.857038497924805,-0.19561250507831576,1.2630224227905273,0.14932900667190552,3.370219945907593,-0.06295437365770341
17.1489429473877,-1.3729896545410156,0.43904361128807073,0.23103664815425876,2.9352011680603027,-0.07491401582956315
17.802223205566406,-2.3465046882629395,-0.2676893472671509,0.32345813512802124,2.4044857025146484,0.026005433872342113
17.413854598999027,-2.553689241409302,-0.9430760145187378,0.375683069229126,1.7800029516220095,0.2422538697719574
16.821762084960938,-2.239930391311646,-0.7658215761184692,0.2947669923305512,1.1452465057373047,0.5211328268051147
16.281053543090824,-2.2551393508911133,-0.11792605370283128,0.1535191982984543,0.6516234874725342,0.8238301873207093
14.939008712768555,-2.2755577564239506,0.07468944787979126,0.05376012623310089,0.28190046548843384,1.1251658201217654
12.610692977905273,-1.5329711437225342,-1.5093494653701784,-0.06468065083026886,-0.02457545138895512,1.4446828365325928
71.61651611328125,6.909040927886964,27.696643829345703,-2.094359636306763,-1.597437858581543,1.3404960632324219
18.72384262084961,19.53398895263672,9.881737709045412,-0.3499029874801636,3.9975378513336186,0.12193399667739868
6.564517974853516,-8.271909713745117,13.625404357910156,-0.15889413654804233,2.813803911209107,0.25860679149627686
-3.3064672946929936,-10.649456024169922,10.790425300598146,-0.15138086676597595,2.589497327804566,0.7874938249588013
-7.461906909942628,1.5620214939117432,12.710620880126953,0.13094852864742282,1.0240755081176758,0.4376479983329773
-3.2092771530151367,-2.4356894493103027,12.189640998840334,-0.10090436041355133,0.31916400790214544,-0.17767426371574402
-0.3399127125740051,-6.515848636627198,12.475670814514162,-0.1482546776533127,-0.43872866034507757,-0.48539257049560547
3.718504667282105,0.7275165319442749,10.59457015991211,-0.174143061041832,-0.7692296504974365,-0.5335078835487367
9.979679107666016,0.7267048954963685,9.242812156677248,-0.24564157426357272,-0.5793907642364502,-0.24800103902816772
7.611486434936523,-1.178785800933838,8.01747226715088,-0.2351929694414139,-0.1824881136417389,0.03878529742360116
6.127038955688477,-1.3760010004043581,8.714121818542482,-0.1369239091873169,0.12028531730175018,0.12853203713893893
4.645782470703125,-2.540453672409058,9.325701713562013,-0.0699368566274643,0.2647217810153962,0.12401960790157318
3.887515783309937,-2.004322052001953,9.691169738769531,-0.020683480426669124,0.25890517234802246,0.1034240871667862
4.191357612609863,-1.1720376014709473,9.97015380859375,-0.05911108478903771,0.23588073253631592,0.09964188188314439
4.221726417541504,-1.028226971626282,9.90714740753174,-0.12472858279943468,0.23498646914958957,0.145326167345047
3.9219973087310795,-1.6058245897293093,9.836049079895021,-0.14203657209873202,0.20136535167694092,0.16080318391323092
3.3758487701416016,-2.069478273391724,9.97666645050049,-0.13257405161857605,0.127184733748436,0.131482407450676
3.2055840492248535,-2.3138227462768555,9.957888603210451,-0.10602328181266785,0.025624131783843044,0.059548161923885345
3.684106588363648,-2.268052577972412,9.869015693664553,-0.07962918281555176,-0.045804463326931,-0.0035325402859598403
4.272368431091309,-1.6227295398712158,9.715591430664062,-0.08194472640752794,-0.065421462059021,-0.005668654572218657
