AccX,AccY,AccZ,GyrX,GyrY,GyrZ
0.0004718585405498743,-6.671024311799556e-05,0.0009414677042514086,9.064262229685484e-08,-8.940456837081001e-07,-9.41972984946915e-07
4.69660234451294,-0.6596354246139526,9.420402526855469,0.0015109085943549871,-0.008492109365761282,-0.010289469733834267
4.718465805053711,-0.6852465867996216,9.397519111633303,-4.871676719631069e-05,-0.00750486133620143,-0.011721493676304817
4.725941181182862,-0.6610821485519409,9.434988975524904,-0.0003034948895219714,-0.00645606592297554,-0.010849787853658201
4.748231887817383,-0.674466609954834,9.422571182250977,-0.00041298929136246443,-0.0059764315374195584,-0.009298670105636122
4.711402416229249,-0.6723759174346924,9.421816825866701,0.0006812229403294624,-0.004679935984313488,-0.009799285791814329
4.689497470855714,-0.687347710132599,9.411975860595703,0.00012004609016003089,-0.007838700897991659,-0.008215222507715225
4.698756217956543,-0.6613422632217407,9.432696342468263,-6.337725790217519e-05,-0.010184348560869695,-0.009321147575974464
4.701024532318116,-0.6524491310119629,9.446908950805664,-0.00035123023553751414,-0.010519294068217278,-0.011560885235667229
4.699773788452148,-0.6828250885009766,9.415616989135742,-0.001263689249753952,-0.012953185476362707,-0.009039806202054024
4.687985420227051,-0.6786161065101625,9.43587875366211,-0.0014341865899041297,-0.013142819516360761,-0.011121684685349464
4.722946643829347,-0.6601042747497559,9.43050765991211,-0.0020762325730174784,-0.014348853379487991,-0.011422715149819853
4.706273078918457,-0.6649085879325868,9.426826477050781,0.00023346598027274013,-0.010828907601535322,-0.01040936727076769
4.744426727294922,-0.6556804776191713,9.412381172180178,-0.0019608610309660435,-0.01172293070703745,-0.01077650673687458
4.7153992652893075,-0.667128622531891,9.434221267700195,-0.000999309355393052,-0.009512428194284439,-0.010279647074639799
4.7056379318237305,-0.6740021705627441,9.451910972595217,-0.00019438753952272236,-0.01057825516909361,-0.010228045284748077
4.705405235290527,-0.6785601377487183,9.428774833679201,1.1071606422774494e-06,-0.009962490759789945,-0.010905825532972814
4.713761329650879,-0.6612873077392578,9.455760002136232,-0.0006222776137292385,-0.009830855764448644,-0.01018848642706871
4.710204124450684,-0.674700140953064,9.45683002471924,-0.000904235348571092,-0.013619835488498213,-0.009978095069527626
4.699676513671875,-0.6651458740234375,9.413424491882326,-0.0025644414126873016,-0.012991654686629774,-0.009692519903182983
4.694283962249757,-0.663598895072937,9.43600845336914,-0.0018741691019386053,-0.012062723748385908,-0.011547691188752653
4.70762825012207,-0.6946210861206055,9.43667221069336,-0.003566782688722015,-0.01531694270670414,-0.010198202915489675
4.709719181060792,-0.6720473170280458,9.437571525573732,-0.005021553486585617,-0.015711378306150436,-0.009906043298542501
4.729404449462891,-0.6522472500801088,9.433958053588867,-0.00291163707152009,-0.014117305167019369,-0.011032331734895706
4.7040815353393555,-0.6635224223136903,9.431639671325685,-0.005706320516765118,-0.014546356163918974,-0.010126032866537573
4.726698398590089,-0.6803467273712158,9.437741279602053,-0.005774917546659709,-0.01367146335542202,-0.00988538656383753
4.708261489868164,-0.6959341168403627,9.427835464477539,-0.003968639764934779,-0.013728137128055097,-0.008827073499560356
4.731070518493652,-0.6757744550704956,9.430221557617188,-0.003982403315603733,-0.014146479777991773,-0.009367045015096664
4.715324878692628,-0.6868536472320557,9.397301673889162,-0.004856572952121497,-0.01312309317290783,-0.010264715179800987
4.744915962219238,-0.6828527450561523,9.404238700866701,-0.004961082246154548,-0.009261434897780418,-0.008277338929474356
4.718632221221925,-0.6761034727096558,9.405222892761232,-0.0019511620048433542,-0.007824791595339775,-0.007380277384072543
4.716087818145753,-0.6742669939994813,9.411328315734865,-0.002651688177138567,-0.006936016958206893,-0.00906103290617466
4.714320659637452,-0.6746063828468324,9.405196189880373,-0.0006414234521798791,-0.007624870166182518,-0.008311240002512932
4.67774248123169,-0.7129802107810975,9.430213928222656,0.0012198815820738675,-0.008649811148643494,-0.010458593256771566
4.6972317695617685,-0.6928650736808778,9.437841415405273,0.0010310966754332187,-0.009931881912052633,-0.01069488562643528
4.714919567108155,-0.6788689494132997,9.432437896728516,0.0037307962775230408,-0.009723390452563764,-0.013801217079162598
4.708657264709473,-0.638374924659729,9.431660652160646,0.0027026196476072077,-0.009982755407691002,-0.013884104788303375
4.714750766754151,-0.697959303855896,9.441545486450195,0.0016646654112264516,-0.008708523586392403,-0.011956444941461088
4.743955612182617,-0.6635222434997559,9.411258697509766,0.0028096141759306197,-0.008889249525964262,-0.013508077710866928
4.734088897705078,-0.6582251191139222,9.429595947265625,0.003851736895740032,-0.0070063439197838315,-0.013697061687707901
4.713949203491211,-0.6564252376556396,9.402035713195803,0.0032602399587631226,-0.007289101835340262,-0.011037877760827543
4.735554218292237,-0.6636807918548584,9.440433502197266,-0.0006936226855032147,-0.006804261356592178,-0.009600345976650717
4.7199673652648935,-0.6820869445800781,9.418406486511232,-0.001465446664951742,-0.004383510444313289,-0.009515190497040749
4.692146301269531,-0.6772463321685791,9.465476989746094,-0.0005974830710329116,-0.0056212292984128,-0.010029069148004057
4.700584411621094,-0.6907683610916138,9.427285194396974,3.995829320047051e-05,-0.009841649793088438,-0.010061212815344335
4.723738670349121,-0.6351622343063354,9.436230659484865,-0.0016580370720475912,-0.008260074071586134,-0.009009156376123428
4.710618495941163,-0.6750602722167969,9.414124488830568,0.0005356942419894041,-0.007137053180485965,-0.008933067321777344
4.70775032043457,-0.7129908204078675,9.419395446777344,-0.0003886107297148556,-0.0061670877039432526,-0.009869067929685118
4.705143928527832,-0.6792689561843872,9.436556816101076,0.0018638803157955408,-0.006951935123652221,-0.010936637409031393
4.721867084503175,-0.6717390418052674,9.437823295593263,0.002234483370557428,-0.005559156648814678,-0.011242055334150793
4.701852798461914,-0.683600664138794,9.434551239013672,0.0006854650564491749,-0.006428352557122707,-0.010930205695331098
4.706948757171632,-0.6666123270988465,9.446526527404787,0.00010696484241634607,-0.004988295491784812,-0.010791951790452003
4.689862728118897,-0.6856756806373597,9.431783676147461,0.0009026005864143372,-0.006258295383304358,-0.01071093510836363
4.6645355224609375,-0.6916853189468384,9.451725959777834,0.0004850397235713899,-0.007450108882039786,-0.011954598128795624
4.6949052810668945,-0.6790041923522949,9.45651149749756,-0.0001769911759765819,-0.010607284493744375,-0.010942837223410606
4.707905292510987,-0.6573313474655151,9.46165657043457,-0.000977860880084336,-0.014186084270477295,-0.01118332799524069
4.725151062011719,-0.6772053837776185,9.426327705383303,-0.0029022814705967903,-0.016201106831431392,-0.010451913811266424
4.704930782318116,-0.6770003437995912,9.422334671020508,-0.0018827507738023996,-0.0158184077590704,-0.012257298454642296
4.721344947814941,-0.6536908149719238,9.446866989135742,-0.004562162328511477,-0.015472318045794966,-0.009011920541524887
4.738072395324707,-0.6930404901504517,9.434545516967773,-0.0028660141397267584,-0.014281049370765686,-0.009755319915711881
4.713650703430176,-0.6723154783248901,9.428337097167969,-0.0028063487261533737,-0.009733905084431173,-0.008353562094271185
4.713235378265382,-0.6972066760063172,9.420550346374513,-0.0014267184305936098,-0.007797536905854941,-0.007706557400524616
4.692490577697754,-0.7237006425857544,9.40153217315674,0.0031694010831415653,-0.005052222870290279,-0.01071686763316393
4.693278789520265,-0.7185927629470825,9.398198127746584,0.0027994434349238873,-0.004901416134089232,-0.011591875925660133
4.692882537841797,-0.6839442253112793,9.468038558959961,0.0041479174979031095,-0.0052123768255114555,-0.0129714235663414
4.70356321334839,-0.6602622270584106,9.460247039794922,0.005190136842429638,-0.008520632050931455,-0.01492801308631897
4.705486774444581,-0.6480447649955751,9.44715690612793,0.0007461959612555803,-0.010435554198920729,-0.013486456125974655
4.684287548065186,-0.6480262875556947,9.411060333251953,-0.0002942210121545941,-0.012747179716825485,-0.012288485653698446
4.670110702514648,-0.6808030605316162,9.429949760437013,-0.0024565749336034064,-0.013703765347599983,-0.012500561773777008
4.711913108825684,-0.6948580145835878,9.430334091186523,-0.0011866189306601884,-0.015912503004074097,-0.011654795147478582
4.708911418914796,-0.6638638973236084,9.412918090820312,-0.001271217130124569,-0.01570458710193634,-0.010928004048764707
4.715497970581055,-0.6644904613494873,9.42839241027832,9.401090210303664e-05,-0.01416317466646433,-0.01211228035390377
4.683161735534668,-0.6973942518234253,9.394891738891602,0.0010737605625763538,-0.014523742720484734,-0.012513963505625725
4.673716068267823,-0.6951779127120972,9.443929672241211,0.0016267801402136686,-0.015749964863061905,-0.013965419493615629
4.702274322509766,-0.6794154644012451,9.422198295593263,0.00040319675463251775,-0.01792814396321774,-0.01674307882785797
4.7359023094177255,-0.6596735715866089,9.424839973449709,0.002148496452718973,-0.01489245053380728,-0.014876050874590874
4.721887588500977,-0.6647028326988221,9.437636375427248,0.0001368050725432113,-0.014847738668322563,-0.011667264625430107
4.72045660018921,-0.6921421885490419,9.414602279663086,0.00040497066220268607,-0.013783653266727926,-0.013650404289364815
4.743064403533936,-0.6635633707046509,9.415971755981445,0.0019177068024873734,-0.010741651058197021,-0.01253261510282755
4.72430181503296,-0.6811565756797792,9.423093795776367,0.00011419059592299163,-0.011051516048610212,-0.009403984993696213
4.720681667327882,-0.6601762771606445,9.443824768066406,0.00012066353519912809,-0.010513919405639173,-0.011150839738547804
4.7039856910705575,-0.6924301981925965,9.440732955932617,0.00059233425417915,-0.011428697034716606,-0.00994036812335253
4.708630561828613,-0.6949253082275391,9.436290740966797,-0.0006848187767900528,-0.012523955665528776,-0.00938340462744236
4.688967704772949,-0.6895771622657777,9.440147399902344,0.0020054238848388195,-0.013847171328961851,-0.010976269841194153
4.696691036224366,-0.6893454790115356,9.403076171875,-0.0007902568322606386,-0.013659100979566574,-0.010558390989899635
4.709731578826905,-0.6617239713668823,9.43251705169678,0.0006053627002984285,-0.014426381327211859,-0.012870226055383682
4.720058441162109,-0.6837128996849061,9.421184539794922,0.0016079533379524946,-0.01276700384914875,-0.01136321108788252
4.713838577270508,-0.6896026134490967,9.419708251953125,0.0019867818336933856,-0.011989776045084,-0.010435811243951322
4.721158027648926,-0.6717957258224487,9.410429000854492,0.002664164174348116,-0.011197381652891638,-0.013160317204892637
4.70817756652832,-0.6723662614822388,9.431842803955078,0.0024069161154329777,-0.01279797498136759,-0.013111934065818787
4.730947017669679,-0.660309135913849,9.431057929992678,0.0009834000375121832,-0.009233282878994942,-0.010489816777408125
4.704875946044922,-0.6848533749580384,9.447094917297365,0.0012947889044880867,-0.00871675554662943,-0.012081088498234749
4.702779293060304,-0.7006977796554565,9.421083450317383,0.004108317662030459,-0.010531138628721237,-0.011726567521691322
4.698749542236328,-0.6607152223587036,9.41623306274414,0.0005949612823314966,-0.011688007041811943,-0.01238354202359915
4.692919254302979,-0.7059699892997743,9.425133705139162,0.002131250686943531,-0.010754616931080818,-0.012231991626322271
4.704035758972168,-0.6701638698577881,9.409709930419922,0.0007344229379668832,-0.013412787578999998,-0.013180414214730263
4.706212043762207,-0.6639468669891357,9.415502548217773,-0.0013220622204244137,-0.01217190455645323,-0.013567277230322363
4.709337711334229,-0.6794816255569458,9.42353916168213,0.0016501838108524682,-0.013767555356025696,-0.01290546450763941
4.721889495849609,-0.6768651008605957,9.442514419555664,-3.551906047505327e-05,-0.014381698332726957,-0.01102333702147007
4.7338972091674805,-0.6465017795562744,9.399451255798342,-0.001652305480092764,-0.012291326187551023,-0.011129001155495644
4.70412302017212,-0.6839758753776551,9.443346977233888,-0.0010303711751475932,-0.012670142576098442,-0.010305086150765419
4.71584415435791,-0.6815804243087769,9.44605827331543,0.0006603538058698177,-0.013655378483235838,-0.011441318318247795
4.699151039123535,-0.6769937872886659,9.457592010498047,0.0012514456175267696,-0.015194371342658997,-0.011005037464201452
4.721024036407472,-0.6776958107948304,9.405009269714357,-0.0016893069259822369,-0.014143261127173902,-0.01292579248547554
4.701571464538574,-0.6779083013534546,9.42861843109131,-0.0005237879813648761,-0.01495438627898693,-0.014025799930095673
4.711352825164796,-0.6989684104919434,9.411091804504396,-0.0004734931280836463,-0.016701763495802883,-0.013671640306711197
4.707674503326417,-0.6711810231208802,9.453628540039062,0.000546708470210433,-0.018045026808977127,-0.014893018640577795
4.724255561828613,-0.6853485703468324,9.437089920043945,0.0016350015066564083,-0.01795306243002415,-0.013460466638207436
4.73221492767334,-0.6563979983329774,9.407286643981935,0.00037810517824254935,-0.01796633005142212,-0.012775415554642677
4.735268592834473,-0.6635578870773315,9.437928199768068,0.00010395892604719847,-0.016209432855248455,-0.011520864441990852
4.718001365661621,-0.6656677126884462,9.407803535461428,-0.0003697597130667419,-0.013942315243184568,-0.011873027309775352
4.723738670349121,-0.6868737936019897,9.418590545654297,0.000743627198971808,-0.012489137239754202,-0.011712023988366127
4.735333442687988,-0.6804709434509277,9.4327392578125,0.002752044703811407,-0.012504930607974531,-0.010886787436902525
4.705737113952637,-0.6680178642272949,9.393991470336914,0.002505021402612329,-0.010433154180645943,-0.01209892798215151
4.699347496032715,-0.6849824786186219,9.413512229919435,0.0017452454194426537,-0.011076206341385841,-0.011988853104412557
4.685585975646973,-0.6809277534484863,9.406861305236818,0.0031269390601664786,-0.010838877409696579,-0.012973652221262457
4.696699142456055,-0.6810365319252015,9.41063976287842,0.0018242617370560767,-0.013663087040185928,-0.014021314680576324
4.726334571838379,-0.6416314244270326,9.401215553283693,0.0028709454927593474,-0.013636339455842972,-0.014355066232383253
4.7116971015930185,-0.6664614677429199,9.418331146240234,0.0017916250508278608,-0.012938844040036201,-0.011103081516921522
4.721953392028809,-0.6671227216720581,9.40627670288086,0.0015439131530001762,-0.012567084282636642,-0.012051156722009184
4.726924896240234,-0.6366894245147705,9.435488700866701,-8.028358570300043e-05,-0.011726264841854574,-0.009645295329391958
4.71766233444214,-0.68387770652771,9.435794830322266,-1.2331584912317341e-05,-0.01052848994731903,-0.010235411114990713
4.7284955978393555,-0.6911057829856874,9.421135902404787,0.0007163213449530305,-0.010497464798390867,-0.010989679023623466
4.721108913421632,-0.6705085039138794,9.431449890136719,-0.0009870167123153808,-0.011041723191738129,-0.010876831598579885
4.711464881896973,-0.6676996946334839,9.39319705963135,-0.0021624059882014994,-0.011038355529308319,-0.010961370542645454
4.711548805236816,-0.6882912516593934,9.425450325012209,0.0008849643636494875,-0.0092782573774457,-0.012116439640522003
4.719741344451905,-0.7203173637390137,9.465365409851076,0.0018638309556990862,-0.010250454768538475,-0.011853368021547796
4.71032476425171,-0.6842093467712402,9.416410446166992,0.003086308017373085,-0.010377333499491216,-0.013683490455150604
4.743683815002441,-0.6556281447410585,9.438835144042969,0.003631876315921545,-0.01007016282528639,-0.013269172050058843
4.719741344451905,-0.6414291858673096,9.405772209167482,0.0014761510537937286,-0.009663136675953865,-0.01044402737170458
4.717020034790039,-0.6843513250350952,9.449927330017092,0.0004966710112057627,-0.006815426517277957,-0.010196767747402191
4.731389522552491,-0.6735576391220093,9.431436538696289,0.0028070048429071903,-0.007995667867362501,-0.011884897947311401
4.738668441772461,-0.6651054024696351,9.431618690490724,0.0029250292573124175,-0.007207805290818214,-0.011105850338935852
4.722075462341309,-0.6753331422805786,9.414188385009766,0.004441412631422282,-0.007713174447417259,-0.011167450807988645
4.715718746185304,-0.6761252880096436,9.42984390258789,0.002759397029876709,-0.00690208375453949,-0.010238769464194776
4.706203460693359,-0.6727309226989746,9.405664443969727,0.003338303649798036,-0.005066799931228161,-0.010711197741329672
4.683886051177979,-0.6821576952934266,9.445323944091797,0.002195828361436725,-0.007410813122987747,-0.011311901733279228
4.7073822021484375,-0.6796927452087402,9.443174362182617,0.001937630935572088,-0.007769263349473476,-0.011852131225168707
4.6919355392456055,-0.6676986217498779,9.449369430541992,0.0017757370369508865,-0.010688832961022856,-0.011656122282147408
4.716423511505128,-0.6487508416175843,9.445199966430664,0.0009309924789704384,-0.011356666684150696,-0.011043063364923002
4.713160037994386,-0.6711289882659912,9.435676574707031,-0.00047305374755524104,-0.010914785787463188,-0.011205503717064857
4.709214210510254,-0.6619116663932801,9.408642768859865,0.0010225739097222688,-0.01075143925845623,-0.012073197402060034
4.709947109222413,-0.6535229682922363,9.453357696533203,0.0003034036199096591,-0.010524894110858442,-0.010470936074852943
4.719427108764648,-0.6589183807373047,9.404092788696289,0.00016825602506287396,-0.008769932202994825,-0.007592309266328812
4.731857776641847,-0.6420364975929261,9.422564506530763,0.00014850421575829387,-0.005249585490673781,-0.009924677200615408
4.69437313079834,-0.7068488597869873,9.419748306274414,-0.0004200610856059939,-0.003618091344833374,-0.007824341766536238
4.681225776672363,-0.6936947107315063,9.431648254394531,0.00010594906780170278,-0.00387577316723764,-0.009518135339021683
4.691662788391113,-0.6795728206634521,9.441715240478516,0.0006661350489594043,-0.005752920173108578,-0.011413025669753553
4.71551275253296,-0.6377643346786499,9.422888755798342,0.001719387248158455,-0.0050287176854908475,-0.010596963576972486
4.682772159576417,-0.660431981086731,9.422472953796388,0.0017940633697435262,-0.003251399379223585,-0.010160061530768873
4.710111618041992,-0.6754565834999086,9.434326171875,-0.00023094647622201594,-0.0053983242250978955,-0.00973580963909626
4.697270870208741,-0.6832112073898315,9.40114974975586,0.0012196155730634928,-0.003988451790064574,-0.010509224608540535
4.694648742675781,-0.6997314691543579,9.415149688720703,0.002101737773045898,-0.005495416931807995,-0.00870959460735321
4.691075325012207,-0.6715287566184999,9.425020217895508,0.0026506218127906322,-0.0053518745116889485,-0.011506227776408195
4.687126159667969,-0.6904662847518921,9.418577194213867,0.004087172448635101,-0.005957737565040588,-0.01244949270039797
4.682628631591797,-0.7034908533096313,9.418472290039062,0.00383233348838985,-0.00863613747060299,-0.013418651185929777
4.688813209533691,-0.6585713624954224,9.414622306823732,0.00286625255830586,-0.011421147733926773,-0.014142300933599472
4.705228805541992,-0.6528055667877197,9.441058158874513,0.0031142160296440125,-0.015079707838594915,-0.01336820237338543
4.729393005371094,-0.645712435245514,9.39449214935303,0.002348494715988636,-0.014956703409552574,-0.012016584165394308
4.700025081634522,-0.6700516939163208,9.40731716156006,0.0032178042456507683,-0.011127569712698461,-0.01206197589635849
4.711777687072754,-0.7311859726905824,9.424556732177734,0.0050052362494170674,-0.009114578366279602,-0.013085395097732544
4.681423187255859,-0.7277857661247255,9.408907890319826,0.007249119225889445,-0.006319114007055759,-0.01533967535942793
4.7191572189331055,-0.7116402387619019,9.441183090209961,0.011341926641762258,-0.007362841162830592,-0.016732394695281982
4.670943260192871,-0.6742359399795532,9.442523956298828,0.008251612074673178,-0.005942502990365028,-0.016710845753550533
4.709575653076172,-0.6429119110107422,9.431909561157227,0.009474142454564573,-0.008729435503482819,-0.016896437853574753
4.691134452819824,-0.6569740772247314,9.451976776123047,0.010610873810946943,-0.008207827806472778,-0.015184073708951475
4.674665927886964,-0.6956905126571655,9.424938201904297,0.008907648734748365,-0.011130969040095808,-0.018451888114213943
4.628356456756593,-0.7099584341049194,9.458575248718263,0.009215609170496466,-0.014149792492389679,-0.022733556106686596
4.683258056640625,-0.6894853711128236,9.443102836608888,0.010151772759854795,-0.01976616680622101,-0.02289227768778801
4.699003219604492,-0.6642129421234131,9.424950599670412,0.011757222004234793,-0.02223099395632744,-0.024725573137402538
4.706635475158691,-0.6288210153579712,9.435891151428224,0.011366902850568296,-0.02249802835285664,-0.02703070640563965
4.685389041900636,-0.6742597222328187,9.43266010284424,0.011772430501878263,-0.022761493921279907,-0.024281280115246776
4.689025402069093,-0.6756902933120728,9.396519660949709,0.011631037108600141,-0.022144746035337448,-0.02529766410589218
4.701800823211671,-0.6845496892929077,9.446570396423342,0.013061887584626676,-0.022391147911548615,-0.027981756255030635
4.756559371948242,-0.624870002269745,9.426567077636719,0.015837281942367554,-0.020871814340353012,-0.027036385610699657
4.741497039794922,-0.6166634559631348,9.454357147216797,0.01500835083425045,-0.01631850935518742,-0.024791933596134186
4.731532096862793,-0.6008930206298828,9.426367759704592,0.01353403925895691,-0.013407020829617979,-0.02191472612321377
4.695464134216309,-0.6337513327598573,9.419316291809084,0.013824121095240118,-0.01083485409617424,-0.02067355997860432
4.691869258880616,-0.6425549387931825,9.377408027648928,0.014169291593134405,-0.011690461076796057,-0.021058354526758194
4.672105312347413,-0.6675357818603516,9.440673828125,0.013487971387803556,-0.011346980929374695,-0.023848278447985653
4.63364315032959,-0.7286909818649292,9.452863693237305,0.017130929976701736,-0.014117167331278326,-0.028418475762009624
4.704049110412598,-0.6799041628837587,9.409861564636232,0.02020894549787045,-0.0180957093834877,-0.03260095790028573
4.726067543029785,-0.636188268661499,9.457964897155763,0.0204139705747366,-0.020258577540516857,-0.033044375479221344
4.7694091796875,-0.5617007613182069,9.419698715209961,0.019336206838488582,-0.018346592783927917,-0.030031325295567516
4.764340400695801,-0.5962502956390381,9.433821678161623,0.016437631100416183,-0.011160873807966711,-0.025184849277138713
4.735007286071777,-0.606776535511017,9.474186897277834,0.015598805621266365,-0.005181937012821437,-0.022409848868846893
4.747650146484375,-0.5515596270561219,9.44881343841553,0.011160418391227722,-0.005463733337819576,-0.019645450636744503
4.730563640594483,-0.5290709733963013,9.426060676574709,0.00921739172190428,-0.005633469671010971,-0.013203500770032408
4.686845302581788,-0.6122090816497803,9.408683776855469,0.0030421107076108456,-0.0016745511675253513,-0.009609035216271879
4.65312147140503,-0.6639442443847656,9.430176734924318,0.002101366873830557,-0.0012830841587856414,-0.012963399291038513
4.679102897644043,-0.6994258761405946,9.433653831481935,0.0071936557069420815,-0.00801786594092846,-0.015542176552116873
4.719973564147949,-0.5738470554351807,9.450992584228516,0.004445500671863556,-0.010975436307489874,-0.01562706008553505
4.711032390594483,-0.6149081587791444,9.433438301086428,0.0013686689781025054,-0.009253857657313347,-0.014352066442370415
4.712360858917237,-0.6055554151535034,9.449810028076172,0.0019385503837838771,-0.008882779628038406,-0.012440455146133901
4.728903770446777,-0.5815666317939759,9.468691825866701,-0.0001697940460871905,-0.007207587361335754,-0.011048885993659498
4.738184928894043,-0.5569591522216797,9.458832740783693,-0.004419725388288498,-0.010673566721379759,-0.008521758019924164
4.754476070404054,-0.6039425134658813,9.442522048950195,-0.004720309749245644,-0.009310283698141577,-0.003497519297525287
4.734772682189941,-0.6257462501525879,9.418111801147461,-0.0055881389416754254,-0.003460305742919445,-0.0036671988200396304
4.676838397979737,-0.70307594537735,9.410263061523438,-0.0011291031260043383,-0.001105050090700388,-0.005248512607067824
4.681722640991211,-0.6947302222251893,9.430281639099123,0.0011067527811974287,-0.0026572516653686766,-0.00989171490073204
4.698080062866211,-0.6129512190818788,9.448704719543459,0.0041752951219677925,-0.0034080313052982096,-0.011152709834277632
4.690553665161133,-0.6264380216598511,9.444420814514162,0.004036388359963894,-0.002853003097698093,-0.0108131542801857
4.668399810791016,-0.6972777843475342,9.446808815002443,0.005337966140359641,-0.00516728824004531,-0.013011064380407333
4.713713645935059,-0.6109100580215454,9.460965156555178,0.0040870034135878095,-0.006202450022101402,-0.014678238891065122
4.71311902999878,-0.5910242795944214,9.445865631103516,0.0020897993817925453,-0.010124071501195432,-0.01419562939554453
4.730573654174805,-0.618057668209076,9.421359062194826,-0.000446533173089847,-0.010416289791464806,-0.011295500211417677
4.716869354248047,-0.6148360967636108,9.415907859802248,-0.0005158571293577552,-0.008119270205497742,-0.012602507136762144
4.716634750366211,-0.635163724422455,9.433937072753906,0.002824380062520504,-0.006252694409340621,-0.012134309858083725
4.706106185913086,-0.6388931274414062,9.4317102432251,0.004233857151120902,-0.004876262508332729,-0.012511558830738068
4.719011306762695,-0.6242039799690248,9.419487953186037,0.006451867055147887,-0.000867997296154499,-0.014419465325772764
4.720911979675293,-0.6319016814231874,9.429014205932617,0.008049016818404198,0.0021200436167418957,-0.013086103834211828
4.683877468109132,-0.6051278710365297,9.447797775268555,0.007621552795171738,0.0016766815679147842,-0.01447119377553463
4.7160749435424805,-0.6263180375099183,9.453125953674318,0.009164028801023962,0.002423859667032957,-0.014830924570560455
4.698549270629883,-0.6344277858734131,9.450403213500977,0.008288176730275154,0.002179986564442516,-0.014208238571882248
4.715686321258546,-0.5754338502883911,9.453344345092773,0.006235206965357066,0.0009740052628330887,-0.013943251222372055
4.69736385345459,-0.5786709785461426,9.472836494445803,0.002477392321452499,-0.0021404181607067585,-0.01111287157982588
4.716030120849609,-0.5891681909561157,9.463695526123047,-0.0005393322207964958,-0.005831466056406498,-0.007378474809229374
4.701678752899171,-0.6119825243949891,9.435600280761719,-0.0011877632932737472,-0.005559366196393967,-0.0064506721682846555
4.6806182861328125,-0.6480840444564819,9.418040275573732,-0.0025945198722183704,-0.006299874745309353,-0.0056200441904366025
4.688226222991944,-0.618365228176117,9.434701919555664,-0.00015510187949985266,-0.005855990108102561,-0.008018333464860916
4.694528102874757,-0.5644098520278931,9.476302146911623,-0.0030509871430695057,-0.008289040066301824,-0.006927519571036101
4.683478355407715,-0.5694079399108887,9.43295669555664,-0.006490844301879406,-0.009726800955832006,-0.004109369590878487
4.677466869354249,-0.6126681566238403,9.422160148620607,-0.008509853854775429,-0.009753614664077759,-0.004252270329743625
4.6513075828552255,-0.6745007038116455,9.432332038879396,-0.00780488271266222,-0.011832001619040968,-0.005315424874424934
4.653246402740479,-0.695418119430542,9.431753158569336,-0.005619692616164684,-0.016390582546591762,-0.009799704886972906
4.701606273651124,-0.6100913286209106,9.445569038391115,-0.005346471909433604,-0.018136169761419296,-0.0114550543949008
4.745401859283448,-0.594221830368042,9.429636001586914,-0.005419536959379912,-0.015623942948877813,-0.007762580178678036
4.708717823028565,-0.6314734220504761,9.413717269897461,-0.004319841507822276,-0.011544447392225266,-0.0060576251707971105
4.707250595092773,-0.6667969822883607,9.42146396636963,-0.0026808446273207664,-0.006518031004816295,-0.009382923133671285
4.717309951782227,-0.6413711309432983,9.430742263793945,0.00041384002543054527,-0.005500137805938721,-0.00917626637965441
4.723519802093507,-0.5848898887634277,9.43532466888428,0.0016708634793758392,-0.005465151742100716,-0.007765315007418395
4.722957134246827,-0.5686491131782533,9.438094139099123,-0.0021802762057632212,-0.0018690803553909063,-0.003553642658516765
4.669284820556641,-0.6578410863876343,9.449796676635742,-0.0018352963961660862,-0.002473942236974836,-0.003220358164981008
4.658208847045898,-0.6657444834709169,9.417946815490724,-0.0014288455713540316,-0.0027408038731664424,-0.005686110816895962
4.665802478790284,-0.6374924778938295,9.450045585632326,-0.0025442871265113354,-0.005937956273555756,-0.009522919543087484
4.659555435180664,-0.6059061884880067,9.479717254638672,-0.003027857514098287,-0.008428314700722694,-0.008549251593649389
4.697849273681641,-0.5936580896377563,9.471338272094727,-0.005729676224291325,-0.012817525304853918,-0.006817782763391734
4.711721897125245,-0.6406973004341127,9.473374366760256,-0.007216976955533028,-0.013264902867376806,-0.005206629633903503
4.69240665435791,-0.6676814556121826,9.427285194396974,-0.008424890227615835,-0.011865763925015928,-0.00576295331120491
4.677626609802246,-0.6886923313140869,9.441586494445803,-0.004056903999298812,-0.010954663157463074,-0.007518938276916743
4.686246871948242,-0.6338397264480591,9.424219131469727,-0.004122473299503326,-0.011246985755860807,-0.009906663559377195
4.6929993629455575,-0.5842523574829102,9.415703773498537,-0.0023477845825254917,-0.00897697824984789,-0.009497212246060371
4.713475227355957,-0.619860053062439,9.402832984924318,-0.0024176756851375103,-0.005741193890571594,-0.006429440807551146
4.671757221221925,-0.6822692155838013,9.425981521606445,0.0005531376227736473,-0.005716329906135798,-0.009197723120450974
4.671823978424073,-0.6669626235961914,9.44956684112549,0.0011753927683457734,-0.007244886830449104,-0.010578006505966187
4.7059063911438,-0.5705070495605469,9.476341247558594,-0.001030818675644696,-0.008615462109446526,-0.010215540416538717
4.704394817352296,-0.6190535426139833,9.442830085754396,-0.0019097443437203767,-0.00874044466763735,-0.0086460430175066
4.678706645965577,-0.6027355194091797,9.427159309387209,-0.0028821565210819244,-0.0075827217660844335,-0.007279927842319012
4.673809528350831,-0.6555523276329042,9.422809600830078,-0.003928914666175842,-0.008176309056580068,-0.008181252516806127
4.668003082275391,-0.6519204974174501,9.470283508300781,-0.003137173131108284,-0.011085500009357931,-0.008873611688613892
4.686902523040772,-0.599983036518097,9.464826583862305,-0.0035302648320794106,-0.011092893779277802,-0.010086112655699255
4.731459140777589,-0.5678635835647583,9.432945251464844,-0.005906308069825172,-0.010511090047657492,-0.005960430949926376
4.720426082611085,-0.6075189709663392,9.426172256469727,-0.007573465816676617,-0.006901248823851348,-0.0042131426744163045
4.661314487457276,-0.6772388219833374,9.438323974609375,-0.007920590229332449,-0.007962260395288467,-0.00112762360367924
4.682761669158936,-0.6550902724266053,9.429902076721193,-0.008602578192949295,-0.008057864382863045,-0.0032420528586953883
4.712604522705078,-0.6080891489982606,9.450916290283203,-0.008515330962836744,-0.008144676685333252,-0.002250352175906301
4.679961204528809,-0.6364311575889589,9.429019927978516,-0.008962768130004408,-0.00618301797658205,0.00015949623775668442
4.662769317626953,-0.6866263747215272,9.465814590454102,-0.009987413883209229,-0.009607643820345403,-0.0020040501840412617
4.7020416259765625,-0.6246180534362793,9.449695587158203,-0.009059067815542221,-0.0070155318826437,-0.0024050243664532904
4.688458919525147,-0.6235706210136415,9.443809509277344,-0.008148702792823316,-0.009803667664527893,-0.003370311809703708
4.70607614517212,-0.6229390501976014,9.451284408569336,-0.009874557144939901,-0.007231488823890686,0.0003819257253780961
4.692389965057374,-0.6702057123184204,9.447224617004396,-0.008830153383314611,-0.0023374739103019238,0.0010161326499655845
4.640226364135742,-0.66232568025589,9.444310188293459,-0.008268419653177261,-0.003350446932017803,-0.0023499222006648783
4.688651084899902,-0.667648732662201,9.417917251586914,-0.007100142538547516,-0.004216643515974284,-0.002789304591715336
4.682219505310059,-0.6400272250175477,9.459539413452148,-0.002705823164433241,-0.0032680991571396594,-0.0034878507722169165
4.7001967430114755,-0.6372820138931274,9.411766052246094,-0.006181991659104824,0.0005824486142955722,-0.0018536136485636234
4.666975498199464,-0.690135419368744,9.473897933959961,-0.005168507341295482,-0.0036726703401654963,-0.0026184101589024067
4.689504623413086,-0.6484757661819458,9.438971519470217,-0.005269522313028575,-0.003212978132069111,-0.003310715546831489
4.676219940185547,-0.5931195020675659,9.465600013732912,-0.005375589244067669,-0.0036618618760257964,-0.0018678285414353015
4.682795047760011,-0.6381142139434814,9.474602699279787,-0.010075969621539116,-0.006361132953315974,0.0008752902504056692
4.687046051025391,-0.6667437553405762,9.443107604980469,-0.009022049605846405,-0.007470150478184223,0.0032921282108873133
4.6533522605896005,-0.6971050500869751,9.418380737304688,-0.008790593594312668,-0.005956046748906375,0.0018588518723845482
4.655076026916504,-0.6689887046813965,9.447469711303711,-0.007366819772869349,-0.008029136806726456,-0.0019070461858063936
4.702609539031983,-0.6687886118888856,9.42874050140381,-0.007581621408462524,-0.007047418970614673,-0.000796717475168407
4.644472599029542,-0.7006328105926514,9.445353507995607,-0.0057670031674206266,-0.0048759360797703275,-2.9775350412819535e-05
4.696986198425293,-0.7165353894233705,9.452930450439453,-0.0030761098023504023,-0.0033755325712263584,-0.0035210947971791033
4.658477306365968,-0.7000210285186768,9.479778289794922,4.2470215703360736e-05,-0.004513165447860957,-0.004729997832328082
4.703874111175538,-0.6395940184593202,9.476163864135742,3.5238670534454286e-05,-0.006753701251000167,-0.005092106759548187
4.782164573669434,-0.5813382863998413,9.458976745605469,-0.0021004630252718925,-0.0050623249262571335,-0.0015721601666882636
4.7685513496398935,-0.6135228276252748,9.467828750610352,0.0015431754291057587,-0.00028674004715867346,0.005823070183396339
4.796338558197022,-0.6972047686576844,9.464616775512695,9.090301318792628e-05,0.00828862376511097,0.009048260748386383
4.8216290473938,-0.5763987302780151,9.481299400329592,0.005597651470452548,0.015379931777715683,0.013612224720418455
4.829872131347656,-0.4443835318088532,9.468102455139162,0.0016802926547825336,0.025369998067617416,0.023361073806881908
4.680068016052246,-0.5134474039077759,9.53199863433838,-0.009382938966155052,0.02842807583510876,0.03570828586816788
4.560586452484132,-0.6334112286567689,9.550703048706055,-0.02246607095003128,0.01706814952194691,0.03714923188090325
4.510174274444581,-0.7380307316780091,9.51003932952881,-0.03275174275040627,-0.009480603039264679,0.02522935159504414
4.6319241523742685,-0.6845827102661133,9.474891662597656,-0.044992242008447654,-0.029490275308489803,0.022611364722251892
4.736969470977784,-0.6739489436149598,9.51185703277588,-0.054976429790258415,-0.031685970723629,0.026758445426821712
4.68282413482666,-0.7232928276062012,9.625049591064453,-0.07378252595663072,-0.04005412012338638,0.033621884882450104
4.788259506225586,-0.8226053118705751,9.623981475830078,-0.0906670093536377,-0.04368061944842339,0.03821276128292084
4.874562740325929,-0.7387861013412476,9.481021881103516,-0.09574002027511597,-0.036154597997665405,0.0557687096297741
4.773917675018311,-0.8287053704261781,9.382969856262209,-0.09185690432786943,-0.009664136916399002,0.06527756899595262
4.740436077117921,-0.9582432508468628,9.405105590820312,-0.08190329372882843,0.01900855638086796,0.056202363222837455
4.8389039039611825,-0.8904842734336854,9.453801155090334,-0.07061662524938585,0.05594593286514282,0.04606026783585549
4.7164306640625,-0.7747311592102051,9.488170623779297,-0.07436906546354295,0.0965109094977379,0.048749350011348724
4.917506694793702,-0.630656361579895,9.468545913696289,-0.09092817455530168,0.13211828470230103,0.0615740679204464
4.694972515106202,-0.7939982414245605,9.313837051391602,-0.09043288230895996,0.1671082526445389,0.07551676779985429
4.763689041137695,-0.9104901552200317,9.420412063598633,-0.07391234487295152,0.1811489462852478,0.07647008448839189
4.574158668518066,-0.9651912450790405,9.225361824035646,-0.045270174741744995,0.20633408427238464,0.06987325102090837
4.1846818923950195,-0.9256098866462709,9.108222961425781,-0.007255184464156628,0.1864477246999741,0.050233565270900726
4.196721076965332,-0.9203484058380127,9.062829017639162,0.0347646214067936,0.1601492166519165,0.026856690645217896
4.228842735290527,-0.9093993902206421,9.077329635620117,0.07795131206512451,0.13982476294040683,0.000536851235665381
4.275110244750977,-0.5820692777633667,9.146108627319336,0.10511228442192078,0.12837249040603638,-0.009684157557785513
4.142213821411133,-0.5156983137130737,9.17672348022461,0.11982767283916473,0.11554677039384843,-0.01618889346718788
4.122123718261719,-1.0502641201019287,9.319253921508789,0.14889591932296753,0.08809841424226762,-0.036972511559724815
4.043235301971436,-1.395273566246033,9.287228584289553,0.1992258578538895,0.050596632063388824,-0.06840699166059495
4.282153606414796,-0.7751787900924683,9.41354274749756,0.2215149998664856,0.021407529711723328,-0.08543916791677476
4.352368354797363,-0.3298718631267548,9.880380630493164,0.19847643375396729,-0.006107926834374667,-0.07848502695560455
4.132566928863526,-0.5140446424484253,9.505959510803224,0.19979766011238098,-0.0017862051026895644,-0.09253650158643724
3.857279539108277,-1.4145386219024658,9.683985710144045,0.2587171792984009,-0.021315136924386028,-0.17313280701637268
5.18660831451416,-1.1693246364593506,9.830599784851076,0.28421974182128906,-0.0130515918135643,-0.20656178891658786
5.1123151779174805,0.05414043366909027,9.768994331359865,0.2315378934144974,0.031841278076171875,-0.14746396243572238
4.517810821533203,-0.1275305449962616,9.595572471618654,0.17083832621574402,0.048269633203744895,-0.098462350666523
4.086308002471925,-0.6297694444656372,9.55250358581543,0.13599327206611633,0.03737017139792443,-0.08623676002025604
4.591994285583496,-0.26446244120597845,9.77367687225342,0.09546525776386261,0.022668633610010147,-0.07843447476625444
4.762057781219483,-0.09915480017662048,9.76530170440674,0.04767567291855813,0.024296849966049194,-0.04102077707648278
4.586298942565918,-0.35539391636848455,9.67028331756592,0.01688734255731106,0.024792633950710297,-0.011332929134368896
4.5360612869262695,-0.5115330219268799,9.633546829223633,0.006068243645131588,0.019649000838398937,0.00038382463390007615
4.539189815521241,-0.4213690757751465,9.650015830993654,-0.006078671198338271,0.018085753545165065,0.009906129911541939
4.436626911163331,-0.324987530708313,9.71942138671875,-0.03485697135329247,0.004972063936293125,0.021030699834227565
4.491517066955566,-0.3034335970878601,9.716012954711914,-0.06230694800615311,-0.011257844977080824,0.029318382963538173
4.474468708038331,-0.3923991918563843,9.691751480102539,-0.08480399101972581,-0.026050478219985962,0.036837410181760795
4.484163761138917,-0.5182072520256044,9.614027976989748,-0.0918341875076294,-0.033345937728881836,0.036412391811609275
4.494640350341797,-0.498582273721695,9.65815544128418,-0.09557671099901201,-0.03884926438331604,0.038908224552869804
4.511436462402344,-0.5862553119659424,9.641333580017092,-0.09931376576423645,-0.04409752413630486,0.03958783671259881
4.501086235046387,-0.6999636292457582,9.600814819335938,-0.08494406938552856,-0.04726007208228112,0.03114807978272438
4.517593860626222,-0.9148449897766113,9.547357559204102,-0.05629369243979455,-0.04496419802308083,0.016174372285604477
4.567788600921632,-0.7488178014755249,9.522642135620117,-0.034647949039936066,-0.035022605210542686,0.005021573044359684
4.581569671630859,-0.5019497275352479,9.557587623596193,-0.02839666046202183,-0.02896534651517868,0.005233382806181908
4.594931602478027,-0.6171839833259584,9.557821273803711,-0.030027717351913452,-0.02101807110011578,0.013004759326577187
4.553047180175781,-0.6158429384231567,9.571741104125977,-0.024661833420395855,-0.014536620117723944,0.015543432906270027
4.538122177124023,-0.5600169301033021,9.577348709106445,-0.02853840403258801,-0.013315131887793541,0.021942986175417904
4.490950107574464,-0.5893295407295228,9.54860019683838,-0.032249432057142265,-0.013494830578565598,0.026742875576019287
4.463138580322266,-0.5907782316207886,9.555595397949219,-0.03706496581435204,-0.017523083835840225,0.029354473575949672
3.968878507614136,-0.7366386651992798,9.286286354064943,-0.05092895030975342,-0.020702529698610306,0.031398717314004905
3.9974355697631836,-1.197820067405701,9.522461891174318,-0.06173726171255112,-0.05747607722878457,-0.00019895262084901333
4.667237281799316,-0.686866044998169,9.588778495788576,-0.052185695618391044,-0.06466180086135864,-0.013694357126951218
4.607695579528809,-0.39596617221832275,9.590151786804201,-0.062438633292913444,-0.058621183037757874,-0.0045154751278460034
4.642917633056641,-0.6737939119338989,9.498655319213867,-0.06497068703174591,-0.05177660286426544,0.00515651097521186
4.619495868682862,-0.8265940546989442,9.466989517211914,-0.03954164311289788,-0.03457687795162201,0.0009959189919754865
4.575682640075684,-0.8004084825515747,9.529282569885256,-0.020139707252383236,-0.02191361039876938,-0.0030848379246890545
4.498863697052003,-0.6663671731948853,9.54135513305664,-0.01755508780479431,-0.020580174401402477,-0.004901084117591381
4.318344593048097,-0.6773349642753602,9.374335289001467,-0.021208614110946655,-0.025840867310762405,-0.006326579023152591
3.789360523223877,-0.7607829570770264,9.446097373962404,-0.042890407145023346,-0.05849202349781991,-0.019536536186933517
4.312635898590089,-0.5422106981277466,9.684847831726076,-0.052889853715896606,-0.1079305484890938,-0.04604300484061242
4.106668949127198,-0.9867253303527832,9.280326843261719,-0.036845739930868156,-0.11850142478942871,-0.06943000108003618
4.072100639343262,-0.7006539106369019,9.648278236389162,-0.04220953211188317,-0.15922848880290988,-0.09867431223392487
4.417798042297363,-0.9983495473861694,9.526980400085451,-0.035974707454442985,-0.1852101981639862,-0.11992286890745164
4.006996631622315,-1.0512819290161133,9.479856491088867,-0.009150858968496323,-0.2031088322401047,-0.1581828445196152
4.441007614135742,-0.6430841684341431,9.726709365844727,-0.012938439846038818,-0.22760851681232455,-0.17813104391098022
4.620368480682374,-0.3852631449699402,9.717759132385256,-0.00753391394391656,-0.2778862416744233,-0.16690349578857422
4.253454208374023,-0.7960792183876039,9.690562248229982,-0.005056917667388916,-0.33133730292320257,-0.16103008389472961
4.435070037841797,-0.40407872200012207,9.92403793334961,0.00763964792713523,-0.413058876991272,-0.17291954159736633
4.38431453704834,-0.3215916156768799,9.718310356140138,0.012989268638193609,-0.4852043390274048,-0.17440493404865268
4.433892726898194,-0.37640804052352905,9.839021682739258,0.04266921803355218,-0.5597565770149232,-0.18458259105682373
4.203736305236816,-0.24676628410816195,9.993222236633303,0.06967587769031525,-0.6820726990699769,-0.17919516563415527
4.354483127593995,-0.3999684154987336,10.109851837158203,0.11006305366754533,-0.8397725820541382,-0.15860959887504578
3.830057859420777,-0.9578694701194764,10.157032966613771,0.2120753526687622,-1.0495725870132449,-0.12415309250354767
4.379077434539796,-0.3517112731933594,10.237600326538086,0.20937795937061313,-1.2811912298202517,-0.07789461314678192
3.741376638412476,-0.7208383679389955,10.468991279602053,0.12608152627944946,-1.4965020418167116,-0.05884165316820145
3.9144797325134277,-0.4978035390377045,10.32461452484131,0.08765283972024919,-1.7769205570220947,-0.05540233850479126
4.423786163330078,-0.0850910097360611,10.257457733154297,0.03073929809033871,-2.0263209342956543,-0.07892946153879167
4.260454654693604,-0.3811560273170471,10.010156631469727,-0.04596453532576562,-2.2660243511199956,-0.08450207114219666
4.899103641510011,0.051400378346443176,10.08343505859375,-0.03610537201166153,-2.51142430305481,-0.11377529799938202
4.951074600219727,-0.494070827960968,9.525068283081055,-0.09699684381484985,-2.7343399524688725,-0.108685739338398
5.730473995208741,-0.9164218306541444,9.986787796020508,-0.08428698033094408,-2.9106931686401367,-0.19472010433673861
5.087637901306152,-1.4712909460067751,9.043219566345217,-0.04256314411759377,-3.0944373607635502,-0.23577317595481873
5.033603191375733,-1.19900119304657,8.69246006011963,0.07585837692022325,-3.394503593444824,-0.3349455296993256
5.432443618774414,-1.6342082023620605,8.574750900268555,0.28314331173896795,-3.6960043907165527,-0.4462994337081909
5.5768189430236825,-2.194525718688965,8.559895515441896,0.6115915775299072,-4.103435993194581,-0.5952309370040894
6.999440670013429,-2.4360599517822266,8.999080657958984,0.8754184246063232,-4.5401716232299805,-0.7241505980491639
8.722256660461428,-2.0370924472808842,10.68417263031006,0.9926053285598755,-4.821319103240968,-0.8054161071777344
12.161478996276857,-2.812549591064453,12.633794784545898,1.0008610486984255,-4.881193161010742,-0.9085496664047241
14.257676124572756,-3.991525650024414,13.280885696411133,1.1676279306411745,-4.7793169021606445,-1.1374806165695193
18.94631576538086,-4.52694034576416,14.878610610961914,1.5670028924942019,-4.681823253631593,-1.4777531623840332
25.679874420166016,-3.126340866088867,15.88197422027588,1.840201020240784,-4.356986045837402,-1.6765886545181277
28.557384490966797,-4.091260433197022,9.305249214172365,2.0283844470977788,-4.074211120605469,-1.7739126682281494
28.959848403930668,-4.167886257171632,2.630913734436035,2.726758241653443,-4.382440567016602,-1.8912509679794314
33.829246520996094,-6.605179786682129,6.552016735076905,3.9538016319274902,-4.32293701171875,-1.6669420003890993
34.69993209838868,-0.3638507425785065,4.453110218048097,4.405521869659425,-3.92111873626709,-0.6412772536277772
50.038421630859375,5.174228668212891,19.26821327209473,2.740669488906861,-3.0117712020874023,0.360140323638916
33.079383850097656,2.736738681793213,17.116863250732422,1.3188753128051758,-1.0380476713180544,0.8923166990280151
22.54182624816895,1.7103704214096072,11.021681785583498,0.3164289593696594,-0.6058516502380371,1.2252429723739626
16.289264678955078,-0.12466943264007568,7.505298614501953,-0.20333056151866916,-0.84758460521698,1.266512989997864
12.680559158325195,-1.6471281051635742,6.471991539001465,-0.24209904670715332,-1.2879601716995241,0.9756265282630922
10.630726814270021,-2.8457691669464116,6.782669544219972,0.2420761734247208,-1.5688915252685547,0.5025374293327333
8.674514770507812,-1.9537851810455322,7.872968673706055,0.8005031943321229,-1.5649784803390505,0.10550150275230408
6.878776073455811,-0.15211842954158786,9.33214855194092,1.0949319601058962,-1.2717461585998535,-0.1676665395498276
5.017593860626222,1.2564522027969363,10.27358913421631,1.0631482601165771,-0.7139275670051576,-0.3524076640605927
2.565593719482422,2.1608033180236816,9.435633659362795,0.813346564769745,-0.0262305848300457,-0.4877184927463532
-1.082000970840454,2.1689157485961914,7.436343193054199,0.5128500461578369,0.5212101936340332,-0.6177362799644471
-4.180058002471925,1.3842228651046755,5.381248950958253,0.30640679597854614,0.8149377703666688,-0.7211984395980835
-5.858887672424316,0.28539696335792547,4.170509338378906,0.27624642848968506,0.9644430279731752,-0.8086205124855043
-5.889374256134034,-0.9522883892059326,3.913395881652832,0.412304162979126,1.1080418825149538,-0.8606811761856079
-5.770377635955811,-1.8129190206527712,4.394473552703858,0.6124909520149232,1.3088449239730837,-0.8421032428741455
-4.844687461853027,-1.9803410768508913,5.650085926055909,0.6701245307922363,1.615774750709534,-0.729625940322876
-4.546779632568359,-2.314605236053467,5.724632740020753,0.5765063166618348,2.0845937728881836,-0.4953289031982422
-6.3074188232421875,-2.814383745193482,3.997323513031006,0.4633833467960358,2.494420051574707,-0.250277727842331
-7.247801303863526,-2.8539245128631596,2.506903409957886,0.32322737574577337,2.6861274242401127,-0.0031160004436969757
-6.996713161468507,-2.5654413700103764,1.7479542493820193,0.13614208996295932,2.81416654586792,0.2895979583263398
-6.4674086570739755,-2.4331259727478027,1.431123971939087,-0.08396124839782715,2.9393451213836674,0.5864416956901551
-5.925919055938722,-2.3513743877410893,1.2871373891830447,-0.2632068395614624,3.083868741989136,0.8821852207183838
-4.984008312225343,-1.9074722528457644,1.5688632726669314,-0.4031491577625275,3.2540619373321538,1.165163516998291
-3.4970903396606445,-1.1135611534118652,1.835015654563904,-0.5397275090217591,3.5180201530456543,1.4244924783706667
-3.602631092071533,-0.583416521549225,0.45016688108444214,-0.6006271839141846,3.7235019207000737,1.6130944490432741
-3.269076347351074,0.4724529683589936,-0.24354256689548495,-0.6223701834678651,3.7427754402160645,1.7062343358993532
-1.8087201118469238,1.9464998245239258,0.17031256854534152,-0.6946097016334535,3.7398054599761967,1.7344725131988525
-0.2682756185531616,3.0247967243194585,0.8199573755264282,-0.7898404002189637,3.771697521209717,1.622082829475403
1.8692671060562136,3.7750804424285893,2.1511275768280034,-0.8827081918716431,3.834694147109986,1.3682509660720827
4.89559030532837,3.8688585758209233,3.73095703125,-0.9421465992927552,3.994138717651367,1.0117064714431765
6.601585865020753,3.6119227409362793,3.5543575286865234,-0.8942812085151673,4.184197902679444,0.5891430377960205
7.430842399597168,3.5001804828643803,2.0981931686401367,-0.7903509736061097,4.200569152832031,0.19739846885204318
8.674334526062013,3.87863564491272,1.1795669794082644,-0.7532592415809632,3.9894423484802246,-0.05255279690027237
10.817557334899904,3.9551920890808105,1.2714689970016482,-0.7922818660736084,3.6900804042816167,-0.1927749514579773
12.349979400634766,3.1965668201446538,0.7747499942779541,-0.7257506251335145,3.370928049087525,-0.2573288679122925
13.128090858459474,2.569907903671265,0.26737400889396673,-0.5562247037887573,2.9413287639617924,-0.2687196135520935
14.735137939453125,1.4961608648300173,1.1116348505020144,-0.3381921052932739,2.417549848556519,-0.15591864287853244
16.291402816772464,1.465410351753235,3.1696853637695312,-0.1392354965209961,2.008198976516724,0.13255497813224792
16.767810821533203,2.141849279403687,4.740783214569093,-0.08550426363945007,1.7729873657226562,0.49490305781364446
16.876312255859375,2.8775289058685307,4.681643009185792,-0.2113345116376877,1.5888898372650146,0.8389113545417787
15.746689796447756,1.366730570793152,2.826731443405152,-0.24287763237953186,1.3017388582229616,1.0453923940658572
13.806852340698242,0.555100679397583,0.8641918301582338,-0.0632048323750496,0.8584572076797485,1.2035335302352907
9.516204833984375,1.507613182067871,-2.6006209850311284,0.04512722045183182,0.2843964695930481,1.3424488306045534
19.830289840698246,11.767579078674318,-4.861015796661378,-0.7091609835624696,-0.7853009700775146,1.529269099235535
63.29101943969727,22.515029907226562,39.484527587890625,-2.840504407882691,0.14968600869178772,1.7741329669952393
1.9193030595779421,10.738759040832521,1.3831205368041992,-1.351436495780945,2.3010854721069336,0.38491722941398626
13.190306663513185,-11.74113178253174,17.557769775390625,-1.450014591217041,1.4070649147033691,1.044147849082947
-8.048068046569826,-4.690086841583253,10.586903572082521,-0.29202282428741455,1.1109455823898318,0.4955374002456665
-0.16597464680671692,-10.468072891235352,12.703706741333008,0.1621593087911606,0.07126462459564209,-0.1156066358089447
3.156434774398804,-10.76951789855957,10.381184577941896,0.4777776598930359,-0.40084406733512884,-0.5484914779663086
7.69559144973755,2.774832248687744,9.45923709869385,0.48710951209068304,-0.3182355463504792,-0.6214550733566284
8.350820541381836,4.527033805847168,8.153966903686523,0.14197044074535373,-0.07251055538654327,-0.34427997469902044
7.583357810974121,3.455620765686035,8.93623161315918,-0.3313472270965576,0.26135250926017767,0.08342728763818742
5.366415977478027,-0.3987482786178589,8.90254306793213,-0.31614965200424194,0.2894547879695893,0.28511083126068115
4.34806776046753,-3.58613133430481,9.091018676757812,-0.18040019273757935,0.22018489241600037,0.20082400739192965
4.419868469238281,-4.214466094970703,8.925283432006836,-0.005802664440125228,0.12901461124420166,0.011487592943012716
4.902905941009522,-0.6444857716560365,9.4803466796875,0.047770529985427856,0.08300381153821947,-0.06569343060255052
5.135564804077148,1.2873046398162842,9.847434997558594,-0.09345148503780365,0.048388939350843437,0.0257866270840168
5.27024793624878,-0.0035444647073745728,9.532852172851562,-0.17292296886444092,0.0006826629396528006,0.14377592504024508
4.91160774230957,-2.068727493286133,9.1615686416626,-0.10475775599479675,-0.035791333764791496,0.1109013557434082
4.806520938873292,-2.4101057052612305,9.174632072448732,-0.005300980061292648,-0.06806377321481706,0.00375244882889092
5.216457366943359,-1.2772909402847292,9.180333137512209,0.025890205055475235,-0.05249710753560067,-0.04165973514318466
5.296319484710694,-0.80131334066391,9.116127014160156,0.008350681513547897,-0.0257410891354084,-0.022328792139887813
5.17895269393921,-0.8951146602630615,9.293393135070803,-0.005790306255221367,-0.029897799715399746,0.003542328719049692
4.974930763244629,-1.2002012729644775,9.295150756835938,-0.0036713920999318366,-0.05026128888130188,0.0070458706468343735
4.9012908935546875,-1.3974558115005495,9.192203521728516,0.010096681304275991,-0.07268880307674408,-0.016732661053538326
4.998609066009522,-0.6933388710021973,9.40060043334961,-0.022074373438954357,-0.12663678824901584,-0.00865035131573677
5.088666915893555,-0.7777254581451416,9.320786476135256,-0.06079044565558434,-0.1685519814491272,0.0067059225402772435
4.902198314666749,-0.9750345945358276,9.281925201416016,-0.07587575167417528,-0.21013274788856506,0.011739812791347504
4.771838188171387,-0.8853941559791566,9.44429111480713,-0.08348027616739274,-0.26798802614212036,0.0005238848389126362
4.881765842437745,-1.0379648208618164,9.334862709045412,-0.09797028452157976,-0.3222204148769379,-0.010250939056277275
5.03261661529541,-1.2740293741226199,9.098827362060547,-0.10406015068292619,-0.34299445152282715,-0.030234148725867275
5.05870246887207,-0.9795931577682495,9.123047828674318,-0.09939194470643999,-0.36598169803619385,-0.036360569298267365
5.1670289039611825,-0.7811272740364076,9.11564350128174,-0.11759228259325029,-0.41083258390426636,-0.03394225612282754
5.072048187255859,-1.0391694307327273,9.103254318237305,-0.12078630179166795,-0.4429421722888947,-0.04528791457414627
4.993957996368409,-1.2772239446640017,9.036547660827638,-0.1145961955189705,-0.46874314546585083,-0.07023078948259355
5.062058925628663,-1.5771833658218386,9.086816787719727,-0.07862633466720581,-0.5087375044822694,-0.10774140805006029
5.384171962738038,-1.65339994430542,8.780833244323732,-0.04042347893118859,-0.5314122438430786,-0.1400103718042374
5.347229480743409,-1.5174344778060915,8.766138076782227,-0.013339813798666,-0.5417395830154419,-0.17229516804218295
5.395730495452882,-1.1925395727157595,8.705160140991211,0.04590435326099396,-0.5667423605918885,-0.20420101284980774
5.255436897277832,-0.9821025729179383,8.622988700866701,0.05204731225967407,-0.5856973528862001,-0.2084814161062241
5.226459026336671,-0.7921533584594727,9.338239669799805,0.01867862045764923,-0.6474205851554872,-0.1860821545124054
4.894742965698242,-1.6307299137115479,9.449277877807617,0.02169972471892834,-0.6847656369209291,-0.19137969613075256
4.844240188598633,-1.9458210468292236,8.68494987487793,0.1390696316957474,-0.8060835599899292,-0.2354197055101395
5.4224915504455575,-1.54891574382782,8.924014091491701,0.18626007437705994,-0.8883498311042787,-0.2932977974414826
5.5473222732543945,-1.5575814247131348,8.898378372192383,0.22800476849079135,-0.9425307512283325,-0.3225822746753693
5.784280300140382,-1.2362747192382812,8.660757064819336,0.25248873233795166,-0.9708478450775146,-0.3506621420383454
6.093195438385011,-0.7793165445327759,8.493810653686523,0.2658376693725586,-0.9920604825019838,-0.34907853603363037
6.2146759033203125,-0.6656632423400879,8.45667362213135,0.25855264067649847,-0.9860076904296875,-0.34565526247024536
6.175230026245117,-0.886931300163269,8.340856552124023,0.2712183892726899,-0.977137565612793,-0.3421948850154877
6.244213581085206,-0.5829456448554994,8.374399185180664,0.2837664484977722,-0.982927680015564,-0.3411782085895539
6.360103607177734,-0.6287951469421387,8.13714122772217,0.2643816769123078,-0.9716389179229736,-0.3379144370555878
6.613677024841309,-0.38693326711654663,8.038607597351076,0.23476973176002502,-0.9792304635047914,-0.3320097625255585
6.462368011474609,-0.25374999642372137,8.171854972839357,0.1936788260936737,-0.9625392556190492,-0.3195075988769531
6.388158798217773,-0.05933085083961487,8.263379096984865,0.19014990329742432,-0.9929810762405396,-0.2715589106082917
6.629417419433594,-0.059392958879470825,8.464135169982912,0.15833123028278354,-1.0220592021942139,-0.2537641823291779
6.518285274505616,-0.8701177835464478,8.073434829711914,0.16727025806903842,-1.0335757732391357,-0.25444328784942627
6.701479911804199,-0.6485962867736816,7.769899368286133,0.18476189672946933,-1.0661897659301758,-0.28181478381156927
6.848490238189698,-0.4157568514347077,7.678729057312012,0.1499606966972351,-1.0677640438079834,-0.2907449305057526
6.755881309509277,-0.8906978964805604,7.54103708267212,0.17198328673839572,-1.051940679550171,-0.3057568967342377
6.696242809295655,-0.6910871267318726,7.8120694160461435,0.19398303329944613,-1.0757319927215576,-0.3226092457771301
6.696620464324952,-0.7818874716758729,7.891498088836671,0.21017083525657654,-1.1119567155838015,-0.35481828451156616
6.700786590576172,-0.5918955206871034,7.538954257965089,0.23501829802989962,-1.175791382789612,-0.38828206062316895
6.851746559143066,-0.3027185797691345,7.83866834640503,0.26022753119468695,-1.2436058521270752,-0.3965712487697602
6.62586545944214,-0.2436070740222931,7.847747802734375,0.2764739096164704,-1.3479905128479004,-0.43420130014419556
6.655858039855957,-0.24477902054786682,7.9422502517700195,0.29102024435997015,-1.5156595706939697,-0.4582387506961823
6.531836986541749,-0.35074907541275024,7.7945451736450195,0.35882431268692017,-1.7133054733276367,-0.4879793226718903
6.962710857391358,-0.005965501070022583,7.493178367614746,0.40989366173744207,-1.9536023139953613,-0.49343076348304754
6.7612624168396005,0.05140702426433563,7.709864616394043,0.4632199704647065,-2.2156982421875,-0.46112531423568726
7.123379707336426,-0.48909515142440796,7.158575057983398,0.5273837447166444,-2.564423084259033,-0.4773441851139069
7.125990867614746,-0.20926423370838168,6.822977066040039,0.6168860197067261,-2.9688735008239746,-0.49946495890617376
6.997952461242676,0.23939345777034762,7.379460334777832,0.700134575366974,-3.4409165382385254,-0.5529471039772035
7.452048301696777,0.43592482805252075,7.218215465545655,0.7470417618751527,-3.922974109649658,-0.5518206357955933
8.170001983642578,0.19926396012306213,7.363083839416504,0.7925117611885072,-4.3163557052612305,-0.5768229365348817
8.824730873107912,1.085620999336243,7.258739948272706,0.8410131931304932,-4.708648681640625,-0.5061631798744203
11.569328308105469,1.1820271015167236,7.316847801208496,0.8467724323272705,-5.197438716888429,-0.20298758149147034
11.570062637329102,1.5343736410140993,7.888665199279785,0.7211111783981323,-5.252197742462159,-0.07439819723367692
13.873574256896974,0.6771684885025024,8.525455474853516,0.4193879961967468,-4.82320261001587,-0.03519362211227417
15.817293167114258,-0.45648491382598877,7.935838222503663,0.11532635241746904,-4.254230976104737,-0.19465208053588867
22.91577911376953,0.44728827476501465,7.4509477615356445,-0.21990190446376803,-3.678241729736328,-0.47173175215721136
26.590028762817386,1.960559368133545,5.563693523406983,-1.1151669025421143,-2.9657189846038823,0.04626401141285897
22.3528003692627,1.518617868423462,5.046476364135742,-2.227963924407959,-2.269842863082886,0.36257314682006836
21.151708602905277,1.3949435949325564,4.149297237396241,-3.4674644470214844,-1.9660634994506836,0.39641007781028753
16.44582557678223,-2.5576002597808842,-4.828162670135499,-3.0819082260131836,-2.2344524860382085,-0.35406774282455444
13.576561927795412,-4.960004329681397,-11.150238037109375,-1.070923447608948,-3.383533477783203,-1.8358972072601318
19.130329132080078,-5.343448162078858,-7.981058597564698,1.1900732517242432,-4.876061916351319,-3.0673723220825195
21.36315155029297,3.008048295974732,-5.923831939697266,2.3262720108032227,-5.643321990966797,-3.555191278457642
33.83622360229493,9.661884307861328,1.7371771335601807,1.6732593774795534,-6.210443496704102,-3.5683996677398686
30.735914230346683,8.287887573242188,8.61297130584717,0.08154391497373582,-5.027015686035156,-3.2544097900390625
24.121936798095703,4.774096012115479,6.588713645935059,-1.4123622179031374,-4.172462463378906,-2.9172909259796147
22.35786628723145,0.3650332987308503,6.695303440093995,-1.991312384605408,-3.638858556747437,-2.9545087814331055
18.246395111083984,-3.0589182376861577,5.77567195892334,-1.8878823518753054,-3.306094169616699,-3.0522139072418217
15.168924331665039,-5.4981231689453125,5.719314098358155,-1.2599055767059326,-3.1425316333770756,-3.107242345809937
12.942440032958984,-6.164215087890625,6.727350234985352,-0.46298512816429144,-2.9617133140563965,-2.975119829177857
10.900135993957521,-5.879028797149659,8.104087829589844,0.19421355426311496,-2.680463075637818,-2.666572093963623
8.521552085876467,-5.382291316986085,9.518059730529787,0.6113176941871644,-2.2922329902648926,-2.265510797500611
6.298754692077637,-4.042564868927003,10.885906219482422,0.7242519855499268,-1.810726046562195,-1.7518254518508913
4.996110916137695,-2.661235094070435,12.445621490478516,0.4863421320915222,-1.1604217290878298,-1.1729927062988281
4.084613323211671,-1.8505924940109255,13.98626232147217,0.030945654958486557,-0.32805395126342773,-0.6518394351005555
3.283041477203369,-2.1028678417205815,14.948073387145998,-0.5008097887039185,0.6161352992057801,-0.23986563086509705
1.9500137567520144,-2.918753147125244,14.918426513671875,-0.8656864166259766,1.555643439292908,0.05293708667159081
0.41021567583084106,-3.6194024085998535,13.984747886657717,-1.0163013935089111,2.375433683395386,0.25485020875930786
-1.547650218009949,-3.6378290653228764,12.363187789916992,-1.0272561311721804,3.0228135585784917,0.4421282410621643
-3.8236129283905034,-3.0585732460021973,10.163320541381836,-1.0271762609481814,3.411637306213379,0.6886597275733949
-5.712591171264648,-2.098904371261597,8.139669418334961,-1.0794838666915896,3.5111637115478516,1.0103278160095215
-6.857056617736816,-1.2183761596679688,7.01511287689209,-1.1919623613357546,3.3823180198669434,1.3396786451339724
-6.471541404724121,-0.24123969674110413,7.168712615966797,-1.365474343299866,3.2032849788665776,1.627335548400879
-5.104150295257569,0.5882611274719238,8.257954597473146,-1.5898079872131348,3.1436750888824467,1.821000337600708
-2.7194266319274902,1.5414717197418213,10.128217697143555,-1.8629361391067507,3.326230525970459,1.9398586750030518
-0.8062396049499512,1.869652509689331,11.209050178527834,-2.0961964130401616,3.7903828620910645,1.9564610719680788
-0.20979562401771545,2.53999662399292,11.289601325988771,-2.230342388153076,4.309876441955566,1.870657801628113
0.05050140246748925,3.694420337677002,10.784583091735842,-2.406867027282715,4.727979183197022,1.7862401008605957
0.7532126903533936,4.489810466766358,10.266858100891115,-2.667741298675537,5.036395549774171,1.7303622961044314
1.8718835115432741,4.539975166320801,10.07068729400635,-2.9107518196105957,5.29666566848755,1.6676068305969238
2.5411584377288823,4.409270763397218,9.68478775024414,-3.0209145545959473,5.525852203369141,1.55910861492157
2.673977136611939,5.030535697937012,9.205767631530763,-3.0626587867736816,5.649907588958741,1.4109318256378174
3.061309814453125,6.414054393768311,9.024200439453125,-3.1676464080810547,5.641478061676026,1.2394827604293825
4.459810733795167,7.438877105712891,9.397067070007326,-3.41342568397522,5.594290733337402,1.0408550500869753
6.298880577087402,7.165653228759766,10.229706764221193,-3.6457798480987553,5.591341495513917,0.7745438814163208
8.11259651184082,6.811180114746094,11.279932975769045,-3.714249610900879,5.634869098663331,0.41929787397384644
9.174193382263185,6.771363258361816,11.699995994567873,-3.689734220504761,5.700638771057129,0.021253928542137146
9.185050964355469,7.33669376373291,11.669839859008789,-3.7145974636077885,5.663805961608887,-0.3093645870685578
9.33681869506836,9.973779678344727,12.0982666015625,-3.943438291549683,5.462625026702882,-0.5322424173355103
11.210121154785156,11.555091857910156,12.796092987060547,-4.450552940368652,5.235523700714112,-0.7748538255691528
13.820435523986818,10.52952289581299,13.063350677490234,-4.907043933868409,5.057413101196289,-1.132215976715088
15.542200088500977,9.37881088256836,12.832061767578125,-5.016719341278077,4.851883888244629,-1.4615517854690554
16.50537109375,9.697916984558107,12.175228118896484,-4.979409694671632,4.526365756988526,-1.6714375019073486
18.195167541503906,10.923837661743164,11.846865653991701,-4.9822187423706055,4.145008563995362,-1.729321002960205
19.314989089965824,12.132561683654787,11.14808750152588,-5.023550987243652,3.7921936511993413,-1.698564410209656
19.812728881835938,12.739123344421388,10.656454086303711,-4.951167106628418,3.480474710464478,-1.7436447143554688
20.108375549316406,14.347336769104006,10.13180446624756,-4.711689472198487,3.221521615982056,-1.9355182647705078
19.490419387817386,17.13393783569336,7.270253658294679,-4.526219367980957,2.946982622146607,-2.1091747283935547
18.560182571411136,17.371013641357422,3.4273734092712402,-4.340014457702637,2.4899713993072514,-2.1614358425140385
18.97971916198731,13.781949043273928,0.5249309539794922,-3.657702922821045,1.9310630559921267,-2.22273588180542
19.643060684204105,10.907533645629883,-1.2658050060272217,-2.424375057220459,1.4004848003387451,-2.327128648757935
20.461908340454105,11.382181167602539,-2.1755259037017827,-1.2664170265197754,0.9882692694664003,-2.384337902069092
19.86758613586426,13.423465728759766,-3.2779185771942143,-0.7681428790092469,0.7402583360671997,-2.268740653991699
15.416972160339357,4.597504615783691,-4.583198547363281,-0.32020097970962524,0.39581134915351873,-1.9494361877441406
13.520825386047365,5.951005458831788,-8.610274314880373,2.842557430267334,-0.8019815683364868,-2.4370734691619877
1.8019207715988161,8.19172477722168,12.056589126586914,2.4722921848297124,-0.5707831382751465,-1.7085853815078738
19.13043022155762,-19.261367797851562,24.553750991821293,1.2644017934799197,-0.770527720451355,-0.7206180095672607
10.2613525390625,-20.090877532958984,16.075653076171875,1.3514299392700195,-0.055722635239362724,-0.8335343599319458
1.9257421493530273,-6.003111839294434,5.113338470458984,1.7706090211868288,-0.7355143427848817,-0.5096614360809326
12.06161117553711,16.547283172607422,15.658924102783203,1.062608599662781,-1.2470636367797852,0.1571309417486191
9.946434974670412,18.864532470703125,16.309417724609375,0.25731405615806585,-0.11190100014209747,-0.2565852403640747
1.5499444007873535,-0.08882298320531846,8.920661926269531,-0.17046403884887695,-0.09935661405324937,-0.29371392726898193
5.163403034210206,-4.9445557594299325,9.596209526062013,0.137896329164505,-0.3856832981109619,-0.26521709561347967
5.676729202270508,1.5827273130416872,9.46152973175049,0.11551428586244585,-0.2882651090621948,-0.030527522787451748
6.14577341079712,3.061062574386597,10.84286403656006,-0.14433398842811584,-0.07212025672197343,-0.03179829940199853
5.235405921936035,-2.23397159576416,9.348037719726562,-0.2719493508338928,0.07049041241407396,-0.011581594124436378
4.061748027801515,-2.6050872802734375,9.453381538391115,-0.20757015049457553,-0.02428948320448399,0.04821694642305374
4.474551200866699,-0.8320885896682739,10.001748085021974,-0.11941028386354448,-0.09372210502624512,-0.004861329216510058
5.628396034240723,-1.109898567199707,9.750880241394045,-0.16684752702713013,-0.08045314997434617,-0.0005517593235708774
5.09763240814209,-1.4897336959838867,9.620880126953125,-0.213681161403656,-0.023437248542904857,0.05822028964757919
4.767036437988281,-1.4607232809066775,9.848541259765625,-0.21146062016487122,-0.0132406335324049,0.06546764820814134
4.802859306335449,-1.6620688438415527,9.66641616821289,-0.18365348875522616,-0.01735229417681694,0.05308737978339196
4.867107391357422,-1.4295158386230469,9.460823059082031,-0.16617561876773837,-0.009479539468884468,0.062159277498722076
4.851841926574707,-1.3815652132034304,9.56381607055664,-0.1662978678941727,-0.001597795868292451,0.07884166389703752
4.932728290557862,-1.0408601760864258,9.821432113647461,-0.1891700476408005,0.015525455586612226,0.09223908185958862
4.7608704566955575,-1.2053929567337038,9.583449363708498,-0.21194283664226535,0.0263642780482769,0.10462789982557298
4.479551792144776,-1.4713449478149414,9.372716903686523,-0.20989567041397095,0.025041794404387478,0.1029154881834984
4.438939571380616,-1.5278079509735107,9.308940887451172,-0.19292649626731873,-0.0012846539029851558,0.09269320964813232
4.378860950469972,-1.5455327033996582,9.212167739868164,-0.18666993081569674,-0.006769246887415648,0.0781330019235611
4.081680774688722,-2.018904209136963,8.975808143615724,-0.16231082379817965,-0.044539839029312134,0.05326901003718377
4.119754791259766,-2.2065062522888184,8.780858993530273,-0.0962916910648346,-0.09692630916833879,0.015122259967029096
4.1997132301330575,-2.182245492935181,8.844557762145998,-0.026171991601586345,-0.1433638036251068,-0.02535357885062695
4.549691677093507,-1.9353913068771365,8.989363670349123,0.020948721095919613,-0.17077805101871493,-0.04850803315639496
4.887866497039796,-1.5077491998672488,9.293388366699219,0.026249429211020473,-0.14387130737304688,-0.04733033850789071
4.893061161041261,-1.4609771966934206,9.24107551574707,0.015402251854538918,-0.09591891616582872,-0.04169287160038949
4.755023479461671,-1.7262936830520632,9.141036987304688,0.019144397228956223,-0.06591653078794481,-0.04722922295331955
4.593841552734375,-1.737534761428833,9.096187591552734,0.030702902004122738,-0.04745450988411904,-0.04672684520483017
4.456891059875488,-1.9026416540145876,9.11580562591553,0.04830073565244675,-0.05240540578961373,-0.05796973407268524
4.5243592262268075,-1.8680289983749392,9.189659118652344,0.07019053399562836,-0.06357000023126604,-0.0725165829062462
4.539641380310059,-1.6545486450195312,9.164135932922365,0.09046474099159241,-0.07099056988954545,-0.08036617934703827
4.491964340209961,-1.5741964578628542,9.246983528137209,0.08694115281105042,-0.08952328562736511,-0.08431630581617357
4.631037235260011,-1.4436509609222412,9.29362201690674,0.1108761578798294,-0.10499689728021623,-0.10099184513092041
4.512963771820069,-1.9491596221923828,9.070214271545412,0.11571628600358964,-0.1141875684261322,-0.10468609631061554
4.667057037353516,-1.9615951776504519,9.37717914581299,0.12484659254550934,-0.13388185203075412,-0.09559744596481323
4.887650966644288,-1.372697114944458,9.654269218444826,0.1011207103729248,-0.11982826888561249,-0.090261809527874
4.906405448913574,-1.1948968172073366,9.670809745788576,0.079095296561718,-0.1211620420217514,-0.08815727382898332
4.83167839050293,-1.0755977630615234,9.545945167541506,0.052546218037605286,-0.11274760216474534,-0.0754496678709984
4.886685848236085,-1.0445361137390137,9.568157196044922,0.016292924061417583,-0.11047175526618958,-0.062245931476354606
4.711525440216065,-1.3197716474533083,9.378095626831055,-0.007196185179054737,-0.11299861967563629,-0.05084656551480294
4.6232056617736825,-1.156266689300537,9.459413528442383,-0.03545190021395684,-0.1295921802520752,-0.038872253149747855
4.624045372009277,-1.3530956506729128,9.37785053253174,-0.061676204204559326,-0.1498735994100571,-0.02928857691586018
4.170972347259522,-1.6554981470108034,9.1463098526001,-0.04299138113856316,-0.18408077955245972,-0.046533089131116874
4.258713245391847,-1.6241658926010134,9.418069839477539,-0.016458634287118912,-0.25718826055526733,-0.07996615022420885
4.827337265014648,-1.5764256715774538,9.358471870422365,-0.019793873652815822,-0.29714012145996094,-0.09730199724435808
4.548648357391358,-1.6538279056549072,9.251503944396974,-0.025329481810331345,-0.31443783640861517,-0.11837685853242876
4.438362121582031,-1.646856188774109,9.441203117370607,-0.023567775264382366,-0.37475353479385376,-0.15557776391506198
4.775067806243897,-1.4597067832946777,9.481014251708984,-0.03929886221885681,-0.4453250765800476,-0.1678237468004227
4.427687168121339,-1.1382968425750732,9.599022865295412,-0.0780051425099373,-0.519701361656189,-0.1853887885808945
4.23712158203125,-0.8225378394126893,9.803991317749023,-0.13284459710121155,-0.6526735424995423,-0.20695434510707858
4.091932773590089,-1.231055498123169,9.65988540649414,-0.16100682318210605,-0.8267685174942017,-0.24965338408946994
3.7777616977691655,-1.1304944753646853,10.06221675872803,-0.20676031708717346,-1.0631017684936523,-0.31162586808204656
3.7859225273132324,-0.6777967214584351,10.214408874511719,-0.3633211553096772,-1.3692371845245361,-0.34210059046745306
3.3325281143188477,-0.5678709149360658,10.217500686645508,-0.5005254149436952,-1.7435424327850342,-0.3088744282722473
2.8616037368774414,-0.16246569156646729,10.60442638397217,-0.6586899161338807,-2.2142467498779297,-0.26907935738563543
2.4584884643554688,-0.4398847818374634,11.217457771301271,-0.8034912943840028,-2.746872186660767,-0.2698364853858948
2.6973319053649902,-1.47247588634491,11.275047302246094,-0.7682787179946899,-3.314982652664185,-0.3588374853134155
2.2792313098907475,-1.7110066413879395,10.926212310791016,-0.6994454860687256,-4.041652202606202,-0.49476215243339544
2.6203024387359624,-2.516479015350342,12.131827354431154,-0.5494465231895448,-5.003631591796875,-0.6532936692237855
1.979675531387329,-3.880270481109619,12.11996078491211,-0.14942729473114014,-6.041756629943848,-0.7205236554145814
2.6415898799896245,-6.34297800064087,12.960692405700685,0.1533029228448868,-7.571856498718262,-1.0126532316207888
5.58659315109253,-3.3167231082916264,16.35491943359375,-0.23822315037250522,-9.220977783203125,-1.3855547904968262
11.967573165893555,-0.7322660088539125,19.6837158203125,-0.664941966533661,-9.936063766479492,-1.37661349773407
20.761236190795902,-3.657140970230103,19.46642875671387,-1.1577123403549197,-9.860396385192873,-1.1310839653015137
27.16806221008301,-4.247384071350098,18.72677230834961,-1.5912342071533203,-9.220765113830568,-1.225916862487793
30.460672378540043,-3.9104993343353276,22.640626907348636,-2.2504630088806152,-8.37713146209717,-1.4325126409530642
24.326622009277344,-6.020442008972168,17.1233081817627,-2.5693740844726562,-7.4580044746398935,-1.7288005352020264
25.028856277465824,-5.589369773864746,19.195499420166016,-3.043240547180176,-6.213357925415039,-1.2944611310958865
22.16791534423828,-5.396160602569581,21.242948532104496,-4.324414253234863,-4.579185962677003,-0.3892630338668823
17.920648574829105,-6.454068660736085,15.191751480102539,-4.352928638458253,-2.1908822059631348,-0.367512583732605
41.84007644653321,-11.465691566467287,28.58367156982422,-2.554860353469849,0.567076563835144,-1.4153162240982058
13.857332229614258,-8.419567108154297,17.73958015441895,-1.610325574874878,3.626248836517334,-1.2466922998428347
3.8226201534271245,-4.650239944458008,7.242657184600831,-1.0963429212570193,4.111081123352051,-1.1339439153671267
1.042382001876831,-1.0509756803512575,2.794952869415283,-0.7071125507354736,4.013741970062257,-1.2652236223220827
0.29497748613357544,2.2262475490570073,1.8926988840103152,-0.8632949590682983,3.7973983287811284,-1.3254332542419434
-0.17471012473106384,3.404902935028076,2.3927979469299316,-1.284397840499878,3.738705635070801,-1.3287543058395388
-0.5278411507606507,2.3290181159973145,2.9626400470733647,-1.5921229124069216,3.878180980682373,-1.3060718774795534
-1.1274057626724245,1.0040587186813357,3.2686986923217773,-1.5832316875457764,4.068715572357179,-1.2537857294082644
-1.5509310960769656,0.3591776490211487,3.2593178749084473,-1.3503143787384033,4.241359233856202,-1.1904587745666504
-1.6203449964523318,0.6967266201972963,2.832810878753662,-1.0873680114746094,4.411891937255859,-1.0506821870803835
-1.8793326616287234,0.9924631714820863,1.8922617435455322,-0.9203172922134399,4.5098614692688,-0.8175736665725708
-2.7466936111450195,1.0113519430160525,0.7663861513137817,-0.8314740657806396,4.49657964706421,-0.5298820137977601
-2.1433031558990483,1.5003294944763184,1.4854632616043093,-0.8264138102531434,4.416409492492676,-0.18340243399143222
-0.6277912855148315,1.9889676570892334,2.499260902404785,-0.8968311548233032,4.491533279418945,0.19912163913249972
0.09189821779727936,2.4475622177124023,2.103549718856812,-0.8932228088378906,4.67248296737671,0.4502211809158325
-0.4264006018638611,2.9111816883087163,0.526089370250702,-0.8552004694938661,4.725552558898926,0.5547863245010376
-0.01988591440021992,3.1277253627777104,-0.12830135226249695,-0.8189986944198608,4.608911991119386,0.5448876619338989
1.4544979333877566,3.137320756912232,0.43533551692962646,-0.7715665102005005,4.527198791503906,0.4653919637203217
2.6425528526306152,3.5342829227447514,0.39909920096397405,-0.7299728989601136,4.513942718505859,0.3661092817783356
3.1043906211853027,3.806602239608765,-0.7703503370285034,-0.721351444721222,4.438126564025879,0.27708786725997925
4.08650016784668,3.788905620574951,-1.8390308618545534,-0.6975818276405336,4.20335578918457,0.2214685827493668
6.555091857910156,4.092602252960206,-1.8307708501815798,-0.6893026232719422,3.873719930648804,0.23363158106803894
9.180438041687013,4.413870334625245,-1.2905118465423584,-0.6771996617317201,3.5508975982666016,0.24709250032901767
12.591912269592287,4.2272748947143555,-0.6226481795310975,-0.6305807828903198,3.2318847179412846,0.2401874512434006
15.683858871459961,3.0289907455444336,-0.6655524373054506,-0.390556275844574,2.8957026004791264,0.18908542394638062
17.36875724792481,2.1670420169830327,-1.1968631744384766,0.0022879291791468863,2.4478075504302983,0.14488676190376282
18.632110595703125,2.012039422988892,-1.1657068729400635,0.4093009531497956,1.8942866325378418,0.17152498662471774
19.74569892883301,2.718164205551148,-0.4612970650196076,0.7066811919212342,1.387101650238037,0.24643605947494507
21.018218994140625,3.8305613994598393,0.10186143964529039,0.7664576172828675,1.053819179534912,0.332438737154007
20.18184852600098,3.8041121959686284,-0.9298214912414551,0.6977108120918275,0.783121168613434,0.38068270683288574
15.414446830749513,3.486569881439209,-5.206327438354492,0.6506328582763672,0.3544155061244965,0.3752933740615845
29.27054023742676,6.931322574615479,-10.730621337890625,0.05772908404469491,-1.3285393714904785,0.8113878965377808
68.8451614379883,27.240823745727543,24.616310119628906,-2.101294279098511,-2.1238956451416016,2.8432919979095463
19.633319854736328,8.17150402069092,14.547170639038086,-0.47004222869873047,1.7254102230072021,0.3971897661685944
-3.25083589553833,-5.707473278045655,8.48903560638428,-1.861499547958374,0.9013478159904481,0.2587919235229492
-1.6578586101531982,-10.164438247680664,13.534790992736818,-0.12938711047172546,-0.025306435301899913,0.35160925984382635
-0.7384981513023378,-1.365835428237915,10.99680805206299,0.6479254961013794,-0.8573543429374696,-0.2553858160972595
4.91784429550171,-9.367715835571289,9.492347717285156,0.6170258522033691,-0.4749521017074585,-0.6898757815361024
8.974336624145508,-1.8988311290740967,9.034530639648438,0.45908647775650024,-0.4423982203006745,-0.7919327020645142
9.026440620422365,6.902637958526612,7.151670932769776,0.468649685382843,0.030017139390110973,-0.6581954360008241
9.12716579437256,3.026826620101929,8.477798461914062,-0.004551153630018234,0.4526332318782807,-0.21111714839935303
6.196549415588379,-0.12844505906105042,9.146473884582521,-0.19712096452713013,0.6797235012054443,0.04923785105347634
4.335359573364258,-2.693112373352051,9.653118133544922,0.05409388989210129,0.5304144024848939,0.059099406003952026
4.0116424560546875,-3.376253128051758,9.64915657043457,0.1587158739566803,0.39070174098014837,-0.12847767770290378
4.768407821655273,-1.1834392547607422,9.533825874328615,0.2606908679008484,0.3191790878772736,-0.2388879954814911
4.898450374603272,1.8972049951553347,10.00746250152588,0.11290480941534044,0.2286944538354874,-0.11527399718761444
4.73799753189087,1.068777084350586,10.169702529907227,-0.08984021842479706,0.12376549094915391,0.07918442785739899
4.591718673706055,-0.7182080149650575,9.813708305358888,-0.12528938055038452,0.01448782440274954,0.131012037396431
4.441164493560792,-1.3406567573547363,9.663154602050781,-0.10237126052379608,-0.06516157835721971,0.07543270289897919
4.818232059478761,-0.7272487282752992,9.468713760375977,-0.09118488430976868,-0.10893163084983826,0.028288645669817928
5.1420254707336435,-0.21933695673942566,9.467098236083984,-0.1008271723985672,-0.11833208054304124,0.03770729899406433
4.912711620330811,-0.4712666869163513,9.543539047241211,-0.13295689225196838,-0.13582567870616916,0.07354561239480974
4.796405315399171,-0.6656288504600526,9.532095909118654,-0.14062052965164185,-0.18637733161449435,0.07966543734073639
4.832505702972413,-0.8292629122734071,9.502556800842287,-0.13934314250946045,-0.2391364574432373,0.0709589794278145
5.030004501342773,-0.7490372061729432,9.38412094116211,-0.14482584595680237,-0.28007027506828314,0.06260769069194794
5.049286365509034,-0.8522101044654847,9.274076461791992,-0.15851286053657532,-0.28923395276069647,0.06053004041314126
5.171482086181641,-1.2415244579315186,9.00719738006592,-0.12577518820762634,-0.2631733119487763,0.0436069592833519
5.155088901519776,-1.2658050060272217,9.006647109985352,-0.09748435765504838,-0.2308437675237656,0.030816227197647095
5.221046447753906,-0.6671212315559388,9.151277542114258,-0.10428814589977264,-0.22801004350185397,0.03833181411027908
5.153817653656007,-0.9650062322616577,9.126461029052734,-0.11725188791751862,-0.20847760140895846,0.031011724844574932
5.220047950744629,-1.069244384765625,9.00428104400635,-0.08680070191621782,-0.17653042078018188,0.019508970901370052
5.123683929443359,-1.2496778964996338,8.998455047607422,-0.0509740673005581,-0.13588695228099826,-0.002428978681564331
5.3541932106018075,-1.2300281524658203,8.85549831390381,-0.01002661604434252,-0.09141932427883148,-0.026468085125088695
5.25572395324707,-1.0451107025146484,8.828914642333984,0.018869278952479366,-0.029848791658878326,-0.03464260697364807
5.311787128448487,-0.826321005821228,9.001592636108398,0.02279697358608246,0.015564705245196821,-0.030626986175775528
5.101593971252441,-0.8384016156196595,8.884429931640625,0.019616330042481426,0.04639143869280816,-0.026900719851255417
4.979842185974121,-0.9981505274772645,9.043363571166992,0.022752273827791214,0.061769131571054466,-0.031727127730846405
4.9788103103637695,-0.8043713569641113,9.03811550140381,0.03640544787049294,0.06623673439025879,-0.04425222426652908
4.86282777786255,-0.9290885329246522,9.065699577331545,0.04416188225150109,0.07705089449882507,-0.05485268309712411
4.616894245147706,-1.1671985387802126,9.034729957580568,0.055644255131483085,0.07017356902360918,-0.07637263834476471
4.4437880516052255,-1.2921065092086794,8.948781013488771,0.06138616055250168,0.04232903942465783,-0.11692860722541809
4.212107181549073,-0.6196600794792176,9.448844909667969,0.04941985756158829,-0.029939291998744014,-0.15962477028369906
3.8712210655212402,-0.49014872312545776,9.888857841491701,0.02956005558371544,-0.1530651301145554,-0.18332195281982422
3.995620965957642,-1.0431089401245117,9.741570472717287,0.01623230986297131,-0.28987219929695135,-0.24041950702667236
4.252915382385254,-1.381829619407654,9.661198616027834,0.05350745096802712,-0.43011873960494995,-0.3289193212985993
4.815898418426515,-0.6225326657295228,9.295015335083008,0.12091412395238878,-0.5706100463867188,-0.36521124839782715
4.871429443359375,-0.18607684969902039,9.47475814819336,0.13744646310806274,-0.6865276694297792,-0.332530677318573
4.462621212005616,0.21681931614875793,10.153233528137209,0.09670776873826982,-0.8471481204032899,-0.2696418762207031
4.43326234817505,-0.9514496326446533,9.85188388824463,0.05826386436820031,-1.0429036617279053,-0.2614600360393525
3.999979019165039,-0.8440483808517456,9.887888908386232,0.04436540603637695,-1.3140276670455935,-0.27592250704765325
4.8445634841918945,-0.09462942183017731,9.762458801269531,0.0038327588699758053,-1.627766251564026,-0.22219988703727722
4.455783367156983,0.6998833417892456,10.016497611999513,-0.12623716890811923,-1.9398733377456667,-0.14320749044418335
5.288959980010987,-0.6888599395751953,11.10322666168213,-0.22137694060802462,-2.2552366256713867,-0.06832774728536607
4.052300930023194,-0.03125357627868652,10.143831253051758,-0.09497416764497758,-2.535433292388916,-0.09136620163917542
5.422460079193116,0.051351308822631836,10.381169319152834,-0.0987309440970421,-2.9035892486572266,-0.13051222264766696
5.251426696777344,0.03238841891288757,10.411670684814453,-0.19185353815555575,-3.1458337306976323,-0.18281307816505432
5.02260684967041,-0.6503351330757142,9.862927436828615,-0.216602697968483,-3.5195956230163574,-0.2473847717046738
3.7018783092498784,-0.7087401151657104,8.934505462646484,-0.03430664539337158,-3.9981687068939213,-0.36621406674385076
5.027924060821534,-0.4755181074142456,9.290424346923828,0.28515210747718817,-4.871047019958496,-0.44798502326011663
7.750517368316651,-0.3226176202297211,11.336222648620607,0.4103765785694123,-5.537249088287354,-0.3326371908187866
13.08115863800049,-0.9993076324462891,14.565971374511719,0.19472840428352356,-5.818809986114503,-0.08561234176158905
17.456224441528324,-2.869110107421875,15.610923767089844,-0.08844384551048279,-5.47216558456421,0.18075563013553622
25.333858489990234,-4.614105224609375,14.913619041442873,0.26788562536239624,-5.160356998443604,-0.1644701063632965
30.97992706298828,-4.697575569152832,8.650348663330078,0.6705686450004579,-4.693314075469972,-0.5151172876358032
32.454174041748054,-5.484925270080566,3.184330940246582,1.1573737859725954,-4.662118911743164,-0.9927929043769838
34.38206863403321,-4.898870468139648,3.157577276229859,2.0497846603393555,-4.465860843658448,-1.2829755544662478
31.064373016357422,-0.18347646296024325,2.599683523178101,2.389708280563355,-4.2074432373046875,-1.3809460401535036
45.810321807861335,3.8840270042419434,14.608291625976562,1.4329825639724734,-3.9499256610870366,-1.3007454872131348
34.89405059814453,1.7806291580200195,18.122018814086918,0.2964214980602265,-2.0225934982299805,-1.1820226907730105
25.033920288085938,0.5838927030563354,13.775647163391115,-0.8825469017028809,-1.276936173439026,-0.9330555796623231
19.654239654541016,-1.9011106491088867,11.641990661621094,-1.5185264348983767,-0.9392625093460083,-1.016801953315735
13.071621894836428,-5.46053171157837,8.981526374816896,-1.5102549791336062,-0.9179664254188539,-1.2052197456359863
9.551780700683594,-7.947824001312257,8.139717102050781,-0.7752597332000732,-1.1021224260330202,-1.43031644821167
7.953315734863281,-7.4208269119262695,9.60116195678711,0.18729437887668612,-1.1907827854156494,-1.5452404022216797
6.522346496582031,-4.586540699005128,11.726756095886232,0.8431720137596131,-0.9393576383590698,-1.519761919975281
3.5815808773040776,-1.9025644063949587,11.82536029815674,0.9413393139839173,-0.42356321215629583,-1.4350535869598389
-0.873668909072876,-0.8984082937240601,9.89770030975342,0.7608367800712587,0.06172299385070801,-1.3976696729660036
-4.838438987731934,-0.8191733956336976,7.562116622924805,0.48469957709312445,0.3372165560722351,-1.40275239944458
-7.0364837646484375,-1.4863779544830322,6.668736457824707,0.2448922246694565,0.452187716960907,-1.3921934366226199
-6.4348464012146005,-2.3357827663421635,7.129150390625,0.08572328835725786,0.6236667037010194,-1.303358793258667
-6.016479015350343,-3.5530576705932617,7.462375640869141,0.1188189834356308,0.9579790234565736,-1.152085542678833
-7.639031410217285,-4.141698360443116,6.685773849487305,0.27814674377441406,1.3175836801528933,-0.982612431049347
-8.688077926635742,-3.635087490081787,6.018202781677246,0.29956215620040894,1.5436605215072634,-0.7906560897827148
-8.3382043838501,-2.875375270843506,5.8089261054992685,0.09618518501520158,1.768820643424988,-0.5118805170059204
-8.557234764099123,-2.994369268417359,5.26130485534668,-0.1779245883226395,2.002167224884033,-0.19846574962139132
-8.528079032897951,-3.2869031429290776,4.613245010375977,-0.39742255210876465,2.241921186447144,0.12765528261661532
-8.639920234680178,-3.347466468811035,3.71011757850647,-0.47755452990531927,2.4615869522094727,0.43099179863929754
-7.8514466285705575,-2.6542701721191406,3.619003534317017,-0.5411001443862915,2.6645145416259766,0.7186909317970277
-6.137542247772218,-1.3322436809539795,4.10033941268921,-0.6972067952156068,2.943779468536377,0.9727286696434022
-5.101135730743409,-0.8752628564834595,3.6261820793151855,-0.8613949418067933,3.28556489944458,1.159604787826538
-4.828903675079347,-0.551438868045807,2.4245519638061523,-0.936877191066742,3.528550148010254,1.2772721052169802
-2.8356354236602788,0.8999471068382264,3.041218519210816,-1.0467354059219363,3.698189973831177,1.3671579360961914
-0.40434151887893677,2.2032084465026855,3.6220335960388184,-1.2532476186752322,4.002734184265137,1.426411271095276
0.4655341804027558,2.9878261089324956,2.5760130882263184,-1.3875226974487305,4.251402378082276,1.349804759025574
1.490081787109375,3.5161795616149902,1.320998191833496,-1.4226598739624023,4.286653995513917,1.129873514175415
3.9575312137603764,3.219289064407349,1.589568853378296,-1.344022274017334,4.189380645751953,0.8148956894874574
6.848061084747315,3.8617353439331055,2.367663145065308,-1.211195707321167,4.114164829254151,0.48569679260253906
9.341787338256836,3.7220938205719,2.419037342071533,-1.1238009929656982,4.052794933319093,0.1971530765295029
11.666785240173342,2.373025178909302,2.2301003932952885,-0.963846266269684,3.9090137481689453,0.014173478819429876
13.770419120788576,1.802196979522705,2.2627525329589844,-0.7389763593673706,3.6841578483581543,0.019509593024849895
15.570286750793459,2.0080370903015137,2.2304222583770756,-0.5922781229019165,3.4106748104095463,0.18190830945968628
16.964315414428714,1.2875059843063357,2.0488569736480717,-0.4902351796627045,3.089815616607666,0.4604949355125427
17.2606372833252,1.058626651763916,1.8385705947875977,-0.3323302567005158,2.779858112335205,0.7877123951911927
17.18724822998047,1.4832804203033447,1.248633623123169,-0.20195209980010986,2.4409122467041016,1.0684953927993777
16.540313720703125,1.659107804298401,0.16806413233280185,-0.10937701910734178,2.0391530990600586,1.3060384988784792
17.167238235473636,5.031233787536621,-2.4554972648620605,-0.13965243101119995,1.4580093622207644,1.4526175260543825
60.49590301513672,16.97634506225586,0.17153674364089966,-2.344360828399658,-0.003811154747381807,2.27557373046875
40.093841552734375,33.9754638671875,6.222679138183594,0.009607658721506597,1.3147534132003786,0.5723239183425903
16.325973510742188,-1.5800639390945437,12.650140762329102,-2.0269372463226323,1.5497400760650635,0.48887655138969427
-1.8369982242584229,-3.9428300857543945,10.745063781738281,-1.7918188571929932,1.4736987352371218,1.348133206367493
-5.889487266540527,3.5621414184570312,13.823143005371094,-0.5803936719894409,0.9436210989952089,0.6970741748809814
3.9172623157501225,-12.512777328491211,12.570200920104982,-0.08255829662084581,0.265796571969986,-0.48235636949539185
3.6684865951538086,-15.037991523742678,8.366500854492188,0.16894711554050448,-0.024930547922849655,-0.10539675503969194
3.5316255092620854,0.7509775757789613,10.750263214111328,0.440703958272934,-0.20412853360176086,-0.5347985029220581
6.647345542907715,-0.9813312292098999,8.542269706726076,0.550100862979889,0.016329046338796616,-0.7685528397560121
7.769012451171875,4.870600700378418,9.341876029968263,0.27990108728408813,0.17104288935661316,-0.46648129820823675
6.719256401062012,2.8721182346344,9.211006164550781,-0.007560453843325377,0.2825029492378235,-0.09274364262819292
5.753162384033203,-0.47440922260284424,8.885814666748047,-0.08328215777873993,0.31775847077369695,0.10278164595365526
4.864075183868409,-3.0624756813049316,8.856007575988771,-0.06062910705804825,0.32778808474540716,0.06062846630811691
4.22353219985962,-1.6683000326156618,9.655780792236328,-0.003564308863133192,0.260003924369812,-0.023488579317927364
4.798187732696534,0.44812285900115967,10.027183532714844,-0.05414318665862084,0.15900754928588867,-0.018928380683064464
4.9784512519836435,0.5365047454833984,9.86032485961914,-0.1505124270915985,0.07542075961828233,0.09462784975767137
4.918399810791016,-0.8298164010047914,9.620532035827638,-0.16979052126407626,0.02253706008195877,0.14183352887630465
4.736687183380128,-0.9928055405616761,9.611762046813967,-0.1545688807964325,-0.04312843829393387,0.12599708139896396
4.98734188079834,-0.6499003767967225,9.476420402526857,-0.17980547249317172,-0.0874757170677185,0.12766663730144504
5.075539112091065,-0.6627072095870972,9.394584655761719,-0.21455152332782748,-0.11036273837089539,0.1427960991859436
5.135236740112305,-0.7588967084884644,9.319875717163086,-0.2242430001497269,-0.1383415162563324,0.1604452878236771
5.0803327560424805,-0.9248148798942567,9.33408832550049,-0.2230164110660553,-0.16142404079437256,0.18048109114170077
5.067390441894531,-0.7382625937461854,9.447978973388672,-0.24216067790985107,-0.19636501371860507,0.21146222949028015
5.020114421844483,-0.9509595036506654,9.358693122863771,-0.26307049393653875,-0.2345694899559021,0.2233455777168274
5.032944202423097,-0.9950628876686097,9.344722747802734,-0.2767011225223542,-0.2667585015296936,0.21291644871234897
5.102118492126465,-0.9728171825408936,9.303524017333984,-0.2726959884166718,-0.28981700539588934,0.21028518676757812
5.062348365783691,-0.8591850996017456,9.272371292114258,-0.27027708292007446,-0.3061125576496125,0.20866087079048157
5.0873308181762695,-0.7769171595573426,9.316122055053711,-0.28426495194435125,-0.3187827467918396,0.19829082489013672
5.064318180084229,-0.9665716886520386,9.19353771209717,-0.3024753630161286,-0.3399919271469116,0.18225674331188205
4.995013713836671,-1.345278024673462,9.157729148864748,-0.31229653954505926,-0.34698608517646795,0.166337251663208
5.104289531707765,-1.7597180604934695,8.950798034667969,-0.2889975309371948,-0.3380292356014252,0.13918864727020264
5.037825107574464,-1.6789655685424805,8.931826591491701,-0.23986761271953586,-0.3240373730659485,0.1164805144071579
5.316321849822999,-1.0692107677459717,9.00691318511963,-0.22439789772033691,-0.2990556657314301,0.09987016022205353
5.2602248191833505,-1.3145414590835574,8.773335456848146,-0.21453198790550232,-0.25634074211120605,0.08903463929891588
5.263416767120362,-1.640225887298584,8.595430374145508,-0.1942807137966156,-0.21263946592807773,0.08167900145053864
5.315621852874757,-1.7278008460998535,8.607608795166016,-0.15787591040134433,-0.17286786437034607,0.06939968466758728
5.123006343841554,-2.1177773475646973,8.591140747070312,-0.10515829920768738,-0.13293020427227023,0.034873828291893005
5.287164688110352,-1.9840128421783447,8.595458030700685,-0.05430325493216515,-0.10302855819463731,-0.0017369070556014776
5.402490615844727,-1.4922819137573242,8.819231033325195,-0.026332864537835125,-0.06661498546600342,-0.012587294913828375
5.37923288345337,-1.614502787590027,8.633837699890138,-0.0037913725245743994,-0.023434270173311234,-0.02013814076781273
5.140279293060304,-1.8993217945098877,8.562080383300781,0.01900400221347809,0.006030095275491477,-0.03981868177652359
5.228704452514648,-1.397913932800293,8.93202877044678,0.0491829589009285,-0.0016614648047834635,-0.06810536235570909
5.220324993133546,-0.9689356088638306,9.053646087646484,0.028230011463165283,-0.016431296244263652,-0.06536155939102173
4.764146327972413,-1.2223973274230957,8.971321105957031,0.0012765928404405715,-0.051817089319229126,-0.057956762611866
4.3662567138671875,-1.3914000988006592,9.159908294677734,0.033387806266546256,-0.1346648633480072,-0.09404637664556505
4.655286312103272,-1.688136696815491,9.266864776611328,0.06425800919532776,-0.2422502040863037,-0.1465297490358353
4.830960273742676,-1.7976937294006348,9.161347389221193,0.07545065134763719,-0.3313499093055725,-0.21485458314418796
5.27347469329834,-0.9047456979751587,9.351830482482912,0.058190733194351196,-0.4142120182514191,-0.24415610730648044
5.486431598663331,-0.40264937281608587,9.420367240905763,-0.02040843293070793,-0.47851946949958807,-0.18779730796813965
4.954901695251465,-1.1829246282577517,9.16813373565674,-0.049894675612449646,-0.5588487386703491,-0.1660728603601456
5.178205966949464,-1.1594845056533816,9.260729789733888,-0.03524978831410409,-0.6931126117706299,-0.17998720705509189
5.199472904205323,-0.7470282316207886,9.43399429321289,-0.09792793542146684,-0.8260643482208252,-0.17075610160827637
4.746452331542969,-0.48444855213165283,9.671326637268068,-0.21519505977630615,-0.9848391413688661,-0.14099973440170288
4.469391822814941,-0.9785648584365845,9.87905025482178,-0.2563415765762329,-1.2340705394744873,-0.11086563020944597
4.167720317840577,-1.624434471130371,9.910646438598633,-0.2661207914352417,-1.5067344903945925,-0.132958322763443
4.28315544128418,-2.0212433338165288,9.259649276733398,-0.12315427511930467,-1.764702558517456,-0.1934162974357605
5.14943552017212,-1.1716989278793337,9.754876136779787,-0.06462329626083374,-2.039176225662232,-0.26712989807128906
5.417301177978516,-1.700129508972168,9.294073104858398,-0.02383928745985031,-2.2448558807373047,-0.3195184767246247
5.67085886001587,-1.4367215633392334,8.790667533874513,0.015027630142867567,-2.497364044189453,-0.36691460013389593
5.87812614440918,-0.6932958364486694,9.10137462615967,0.06298983097076416,-2.7338354587554936,-0.4028229415416718
5.946883201599121,-1.1314221620559695,8.394886970520021,0.14654849469661715,-3.0501255989074707,-0.4286468327045441
5.714391231536866,-0.7642220258712769,8.145201683044435,0.20150752365589145,-3.4250509738922124,-0.42374759912490845
6.008569717407227,-0.6873533129692079,8.463622093200685,0.2130032181739807,-3.817245244979859,-0.37320566177368164
7.216150760650636,-0.25166594982147217,8.656183242797852,0.21016374230384827,-4.175524234771729,-0.2409881502389908
8.44542980194092,-1.7448115348815918,9.480653762817383,0.2079485058784485,-4.329796314239503,-0.10501839220523834
10.273280143737795,-1.5359114408493044,10.175806999206545,0.0871555730700493,-4.446061611175538,0.07479734718799591
12.477858543395998,-1.1894006729125977,11.221654891967773,-0.1818831413984299,-4.32634162902832,0.20564670860767367
13.992359161376953,-1.8188996315002441,11.185005187988281,-0.32670274376869207,-4.122154235839844,0.2262221872806549
18.898813247680668,-2.5884408950805664,12.252015113830568,-0.30572798848152166,-3.804412364959717,0.0674099698662758
20.298107147216797,-2.664307117462158,10.09112548828125,-0.4096214771270752,-3.4727931022644043,-0.19817481935024264
23.547332763671875,-3.8687469959259038,4.570422649383546,-0.538655161857605,-3.495970487594605,-0.5438991785049438
25.61749267578125,-4.313658714294434,-1.6992576122283936,-0.14461448788642883,-3.789596319198609,-1.0824319124221804
29.31719779968262,-4.4035964012146005,-0.6563013792037964,0.5989761352539062,-4.061657428741456,-1.6338467597961426
29.650455474853516,-4.445199489593507,-0.49095109105110174,1.4711586236953738,-3.9032356739044194,-2.125542163848877
36.77703857421875,-1.7194179296493532,4.44895076751709,2.0267491340637207,-4.170508861541749,-2.5944318771362305
39.91588211059571,0.945474922657013,15.819373130798342,1.6725518703460693,-3.010175466537476,-2.6558363437652592
28.69144058227539,1.3786723613739014,13.283245086669922,0.6219639778137207,-1.9634424448013308,-2.382291793823242
25.4509449005127,0.816943109035492,13.4674768447876,-0.46260967850685125,-1.346879839897156,-2.1882357597351074
19.013492584228516,-1.505614995956421,12.012655258178711,-1.2548800706863406,-0.8395494222640991,-2.0609862804412846
14.607633590698242,-4.808882236480714,10.801350593566896,-1.5989372730255127,-0.6414417624473573,-1.9931710958480837
10.740306854248047,-8.633769035339357,9.757079124450685,-1.1029063463211062,-0.5409132242202759,-1.972168564796448
7.436882972717285,-9.667925834655763,9.366448402404787,-0.07728296518325806,-0.4574849605560303,-1.8691378831863406
5.564047813415527,-7.25434684753418,10.505185127258303,0.9047276377677919,-0.2669448256492615,-1.7119530439376833
4.772030830383301,-4.026998043060304,12.227537155151367,1.2041217088699343,0.17751526832580566,-1.4290735721588135
2.685123920440674,-2.3929235935211186,12.779521942138672,1.087311625480652,0.8011579513549805,-1.1223107576370241
0.3762770891189575,-2.758411407470703,12.124077796936037,0.8069602847099305,1.4538310766220095,-0.8129147291183472
-2.5613734722137456,-3.8906586170196538,9.976891517639162,0.7415507435798646,2.060549736022949,-0.5904294848442079
-6.617043972015382,-3.8855910301208496,6.863507270812988,0.8925387859344482,2.389755487442017,-0.5251446366310121
-9.4927453994751,-3.011858224868775,4.321268558502198,0.9431639909744263,2.360759019851685,-0.4677768349647522
-10.34882926940918,-2.1277534961700444,3.250893831253052,0.7975673675537109,2.1831865310668945,-0.32175287604331976
-9.712082862854006,-1.9891415834426882,3.8470084667205815,0.5046954154968262,2.0614607334136967,-0.12704697251319885
-8.356059074401857,-2.259259939193726,5.037084579467773,0.15523278713226318,2.1762373447418217,0.12596298754215243
-7.722577571868897,-2.638448715209961,5.437709808349609,-0.11085814237594604,2.485993623733521,0.41278529167175293
-8.430516242980959,-2.6063086986541752,4.0406250953674325,-0.25266033411026,2.81827449798584,0.6780425906181337
-9.48087787628174,-1.305570721626282,1.9242432117462158,-0.3538033068180085,2.98933744430542,0.8492026925086976
-8.849042892456055,-0.008777624927461149,0.754155158996582,-0.5994656682014466,2.9900474548339844,0.9204784631729126
-6.893062591552734,0.0423102080821991,0.9323065280914307,-0.8706609010696411,3.007283449172974,0.9161787033081055
-5.194962024688722,-0.436728835105896,1.326411247253418,-0.9941931962966919,3.1380810737609863,0.8772003054618837
-3.533479690551758,0.6816353201866151,1.9064695835113525,-1.10282301902771,3.3745591640472417,0.89073646068573
-1.7020084857940674,1.8204628229141238,1.7081000804901123,-1.3367269039154053,3.665467500686646,0.9367529749870301
0.06844814121723175,1.3981498479843142,0.6398231983184814,-1.4889285564422607,3.8836457729339604,0.9591878652572632
1.548152804374695,1.7211394309997559,-0.28495815396308904,-1.4195653200149538,3.9618675708770756,0.9651401042938232
4.078655719757081,3.6331017017364506,-0.0705292671918869,-1.3632855415344238,3.945107221603394,0.9432555437088013
7.841038703918457,3.6259176731109624,0.4252835512161255,-1.4392476081848145,3.968331098556519,0.8752754330635072
10.602115631103516,2.7649354934692383,0.20967409014701843,-1.3034555912017822,3.9388964176177983,0.7610040903091431
12.733732223510742,1.9962888956069949,-0.30047443509101873,-0.9677789807319642,3.7862684726715092,0.6539005041122437
14.585029602050781,1.902922034263611,-0.24263861775398254,-0.6164387464523315,3.5466568470001225,0.63850998878479
15.221447944641115,2.1716830730438237,-0.23909620940685275,-0.37203043699264526,3.277854204177857,0.7076180577278138
15.380772590637209,2.963564872741699,-0.7480997443199159,-0.2774686515331269,2.946125030517578,0.830490529537201
14.912189483642578,2.5809872150421147,-1.7270244359970095,-0.25591909885406494,2.5528974533081055,0.9363879561424256
25.744304656982422,8.137331962585451,-6.577485084533691,-0.6457646489143373,1.8474950790405273,1.0884557962417605
105.5175247192383,17.292491912841797,16.39820098876953,-2.209211826324463,0.4122909605503083,2.4930450916290288
10.352676391601562,26.40042495727539,-11.947370529174805,0.7385640144348145,3.297383546829224,-0.03026162087917328
16.94431877136231,-11.967541694641115,16.813463211059574,-1.9339667558670046,2.6362864971160893,0.9728101491928101
-9.503215789794922,5.003101825714112,11.532366752624513,-0.7438385486602783,2.6078965663909917,1.088329553604126
-5.7044692039489755,-3.3845989704132085,11.842708587646484,0.33442604541778564,1.9128173589706423,-0.49615457653999334
6.693712711334229,-17.558490753173828,13.054265022277834,0.6333605051040649,1.5225745439529421,-0.7097408771514893
0.4853927493095398,-3.5061635971069336,11.935173034667969,0.5747526288032533,0.80858713388443,-0.2903445363044739
1.7486340999603271,1.9373725652694704,10.600936889648438,0.5306840538978578,0.41016149520874023,-0.789766013622284
4.586209297180176,1.5415784120559695,10.487124443054201,0.3246447145938874,0.27146923542022705,-0.7048635482788086
6.2566328048706055,3.284834384918213,9.69420051574707,0.16349133849143982,0.14186196029186252,-0.38517487049102783
6.790103435516358,2.337208509445191,8.804689407348633,0.04593357443809509,0.12544381618499756,-0.012875595130026342
6.361737728118897,-1.2418584823608398,8.156603813171388,-0.008766326121985914,0.30642080307006836,0.07277896255254747
5.476781368255616,-2.330183982849121,8.509413719177248,0.038124702870845795,0.48426994681358343,-0.05522140488028527
4.428750514984132,-0.06655484437942505,9.684529304504396,0.03848951309919357,0.5163897871971131,-0.09234802424907684
3.886183261871338,1.2404474020004275,10.403195381164553,-0.08108130097389221,0.4149831533432007,0.01975086145102978
3.925846338272095,0.42050600051879883,10.193221092224123,-0.14776657521724704,0.2553778886795044,0.14880017936229709
3.9177918434143066,-0.2751043438911438,10.085250854492188,-0.13851499557495117,0.09808937460184099,0.16920180618762973
3.82260537147522,-0.5286257266998291,10.108998298645021,-0.14225842058658603,-0.041465260088443756,0.14357127249240878
4.178801536560059,-0.8046672344207764,9.894487380981445,-0.15201793611049655,-0.14788933098316195,0.1129787415266037
4.414926052093507,-0.6144634485244751,9.739169120788576,-0.1562633961439133,-0.21724548935890198,0.08474931865930559
4.740949630737305,-0.42225193977355957,9.460083961486818,-0.15043558180332187,-0.2522351145744324,0.07711614668369293
4.683122634887695,-0.3454550206661225,9.415430068969727,-0.15899528563022616,-0.27223092317581177,0.08395007997751237
4.840502738952637,-0.3994508087635041,9.678909301757812,-0.18217130005359652,-0.3145609796047211,0.10268126428127289
4.654005527496339,-0.43679252266883856,9.558434486389162,-0.2076139748096466,-0.35728964209556585,0.12035998702049255
4.692287445068359,-0.9137975573539735,9.413480758666992,-0.1986154019832611,-0.3901087939739228,0.10397035628557207
4.76142168045044,-0.8363723754882812,9.389824867248537,-0.18818001449108127,-0.41248470544815063,0.09297465533018114
4.6324920654296875,-0.5657444000244141,9.44532871246338,-0.1926047056913376,-0.45030817389488226,0.08403909206390381
4.6474409103393555,-0.644140660762787,9.416875839233398,-0.19283252954483032,-0.48927161097526556,0.06925402581691742
4.756938934326172,-0.7294065356254579,9.46312141418457,-0.18517136573791504,-0.5265871882438661,0.05425794795155526
4.8742828369140625,-0.8116456270217896,9.34533214569092,-0.16796374320983887,-0.5570941567420961,0.047449201345443726
4.929530620574952,-0.8031977415084839,9.239031791687013,-0.16052387654781344,-0.5765985846519471,0.03491857647895813
5.275275230407715,-1.0282253026962282,9.150822639465334,-0.16672335565090182,-0.565923810005188,0.013977761380374433
5.2037320137023935,-1.228978753089905,8.838354110717773,-0.11007703095674516,-0.5500233173370361,0.0004754224792122841
5.060067176818848,-0.5303813219070435,9.193118095397951,-0.13386945426464084,-0.5322675704956055,0.0031148393172770743
5.169281482696534,-0.29193115234375,9.279563903808594,-0.1300555169582367,-0.5600080490112305,0.01880607940256596
5.4029951095581055,-1.3126049041748047,8.850345611572266,-0.11151006817817688,-0.5342513918876649,0.0019106799736618996
5.613450050354004,-1.0847880840301514,8.603342056274414,-0.061001040041446686,-0.47957721352577215,-0.005441831890493632
5.545104026794434,-0.9402490854263306,8.540761947631836,-0.05967646837234497,-0.4178894460201264,-0.017011821269989014
5.602231025695801,-0.6632184386253358,8.528377532958984,-0.05543989688158035,-0.3710038661956787,-0.01850119419395924
5.613687038421632,-0.9474637508392334,8.6238489151001,-0.06865046173334123,-0.33445340394973755,-0.011686687357723715
4.987223148345948,-1.1630651950836182,8.917438507080078,-0.05819663405418396,-0.31897702813148504,-0.03547183796763421
5.232553482055664,-1.4150308370590212,8.846299171447756,-0.010249036364257337,-0.33503395318984985,-0.0826445296406746
5.169461250305176,-1.605442762374878,8.856428146362305,0.03368746489286423,-0.35184693336486816,-0.13508944213390353
5.323083400726319,-1.3169150352478027,8.836491584777834,0.06202979758381844,-0.3782094120979309,-0.20092023909091952
5.515425205230714,-0.8379392623901367,8.788975715637209,0.08180813491344452,-0.3995399177074433,-0.2200361639261246
5.5044050216674805,-0.14915074408054355,9.010001182556154,0.05594304576516152,-0.4342181086540222,-0.19298605620861056
5.042802810668945,-0.32697242498397827,9.295135498046875,0.03901171684265137,-0.4999217987060547,-0.17898605763912204
4.774778842926026,-0.5811485648155214,9.602896690368654,0.05671613663434982,-0.6335331797599794,-0.17800992727279663
4.414809226989746,-1.0143131017684939,9.743998527526857,0.10974204540252686,-0.8337032198905946,-0.19604600965976718
4.768278598785401,-0.7735855579376221,9.617267608642578,0.16007234156131747,-1.0603737831115723,-0.20902977883815768
5.235019207000733,-0.7063025236129761,9.271136283874513,0.19617615640163424,-1.2449334859848025,-0.1935504972934723
5.3415632247924805,0.14690642058849337,9.845479965209961,0.16587495803833008,-1.4455648660659792,-0.14243409037590027
5.055129051208496,-0.1840657889842987,9.585114479064943,0.10232853144407274,-1.665407419204712,-0.08659026026725769
5.237688064575195,0.07219839096069336,10.026180267333984,0.03195617720484734,-1.9457695484161377,-0.07200778275728227
5.390022277832031,-0.6668196320533754,9.870608329772951,-0.013132525607943535,-2.1580324172973633,-0.12114181369543077
5.774825096130371,-0.9964267611503602,9.685518264770508,-0.10024061799049377,-2.414528131484986,-0.19665947556495667
5.492641448974609,-2.502878189086914,9.437782287597656,0.0082180118188262,-2.6341094970703125,-0.31055665016174316
4.902114391326905,-1.1406655311584473,8.734832763671875,0.13267099857330322,-3.0110871791839604,-0.40440499782562256
5.350963592529297,-1.3003870248794558,8.647979736328125,0.31743961572647095,-3.448507308959961,-0.5374527573585511
5.938852310180664,-0.5463818311691284,9.330852508544922,0.5218473076820375,-3.988879680633545,-0.5573406815528871
7.036259651184082,-1.3948769569396973,9.738306045532227,0.6502747535705566,-4.429192066192628,-0.5740975737571717
8.585116386413576,-1.5368430614471436,10.153691291809084,0.6821779012680054,-4.760215282440186,-0.5514025688171387
10.990018844604492,-1.5749917030334473,11.496845245361328,0.6591130495071411,-4.961389541625977,-0.5072742104530336
12.797060012817383,-2.474861383438111,12.113012313842773,0.7911940813064575,-4.894630908966065,-0.6086461544036865
17.450103759765625,-2.534182548522949,13.257775306701662,1.0514183044433594,-4.822125911712647,-0.7105939984321595
22.787172317504886,-2.1768198013305664,13.97539806365967,1.1630145311355593,-4.48817253112793,-0.8596031069755555
27.20147514343262,-3.330304861068726,11.898913383483888,1.137605905532837,-3.9131264686584473,-0.9143570065498353
27.525981903076172,-4.783281326293945,6.253662109375,1.549018979072571,-3.5819144248962402,-1.1916977167129519
29.540145874023438,-4.782109260559082,4.123752117156983,2.550885915756226,-3.2115230560302734,-1.4066860675811768
28.947889328002933,-1.0783051252365115,1.770663380622864,3.2377123832702637,-2.719302892684937,-1.3162293434143066
39.88256072998047,6.868829727172852,9.898045539855959,2.070467948913574,-2.57936429977417,-0.9440640807151796
35.47228240966797,4.649801254272461,18.078449249267578,0.4509556591510773,-1.0105974674224854,-0.6181113123893739
21.052448272705078,4.143877983093262,10.992408752441406,-0.9621340036392212,-0.17308758199214938,-0.36216345429420477
17.256437301635746,1.8087128400802615,8.09122085571289,-1.9507678747177126,-0.19259360432624817,-0.41705980896949774
13.294876098632812,-0.43857398629188543,6.46970272064209,-2.397129535675049,-0.4208524227142334,-0.5716316103935243
12.0617151260376,-3.563066720962525,6.989872932434082,-2.2724571228027344,-0.6316868662834169,-0.8506214618682861
11.806516647338867,-6.482548713684082,8.883565902709961,-1.5297846794128418,-0.5513373017311097,-1.1233650445938113
9.910964012145998,-6.690455436706543,10.09713649749756,-0.48373866081237793,-0.2225040048360825,-1.2238926887512207
6.33654546737671,-4.4960389137268075,10.056620597839357,0.41500899195671087,0.19533924758434298,-1.2059917449951172
2.455170154571533,-1.722379803657532,9.454472541809084,0.7517550587654115,0.4965461492538452,-1.0883318185806277
-0.5809736251831055,0.0805676281452179,8.35450553894043,0.5287691950798036,0.7111132144927979,-0.9041699171066284
-2.7531542778015137,0.09327198565006256,7.403224945068359,0.1575524061918259,0.878840446472168,-0.72080796957016
-3.4671497344970703,-1.3650020360946657,7.121214389801026,-0.021010132506489757,1.1244281530380251,-0.5378776788711548
-4.667247772216797,-2.5342979431152344,6.420011043548585,0.07623010873794556,1.405330538749695,-0.40019363164901733
-6.62304449081421,-2.4435451030731206,5.362779140472413,0.3050657212734223,1.6379899978637695,-0.2772095203399658
-7.562975883483887,-1.8042157888412478,4.406285762786866,0.3955110609531403,1.7643437385559082,-0.09442076832056047
-7.405301094055176,-1.6734839677810671,4.424117088317871,0.3072635233402253,1.8590053319931032,0.13361313939094543
-6.684877872467042,-2.2383041381835938,4.8460187911987305,0.17517687380313876,2.054145336151123,0.3831214606761933
-6.483384132385254,-2.634670972824097,4.844771385192871,0.11991190910339355,2.350308179855347,0.6361719965934755
-6.945725917816163,-2.2015581130981445,3.744672536849976,0.09588633477687836,2.6555693149566655,0.850899338722229
-7.490739345550538,-1.4562369585037234,2.5046527385711674,0.022480398416519165,2.8283166885375977,1.002535700798035
-6.928442001342773,-0.8906301259994507,2.113791704177857,-0.14222723245620728,2.9564893245697026,1.113724708557129
-5.79178524017334,-0.660856068134308,2.386855840682984,-0.30834111571311956,3.106654644012451,1.1922447681427002
-4.442215442657472,-0.27167147397994995,2.4676122665405273,-0.4452360272407532,3.33031439781189,1.254594326019287
-3.4290754795074467,0.22165262699127197,1.950108885765076,-0.5484278798103334,3.564681768417359,1.287386178970337
-2.5367033481597905,0.926537275314331,1.5071202516555788,-0.6557116508483887,3.7133314609527592,1.2780652046203613
-0.7484511733055116,1.8800063133239746,1.8146193027496338,-0.792789101600647,3.835760831832886,1.2523068189620974
1.6035807132720947,3.195080280303955,2.3147668838500977,-0.9436162114143373,3.968259811401367,1.1436358690261843
4.141496658325195,3.097509622573853,2.097769260406494,-1.0403293371200564,4.108326435089112,0.8935979604721069
6.291486740112305,2.098547697067261,1.5154366493225098,-0.9178855419158936,4.135636806488038,0.5633604526519775
8.489583015441896,2.1697013378143315,1.2770555019378662,-0.7051459550857544,4.039215564727784,0.2963831722736359
10.891010284423828,2.979800939559937,0.877418041229248,-0.6380046606063843,3.8774974346160893,0.16733700037002563
13.36013412475586,2.2980151176452637,-0.2101017385721207,-0.6667566299438477,3.611905574798584,0.12800963222980502
14.955384254455568,0.9501572251319886,-1.9268738031387331,-0.5375208258628846,3.2070040702819824,0.17606498301029208
14.71071529388428,0.667427957057953,-3.7865548133850098,-0.29426461458206177,2.631571531295777,0.30215844511985784
12.90496826171875,0.349270910024643,-5.486783981323242,-0.12628938257694247,1.973637342453003,0.537495791912079
9.474998474121094,-0.32028716802597046,-7.757782459259034,-0.01694115251302719,1.2412843704223633,0.9012667536735536
23.63912391662598,8.196050643920898,-20.740467071533203,-0.5990580320358276,-0.3078624308109284,1.5337793827056885
116.23907470703125,36.46422958374024,56.04169082641602,-1.8104332685470583,0.19288015365600586,2.7937331199645996
-2.0614244937896733,14.140273094177248,-21.889171600341797,-0.5280786752700806,3.644685506820679,-0.21125930547714233
13.447073936462404,-1.8038132190704346,24.306924819946293,-1.715959429740906,2.725040197372437,1.427208662033081
-17.969661712646484,-2.561198472976685,13.53753185272217,-0.07359609752893449,2.045102119445801,0.1071145460009575
-0.3007367253303528,-18.02232170104981,13.103321075439453,0.33633995056152344,0.671038329601288,-0.32630506157875067
0.48364633321762085,-10.461701393127443,12.404404640197756,0.7007925510406494,-0.21577863395214084,-0.8448612689971924
6.519150257110597,1.1604727506637575,9.037052154541016,0.8092336058616639,-0.37714371085166937,-1.0980501174926758
9.513641357421875,3.514109373092652,6.545687675476074,0.6276331543922425,-0.030415523797273636,-0.8513121008872987
8.457526206970217,4.919351577758789,8.013134956359865,0.2666720747947693,0.43649539351463323,-0.3899397552013398
5.812060832977296,3.226372241973877,9.564925193786623,-0.11162282526493073,0.7085323929786683,0.02311965450644493
4.481892108917237,-0.6857636570930482,9.468356132507326,-0.11804334819316864,0.5951824188232422,0.1867717951536179
4.20368766784668,-3.1564784049987793,9.450010299682617,0.04310622438788415,0.4499629735946655,0.061210300773382194
4.436907768249512,-0.4594791531562805,9.696710586547852,0.157381609082222,0.35385435819625854,-0.06261488795280457
4.557900428771973,2.256162166595459,10.173254013061523,0.01155087910592556,0.2835564315319062,0.044553808867931366
4.573567867279054,1.2898505926132204,10.098635673522951,-0.19701698422431946,0.22204256057739258,0.23107860982418063
4.14742374420166,-0.2389238923788071,10.041317939758303,-0.26987686753273016,0.12453533709049225,0.29114910960197454
3.8482518196105957,-0.6786627173423768,10.013272285461428,-0.2375837415456772,-0.014447808265686035,0.2315487265586853
4.1445069313049325,-0.205634206533432,9.956723213195803,-0.2175661772489548,-0.14609813690185547,0.19677759706974032
4.708028793334961,0.014652475714683533,9.516033172607422,-0.2620889246463776,-0.22029830515384677,0.19667217135429382
5.05503797531128,-0.055216118693351746,9.34827995300293,-0.2941868603229523,-0.21939605474472046,0.22803328931331637
5.131906509399414,-0.3777583837509155,9.271442413330078,-0.3080424666404724,-0.21093834936618808,0.23551939427852633
4.928246021270753,-0.6988780498504639,9.28353500366211,-0.2858759462833405,-0.19450107216835022,0.2317115515470505
4.8166565895080575,-1.1082265377044678,9.342718124389648,-0.2650898396968842,-0.19280304014682773,0.2266157567501068
