AccX,AccY,AccZ,GyrX,GyrY,GyrZ
8.32920050015673e-05,-2.760483948804904e-05,0.00020070000027772042,5.7400296071818964e-08,-7.288537062777323e-08,-1.6943799607815893e-07
4.034150123596191,-1.338062882423401,9.697559356689453,0.005426454823464156,-0.006598238367587329,-0.008748026564717293
4.044799327850343,-1.3208514451980593,9.706786155700685,0.005726423580199481,-0.00447439681738615,-0.008019181899726393
4.033902645111085,-1.3221222162246706,9.742663383483888,0.004153339192271233,-0.004817749839276076,-0.010759537108242513
4.037813186645508,-1.2961387634277344,9.707632064819336,0.004107828252017498,-0.002999298041686416,-0.008374039083719254
4.051440715789796,-1.3034340143203738,9.718879699707031,0.004616467282176018,-0.0032604974694550037,-0.0096409572288394
4.05169439315796,-1.3198243379592898,9.705428123474123,0.006657147314399482,-0.002963289152830839,-0.008935433812439443
4.034956932067871,-1.31510865688324,9.72278690338135,0.010093456134200096,-0.0012726340210065248,-0.008180922828614713
4.04713010787964,-1.307042956352234,9.721402168273928,0.0084370831027627,-0.0007003486389294267,-0.0095133138820529
4.028559684753418,-1.3145956993103027,9.70863437652588,0.009778874926269056,-0.001362266135402024,-0.011264709755778313
4.007504463195801,-1.3134126663208008,9.71801280975342,0.009124107658863068,-0.001772852963767946,-0.011699030175805092
4.032663822174073,-1.3129258155822754,9.703542709350586,0.009917075745761396,-0.0017217854037880898,-0.010221770033240318
4.027004241943359,-1.3023872375488281,9.690529823303224,0.008502742275595665,-0.0033724622335284953,-0.011748140677809715
4.02287483215332,-1.283128023147583,9.720351219177248,0.007107392419129611,-0.004850265104323626,-0.011894922703504562
4.017494201660156,-1.2777470350265505,9.736437797546388,0.005993909202516079,-0.006081110332161189,-0.010540198534727097
4.029694080352784,-1.2918283939361572,9.728181838989258,0.0026582833379507065,-0.00757365906611085,-0.011066631413996221
4.027053356170655,-1.3024301528930664,9.719282150268555,0.0034786099568009377,-0.007424067240208388,-0.012137413024902344
4.01888132095337,-1.3141965866088867,9.706679344177248,0.0022207950241863728,-0.009112408384680748,-0.011983483098447325
4.037667274475098,-1.2583755254745486,9.730560302734375,0.00278584286570549,-0.01034363452345133,-0.011284055188298225
4.025819778442383,-1.310145378112793,9.716122627258303,0.004548961762338878,-0.0069852471351623535,-0.012032372877001762
4.037527084350586,-1.3031090497970583,9.694231033325195,0.0030932242516428237,-0.007904229685664177,-0.01130353379994631
4.059586048126222,-1.274996638298035,9.702203750610352,0.0018328843871131542,-0.0062384731136262426,-0.009951332584023476
4.033856868743897,-1.2812063694000244,9.68360710144043,0.002162484219297767,-0.005732295103371143,-0.009082137607038023
4.025024890899659,-1.2892918586730957,9.708627700805664,0.0015927128260955217,-0.0057726651430130005,-0.008413517847657204
4.03425407409668,-1.3077037334442139,9.708089828491211,-0.0006327247247099876,-0.006668010260909797,-0.006942795589566231
4.027523040771484,-1.297544240951538,9.723149299621584,0.0004239504341967404,-0.007083149626851082,-0.007699816022068263
4.006012439727784,-1.3068825006484988,9.724380493164062,-0.0011577446712180974,-0.0077009042724967,-0.006552090402692557
4.02818489074707,-1.3011773824691775,9.70619010925293,-0.0017322154017165305,-0.0072539327666163445,-0.00869349017739296
4.01695442199707,-1.327332377433777,9.697846412658693,-0.0008243512129411101,-0.0072629409842193135,-0.008552763611078262
4.025942802429199,-1.3187761306762695,9.713987350463867,0.0007930980063974857,-0.008972670882940292,-0.00929082650691271
4.009645938873292,-1.2794185876846316,9.687345504760742,-0.0006307189469225706,-0.009409472346305847,-0.008521537296473982
4.042572975158691,-1.292327642440796,9.731959342956545,-0.0015232089208438995,-0.009504735469818115,-0.00820961408317089
4.033251285552979,-1.2996448278427126,9.728300094604492,-0.0032144498545676474,-0.008881038054823875,-0.008992954157292845
4.034162521362305,-1.3203556537628174,9.695178985595703,-7.943534728838132e-05,-0.007472668308764697,-0.009509526193141937
4.024492740631104,-1.3132734298706055,9.683489799499513,-0.001241808873601258,-0.007919307798147202,-0.010052450932562353
3.9991414546966557,-1.302305579185486,9.71434211730957,-0.000662022561300546,-0.010206429287791252,-0.011637579649686813
4.036282539367676,-1.294402837753296,9.720534324645998,-0.002397279487922788,-0.013641003519296646,-0.009643387980759146
4.012324333190918,-1.3267527818679812,9.714334487915039,-0.0009600140037946404,-0.010998885147273542,-0.011539719998836517
4.019162178039551,-1.306504726409912,9.714056968688967,-0.0005463543348014355,-0.012392868287861349,-0.01125636138021946
4.040739536285401,-1.26762592792511,9.726363182067873,-0.0005708773387596011,-0.01486471574753523,-0.012129819951951505
4.026694297790527,-1.2831754684448242,9.72813129425049,-0.0036514697130769496,-0.01179640181362629,-0.00990497972816229
4.0298357009887695,-1.3051424026489258,9.724732398986818,-0.004348394926637412,-0.011323138140141966,-0.0111442431807518
4.038588523864746,-1.3388811349868777,9.706169128417969,-0.0002337344485567883,-0.010736152529716492,-0.009353012777864935
4.039936065673828,-1.2834599018096924,9.69129753112793,0.0005297077004797758,-0.008878739550709724,-0.010072430595755577
4.0044617652893075,-1.2949520349502566,9.678874969482422,-0.001597104477696121,-0.008790193125605583,-0.008010392077267172
4.037159442901612,-1.3201397657394411,9.726425170898438,-0.0021756298374384646,-0.010109023191034796,-0.008209222927689552
4.011247634887695,-1.3070765733718874,9.688520431518555,-0.0002920699189417064,-0.010546845383942129,-0.00930752418935299
3.995403051376343,-1.3196561336517334,9.701234817504883,-0.0006600620108656586,-0.011272039264440536,-0.008946020156145096
4.024389266967773,-1.3223026990890505,9.71475124359131,1.5846489986870438e-05,-0.013468096964061262,-0.009664034470915794
4.018993854522706,-1.309223532676697,9.711249351501467,-0.00011265853390796111,-0.012566207908093931,-0.011415671557188034
4.012413501739503,-1.3085074424743652,9.713178634643555,-0.0010210614418610933,-0.013871364295482635,-0.013346510939300062
4.024827003479004,-1.2942258119583132,9.690473556518555,-0.0016204273561015727,-0.01434093527495861,-0.011715671047568321
4.039273738861085,-1.3011590242385866,9.689014434814453,-0.0023276829160749912,-0.011943423189222814,-0.012259459123015404
4.01314640045166,-1.3282223939895632,9.719761848449709,0.0011556728277355433,-0.014127746224403381,-0.012125178240239622
4.002420902252198,-1.3127403259277344,9.684851646423342,-2.3819122361601334e-05,-0.015029499307274818,-0.011668876744806768
4.036335468292237,-1.2809255123138428,9.714639663696289,-0.0025985408574342728,-0.015952995046973232,-0.013396346010267736
4.050334930419922,-1.2797794342041016,9.705525398254396,-0.003084923373535276,-0.016249924898147583,-0.010623154230415823
4.026079654693604,-1.3278257846832275,9.71559238433838,-0.003982713911682368,-0.01576652564108372,-0.010856498032808304
4.0208539962768555,-1.3511630296707156,9.71187973022461,-0.0028918106108903885,-0.014882233925163748,-0.0109724011272192
4.017035961151124,-1.3090251684188845,9.695967674255373,-0.003064940683543682,-0.015250525437295439,-0.012290569953620436
4.043381214141847,-1.299945592880249,9.730797767639162,-0.0037985008675605063,-0.01479196548461914,-0.013293295167386534
4.025513172149659,-1.2862464189529421,9.717788696289062,-0.0040659341029822835,-0.015375724993646147,-0.010788394138216972
4.020695686340332,-1.3472923040390017,9.712108612060547,-0.004273700527846813,-0.016768390312790874,-0.011210180819034576
4.030230998992921,-1.3374723196029665,9.71253299713135,-0.004357880447059871,-0.016265980899333954,-0.011003511026501656
4.035429000854492,-1.3363254070281982,9.701325416564943,-0.0013766811462119224,-0.01392924040555954,-0.013354321010410787
4.045526504516602,-1.2925947904586794,9.706489562988281,-0.00012570485705509782,-0.01614551991224289,-0.013318997807800772
4.054852485656738,-1.3123760223388672,9.714010238647461,-0.00020842865342274308,-0.016175264492630962,-0.011975955218076706
4.0566911697387695,-1.2903568744659424,9.690675735473633,0.0005352640873752535,-0.012726034969091415,-0.01251818984746933
4.024843215942383,-1.2892253398895264,9.680644989013672,-0.000549681077245623,-0.012510018423199654,-0.011702801100909712
4.0231947898864755,-1.3219020366668701,9.708292961120607,0.000734213914256543,-0.014400840736925604,-0.01245390996336937
4.045750617980957,-1.3193960189819336,9.718300819396974,-0.0013200960820540788,-0.01296996884047985,-0.0121068237349391
4.065949440002441,-1.2986087799072266,9.729188919067383,-0.0005099644185975194,-0.009967896156013014,-0.012624622322618963
4.061485767364503,-1.2808486223220827,9.712454795837404,0.0010918283369392157,-0.011039924807846548,-0.008661363273859024
4.028839111328125,-1.330141305923462,9.71499252319336,0.0023438390344381332,-0.00871770828962326,-0.009087284095585348
4.025434494018555,-1.3062433004379275,9.68441677093506,0.000716996320988983,-0.008448000997304916,-0.009687173180282118
4.021390914916992,-1.2742135524749756,9.712588310241701,0.0008898189989849925,-0.012134372256696226,-0.010623310692608358
4.031314373016358,-1.3367185592651367,9.714336395263672,0.00024253569426946342,-0.010920847766101362,-0.011764990165829659
4.038775444030762,-1.3243139982223513,9.714622497558594,0.003417247207835317,-0.010121223516762258,-0.013530878350138664
4.038918018341065,-1.3181027173995974,9.730846405029297,0.003243091981858015,-0.011561636812984945,-0.013015948235988617
4.044403076171875,-1.299878239631653,9.705141067504883,0.00362325762398541,-0.009231751784682274,-0.012226847931742668
4.050281047821046,-1.3422347307205202,9.715002059936523,0.005124499555677176,-0.008820155635476112,-0.012113736011087896
4.0535736083984375,-1.2941788434982302,9.718053817749023,0.007104657590389252,-0.007856063544750214,-0.01300207804888487
4.056017875671387,-1.2766336202621462,9.72332286834717,0.004866783972829581,-0.006942165084183216,-0.011827544309198858
4.061043739318848,-1.3077943325042725,9.702993392944336,0.00442394195124507,-0.005541824735701084,-0.009448816999793053
4.013998031616211,-1.3254377841949463,9.709649085998537,0.006556083913892508,-0.003351944498717785,-0.010357783176004888
3.9897608757019043,-1.3018034696578982,9.74526119232178,0.003934802021831275,-0.005788542795926333,-0.011366147547960281
4.018741130828858,-1.340144157409668,9.69787120819092,0.003859201213344932,-0.009820135310292244,-0.011569508351385595
4.018505573272706,-1.2904137372970583,9.729483604431154,0.004541930276900531,-0.013231426477432251,-0.01242177002131939
4.037202835083008,-1.2975623607635498,9.730031967163086,0.00035421203938312834,-0.012103008106350899,-0.01135977264493704
4.047445297241211,-1.2964686155319216,9.715973854064943,0.0006536829168908299,-0.01053265016525984,-0.013771694153547287
4.0341949462890625,-1.3209148645401003,9.715570449829102,0.0008764265803620219,-0.01024750526994467,-0.0118909552693367
4.049546241760254,-1.320255994796753,9.687403678894045,0.003027955535799265,-0.008782873861491682,-0.010504416190087797
4.047139644622804,-1.2888709306716921,9.707061767578125,0.0037498266901820902,-0.00715442281216383,-0.010310930199921133
4.059409141540527,-1.3290377855300906,9.715588569641115,0.005954071413725615,-0.004370343405753375,-0.01014690101146698
4.053879261016847,-1.3102267980575564,9.725256919860842,0.00825393758714199,-0.003959492314606906,-0.00926203653216362
4.029510974884034,-1.2773916721343994,9.714924812316896,0.008069932460784912,-0.002564894733950496,-0.009538763202726843
4.0426225662231445,-1.3291565179824831,9.723737716674805,0.0070749735459685326,-0.0035265048500150446,-0.009637497365474701
4.011466026306152,-1.3184115886688232,9.721656799316406,0.007984739728271963,-0.004247671458870173,-0.011472444981336594
4.014470577239991,-1.3173983097076416,9.714897155761719,0.008413910865783691,-0.006307178642600776,-0.011457297950983047
4.04152536392212,-1.3168565034866335,9.747778892517092,0.008710711263120176,-0.006948193535208702,-0.013237981125712395
4.039896011352539,-1.296360969543457,9.744882583618164,0.008967054076492788,-0.0041417321190238,-0.011036737821996214
4.053600788116456,-1.2749876976013184,9.707503318786623,0.006289549637585879,-0.0053185080178082,-0.011632600799202919
4.046537876129151,-1.273965835571289,9.729964256286623,0.006573822349309921,-0.002962505212053657,-0.009133651852607727
4.041906356811523,-1.2883224487304688,9.703826904296875,0.007820614613592626,-0.0021401923149824142,-0.01013830117881298
4.004034996032715,-1.3049198389053347,9.726075172424318,0.006302972789853812,-0.0035473289899528027,-0.009374612011015417
4.016766548156738,-1.342945218086243,9.692914962768555,0.006864614319056273,-0.003461421234533191,-0.010077197104692459
4.058281898498535,-1.2720768451690674,9.719850540161133,0.006790126208215953,-0.002693614922463894,-0.010672624222934248
4.035154819488526,-1.2415688037872314,9.709805488586428,0.005594804417341948,-0.0005899822572246194,-0.008975289762020111
4.035225868225098,-1.2744336128234863,9.70870590209961,0.004495701286941768,-0.001958846114575863,-0.006881850305944682
4.037875652313233,-1.335277795791626,9.718394279479982,0.005515646189451218,-0.0006943203043192625,-0.00652083894237876
4.008214473724366,-1.2971984148025515,9.724871635437013,0.006508207879960537,-0.00018020298739429566,-0.007325777783989906
4.074777603149414,-1.2745395898818972,9.70491123199463,0.004991094581782818,-0.0009443306480534376,-0.005826748441904784
4.055461883544922,-1.321042537689209,9.701170921325685,0.009778146632015707,0.0058698393404483795,-0.006823505740612746
4.0459256172180185,-1.3595696687698366,9.699481010437013,0.014537687413394453,0.009314310736954214,-0.006063141860067844
4.111126422882081,-1.2491681575775146,9.693871498107912,0.02113595046103001,0.0143052339553833,-0.005829025525599719
4.153408050537109,-1.2686078548431396,9.668187141418459,0.02679801732301712,0.0289351511746645,-0.0021542620379477744
4.150413036346436,-1.1475144624710085,9.674020767211914,0.037100717425346375,0.045326139777898795,0.005991947837173939
4.0114483833313,-1.2401326894760134,9.63386631011963,0.040934417396783836,0.056612778455019004,0.012501973658800125
3.7780776023864746,-1.47139573097229,9.623821258544922,0.046168494969606406,0.05457315593957901,0.007525948341935874
3.9011788368225098,-1.4477697610855105,9.674360275268555,0.05288831889629364,0.047791186720132835,-0.011209334246814253
4.007041454315186,-1.074656128883362,9.715618133544922,0.05448966473340988,0.04930360242724419,-0.013826649636030197
4.090339660644531,-1.0986871719360352,9.679150581359865,0.04849110543727875,0.05502390116453171,-0.004368195775896312
4.020685672760011,-1.2682185173034668,9.690291404724123,0.056404344737529755,0.07067417353391649,0.002436255570501089
4.007230758666992,-1.3694504499435427,9.636672973632812,0.06605079025030137,0.08222177624702454,0.0017327498644590378
4.125934600830078,-1.2595139741897585,9.70002555847168,0.07975066453218461,0.10602100193500519,0.007628645282238723
4.165085315704347,-1.2262871265411377,9.653148651123047,0.08964400738477708,0.1347155421972275,0.020686417818069458
4.112872600555421,-1.2760618925094607,9.72376346588135,0.10285817086696625,0.1401738375425339,0.01957561820745468
4.036477088928223,-1.2011454105377197,9.77403450012207,0.11437115818262102,0.15516209602355957,0.023564409464597702
3.95289158821106,-1.2840386629104616,9.847223281860352,0.11414999514818193,0.15909641981124878,0.023647731170058254
3.770251750946045,-1.3661679029464724,9.922036170959474,0.11478102952241899,0.15195961296558383,0.018041983246803284
3.608258962631226,-1.3628413677215576,9.920515060424805,0.11163751035928728,0.1293712854385376,0.0016671508783474567
3.285395622253418,-1.2947267293930056,9.794106483459474,0.09315760433673859,0.10002892464399339,-0.011051353998482229
3.4833352565765385,-1.3582136631011963,9.95120620727539,0.07016622275114061,0.05287674814462662,-0.026195945218205455
3.822262763977051,-1.1231880187988281,9.93001937866211,0.06452964991331102,0.033682573586702354,-0.0327925905585289
3.817951917648316,-0.9571331739425659,9.947794914245607,0.04655044153332711,0.019498400390148163,-0.027268445119261745
3.804306268692017,-1.0950629711151123,9.945433616638185,0.030879890546202663,0.006697524338960648,-0.02241632342338562
3.8200154304504395,-1.04345977306366,9.940532684326172,0.01634419709444046,-0.01098113600164652,-0.01885586977005005
3.829583883285523,-1.0043917894363406,9.897087097167969,-0.0010757049312815072,-0.022911770269274715,-0.01315348967909813
3.824437856674195,-0.9253102540969849,9.937759399414062,-0.02316419780254364,-0.03684161975979806,-0.006054735742509365
3.8471639156341557,-1.04844069480896,9.877873420715334,-0.037712391465902335,-0.04304052144289017,-0.0003967134980484843
3.833215951919556,-1.0832492113113406,9.847205162048342,-0.047059156000614166,-0.04763053730130196,0.002532609272748232
3.887655735015869,-1.1476142406463623,9.802945137023928,-0.0517980232834816,-0.04917070269584656,0.00426247762516141
3.8196611404418945,-0.9691834449768066,9.814564704895021,-0.0622735470533371,-0.05126673355698586,0.009254846721887589
3.8824219703674316,-1.0354576110839844,9.844691276550295,-0.07862238585948944,-0.055529374629259116,0.01790583692491055
3.732302665710449,-1.187040448188782,9.771230697631836,-0.08731766790151597,-0.06133902072906494,0.02032156847417355
3.709089040756226,-1.4249900579452517,9.756611824035646,-0.09164810180664062,-0.07664734125137329,0.011754748411476614
3.8557233810424805,-1.3244338035583496,9.71068000793457,-0.08234746754169464,-0.07858341187238695,-0.000721626216545701
3.7405800819396973,-1.2498440742492676,9.667788505554201,-0.08238428831100464,-0.08250159770250322,-0.004003151785582305
3.9289474487304688,-1.288820505142212,9.707328796386719,-0.08539025485515594,-0.0872045084834099,-0.005522782914340496
3.910010814666748,-1.2458672523498535,9.814852714538576,-0.0820894166827202,-0.08063264936208726,-0.003883560188114643
3.806034326553345,-1.0566197633743288,9.79769515991211,-0.09297462552785875,-0.086017906665802,0.003319349372759462
3.7727155685424805,-1.1547491550445557,9.865150451660156,-0.11491014808416368,-0.10295818746089935,0.009849943220615387
3.8878815174102788,-1.2164392471313477,9.831384658813477,-0.1253408342599869,-0.11795151233673096,0.011639899574220182
3.8565647602081303,-1.0758286714553835,9.817849159240724,-0.1424626559019089,-0.12818394601345065,0.019235845655202866
3.871368408203125,-1.021657943725586,9.810131072998047,-0.17714934051036837,-0.14653649926185608,0.03162872418761254
3.8459570407867436,-1.4871617555618288,9.681433677673342,-0.1856447905302048,-0.15943065285682678,0.030467499047517776
3.631511688232422,-1.5821661949157715,9.48760509490967,-0.17609065771102905,-0.16402725875377658,0.020030401647090912
3.661585807800293,-1.4766248464584353,9.767999649047852,-0.17433875799179077,-0.1866973638534546,0.0006588639807887376
3.7864365577697754,-1.5708774328231814,9.597892761230469,-0.15732870995998385,-0.19840839505195618,-0.014136447571218015
3.4016044139862065,-1.5003979206085205,9.5939416885376,-0.13199540972709656,-0.226669117808342,-0.05718101933598519
3.640773296356201,-1.761756420135498,9.843441963195803,-0.0891309380531311,-0.27059021592140203,-0.12090495228767395
4.099889278411866,-1.284125804901123,9.978109359741211,-0.08370417356491089,-0.30634164810180664,-0.14240942895412448
4.252223968505859,-0.8451695442199707,9.984869956970217,-0.11087505519390106,-0.3268460333347321,-0.11533083021640778
3.987289190292359,-1.2463903427124023,9.725748062133789,-0.13064886629581454,-0.3557577133178711,-0.09479470551013947
3.648713350296021,-1.6357208490371706,9.680878639221193,-0.11814247816801073,-0.4011424779891968,-0.11356598883867265
3.2772579193115234,-1.90401291847229,9.662520408630373,-0.09587875008583069,-0.4628635048866272,-0.17135064303874972
3.6788799762725835,-1.5991408824920654,9.921741485595703,-0.0857624337077141,-0.5590766668319702,-0.2424261420965195
4.176243782043457,-1.063356637954712,10.066201210021974,-0.10529540479183197,-0.6338465809822084,-0.2515282332897187
3.8817441463470463,-1.2161576747894287,9.994839668273928,-0.12498641759157182,-0.7159218788146973,-0.25867035984992987
3.389903783798218,-0.9905243515968324,10.541074752807617,-0.1641955524682999,-0.8590738177299501,-0.2656766176223755
3.189801454544068,-1.227445363998413,10.565439224243164,-0.1670258343219757,-1.0989133119583132,-0.23472774028778076
3.0368385314941406,-1.126624941825867,10.510486602783203,-0.17017684876918796,-1.3965809345245361,-0.19240200519561768
2.9716858863830566,-1.2486655712127686,10.524401664733888,-0.17996288836002353,-1.7151741981506348,-0.1769300848245621
3.2861235141754155,-1.5046163797378542,10.489983558654787,-0.17726947367191317,-1.9982925653457644,-0.22658488154411316
3.8513550758361816,-1.329933047294617,10.409235000610352,-0.17102013528347018,-2.279114246368408,-0.27408811450004583
4.086889266967773,-1.0335378646850586,10.317117691040039,-0.18368294835090637,-2.4949228763580327,-0.3315533101558686
4.457120895385742,-1.3293187618255615,9.92394542694092,-0.19218702614307406,-2.7391433715820312,-0.3525430858135224
4.463580131530762,-1.3183397054672243,9.611917495727539,-0.1534511148929596,-2.988415241241455,-0.40278801321983343
4.222460269927979,-1.3902513980865479,9.503455162048342,-0.03777858242392541,-3.396984100341797,-0.4815573990345002
4.106459617614746,-2.0106642246246342,9.444947242736818,0.15218956768512729,-3.950878620147705,-0.5473645925521851
5.0850934982299805,-2.7684550285339355,9.923896789550781,0.4053087830543518,-4.493853092193604,-0.5725325345993042
6.346749305725098,-3.2384839057922363,10.274148941040039,0.5278500318527222,-4.984345436096191,-0.5989671349525453
8.197118759155273,-3.536242246627808,11.8011474609375,0.5111566185951234,-5.241584777832031,-0.5911639332771302
10.709456443786623,-4.035310745239258,13.520071983337404,0.44939365983009344,-5.256020545959473,-0.5808217525482178
13.835528373718263,-5.000232696533203,14.170194625854492,0.5713459849357606,-5.067584991455078,-0.686588227748871
17.796400070190433,-5.9369611740112305,14.942042350769045,1.0317811965942383,-4.7915849685668945,-0.8986778855323793
26.095865249633793,-3.177620649337769,14.410568237304688,1.1717417240142822,-4.353412151336671,-0.9375115633010864
28.21799087524414,-5.715627670288086,7.46257209777832,1.145068645477295,-4.045253276824952,-1.0286465883255007
29.286426544189453,-9.475170135498047,4.34633493423462,2.0468680858612065,-4.251906394958496,-1.2596775293350222
32.68991470336915,-7.63941240310669,7.27474308013916,2.9613795280456543,-3.891982078552246,-0.9018866419792176
33.95135879516602,-1.347900986671448,7.255183696746827,3.0121965408325195,-3.7217314243316655,-0.4182823896408081
40.22552871704102,-0.8673003911972046,20.07793998718262,1.6699851751327517,-2.563258647918701,-0.01912621408700943
26.34625053405762,-0.9315307140350342,16.247634887695312,0.4370168745517731,-1.3174097537994385,0.3548395931720734
20.81576728820801,-1.2452943325042725,12.986976623535156,-0.6066638827323915,-1.0458878278732302,0.4256029725074768
15.104180335998537,-2.5894806385040288,10.828845977783203,-1.1001530885696413,-0.9681766033172607,0.2620508968830109
12.16411876678467,-4.131775856018066,10.19906234741211,-1.1320272684097292,-1.083446741104126,-0.030030712485313416
11.546627998352053,-5.212448596954347,11.511427879333498,-0.7266379594802856,-1.0212157964706423,-0.35295605659484863
9.812719345092773,-5.258238792419434,12.715475082397461,-0.12331785261631012,-0.6767719984054565,-0.5613456368446351
8.218703269958498,-4.359776496887207,13.717445373535156,0.40462628006935125,-0.16951048374176025,-0.682300627231598
5.954346179962159,-2.321969985961914,13.37913703918457,0.6878559589385986,0.508433759212494,-0.7458364367485047
1.9449626207351687,-0.8783343434333802,10.599157333374023,0.7460432648658754,1.179849624633789,-0.8027314543724061
-2.402694463729859,-0.15858159959316256,6.985238552093507,0.7056727409362793,1.5017147064208984,-0.8692288994789125
-4.56655216217041,-0.26622620224952703,4.620557308197022,0.6605194211006166,1.5308053493499756,-0.8946405053138734
-5.551089763641358,-0.48798725008964544,3.575215101242066,0.650307595729828,1.4911537170410156,-0.8248467445373535
-5.438173770904542,-0.9264660477638246,3.95950722694397,0.631481409072876,1.5334202051162722,-0.6634631156921387
-5.538119316101074,-1.528090476989746,4.712915897369386,0.6031437516212464,1.726941227912903,-0.46014803647994995
-5.315021991729737,-1.780773401260376,5.000913619995117,0.5283055901527406,2.0747361183166504,-0.23057042062282565
-6.771033763885499,-2.2558825016021733,3.1319689750671387,0.4983394145965576,2.4119751453399663,0.0015092120738700034
-8.698559761047365,-1.680413007736206,0.3641032278537751,0.4763992428779602,2.5147640705108647,0.2115345597267151
-9.321957588195803,-0.6689224839210511,-1.1078455448150635,0.303758054971695,2.3822023868560795,0.439879834651947
-8.884145736694336,-0.635277509689331,-0.9292019605636597,0.040419161319732666,2.2369687557220463,0.6937357187271118
-7.461376190185547,-1.2717002630233767,0.8434128165245057,-0.14761726558208468,2.2277164459228516,0.936679482460022
-5.689209461212159,-1.3892958164215088,2.816827535629273,-0.2655135989189148,2.4941451549530034,1.183243751525879
-5.258852958679199,-1.2834069728851318,3.231858253479004,-0.3073275685310364,2.9066720008850098,1.383517622947693
-5.45512580871582,-0.6255137324333192,2.2730345726013184,-0.3059256076812744,3.2676579952239995,1.5252139568328857
-5.711115837097168,0.6532711386680604,0.9925780296325684,-0.3405452370643616,3.446783781051636,1.5755749940872195
-4.655664920806886,1.5368995666503906,1.3865830898284912,-0.4686124920845032,3.5276963710784917,1.5373320579528809
-3.3996722698211674,2.3695423603057866,2.165329933166504,-0.6001023054122925,3.6628565788269043,1.42777955532074
-1.5102927684783936,2.9619698524475098,2.6446104049682617,-0.7071011066436768,3.850312948226929,1.2245299816131592
-0.04627668857574463,2.942637205123902,1.919252872467041,-0.7108429670333862,3.988135099411011,0.9313994050025941
1.5062953233718874,3.335461139678955,1.485847592353821,-0.634231448173523,3.9786689281463627,0.5853456258773804
3.8342223167419434,3.165525436401367,1.8495262861251833,-0.5911151170730591,3.8843297958374023,0.23963753879070285
6.554795265197754,2.531809568405152,2.8380157947540288,-0.5612106919288636,3.755382537841797,-0.036151293665170676
10.108757972717287,1.4450927972793581,4.690625667572022,-0.5527026057243348,3.642733573913574,-0.17861050367355347
13.383222579956055,-0.20618200302124023,6.332184791564941,-0.5189863443374634,3.6318213939666752,-0.14755478501319885
15.322473526000977,-1.103575110435486,6.45130729675293,-0.3866604864597321,3.602963209152222,0.06525790691375732
16.551942825317386,-0.4663974642753601,5.1505937576293945,-0.36260849237442017,3.372444868087769,0.43494367599487305
18.176578521728516,-1.6394987106323242,3.821178197860718,-0.357452392578125,2.9191539287567143,0.8454938530921937
18.952516555786136,-1.9530408382415771,2.471347570419312,-0.1534217894077301,2.326781511306763,1.2740581035614014
18.106866836547855,0.20380452275276184,0.7131953835487367,-0.052046980708837516,1.634869694709778,1.6652445793151855
15.702169418334961,1.982730269432068,-2.5604872703552246,-0.10003673285245897,0.8208197355270386,1.8578125238418581
12.325608253479006,3.6104195117950444,-7.86531686782837,-0.09547942131757738,-0.34634631872177124,1.7685987949371338
77.10091400146486,-3.7588293552398686,31.532371520996094,-0.18997137248516086,-3.247192859649658,1.8816176652908327
27.94079399108887,25.96483421325684,21.891183853149418,-0.03368297964334488,2.828289031982422,-0.2668996155261994
-5.674900054931641,-4.334885120391847,9.163131713867188,-0.2108116298913956,0.577232837677002,0.046337921172380454
-0.9374631643295288,-12.231190681457521,12.690932273864748,0.0474511981010437,0.1178850755095482,0.23997081816196444
-1.4213900566101074,4.50190019607544,8.450838088989258,-0.04464993998408318,-0.6436144113540649,-0.09446654468774797
7.626907825469972,-2.058013439178467,12.725324630737305,-0.09612297266721727,-0.2626440823078156,-0.46689146757125854
3.614901542663574,-7.7540860176086435,7.321527004241944,-0.03751043230295181,-0.4441997110843659,-0.3491023778915405
8.30557632446289,3.3261606693267827,9.341191291809084,0.1229931116104126,-0.027645392343401912,-0.3466818034648896
8.07137966156006,1.161005973815918,9.157411575317383,-0.02546992711722851,0.27408307790756226,-0.042755957692861564
5.07004451751709,-1.808912754058838,9.128214836120607,-0.04119105264544488,0.47472712397575384,0.07117429375648499
4.711924076080323,-1.6620159149169922,9.687610626220703,0.013621379621326925,0.5399848222732544,0.09464607387781145
3.83807373046875,-2.6560499668121342,9.620732307434084,0.06455122679471971,0.513495922088623,0.10748930275440216
3.9541909694671635,-2.054679155349732,9.792957305908203,0.12190198153257371,0.43335068225860596,0.05116193369030953
3.718146324157715,-0.7859775424003602,10.123539924621584,0.0845366194844246,0.38230583071708685,0.046949051320552826
3.480010271072388,-0.6167030930519105,10.266665458679201,0.0025466375518590216,0.2844715118408203,0.08187329024076463
3.102428197860718,-1.1986953020095827,10.278439521789553,-0.05287009850144387,0.15490689873695374,0.08825404942035675
3.100091695785523,-1.939021110534668,10.029769897460938,-0.07402822375297546,0.028636457398533825,0.03671065717935562
3.7041060924530034,-1.632892370223999,9.989451408386232,-0.06902844458818437,-0.06355585902929307,-0.015669576823711395
4.180522918701172,-0.876865029335022,9.978235244750977,-0.09709883481264116,-0.10446207225322723,-0.007066408637911082
4.484947681427003,-0.7991343140602113,9.794190406799318,-0.14170084893703463,-0.10752317309379578,0.035292357206344604
4.422426700592042,-0.8131393790245057,9.72663974761963,-0.18327014148235324,-0.09516383707523346,0.07937283068895341
3.8434731960296635,-1.1792757511138916,9.927192687988281,-0.22368887066841125,-0.12769967317581177,0.1011723503470421
3.5987474918365483,-1.3062775135040283,9.980004310607912,-0.256738543510437,-0.2452913969755173,0.05799585580825806
4.093057632446289,-1.1758596897125244,10.101728439331055,-0.28696379065513616,-0.2782438397407532,0.09281198680400848
3.866843461990357,-1.760572910308838,9.63132953643799,-0.29672276973724365,-0.3002211153507233,0.08332960307598114
4.155542373657227,-1.6030331850051882,9.748682022094727,-0.30715882778167725,-0.3283770680427551,0.05940094962716103
3.6203064918518066,-2.3126416206359863,9.280200958251953,-0.2827591001987458,-0.4413914084434509,-0.016053838655352596
4.631412506103516,-0.9161204099655151,9.978735923767092,-0.31950676441192627,-0.3582315146923066,0.05786101147532464
3.2270338535308842,-2.6218085289001465,9.215225219726562,-0.27939653396606445,-0.5241494774818422,-0.03275888413190842
4.967375755310059,-1.1555396318435671,10.089384078979492,-0.3553577363491059,-0.4321645796298981,0.03886963427066803
4.32811164855957,-2.1179065704345703,9.349907875061037,-0.26301348209381104,-0.44498363137245184,0.019516918808221817
4.308144092559815,-2.577244281768799,9.14473056793213,-0.2744660973548889,-0.6264708638191224,-0.0634535923600197
4.208433628082276,-1.5609916448593142,8.729560852050781,-0.26507690548896795,-0.42899829149246216,-0.006827219855040313
5.103586196899414,-1.7987308502197266,9.924270629882812,-0.2421708256006241,-0.584631383419037,-0.048074714839458466
4.507602691650391,-1.837174892425537,9.191162109375,-0.22456531226634982,-0.5221679210662842,-0.03707236424088479
4.921595573425293,-1.8778251409530642,9.412473678588867,-0.25264582037925726,-0.4509856104850769,-0.0055067334324121475
4.40001106262207,-2.8378539085388184,8.663975715637209,-0.18637125194072726,-0.5125719308853149,-0.05922241136431695
5.106847763061523,-1.9994434118270876,8.958210945129396,-0.1701003611087799,-0.47945117950439453,-0.0683269575238228
4.8898162841796875,-1.9696303606033327,8.875185012817383,-0.15228651463985446,-0.37482863664627075,-0.05426024273037911
4.51033878326416,-2.1312735080719,9.045651435852053,-0.15351060032844543,-0.4419043958187104,-0.07364847511053087
4.731427669525147,-1.827120065689087,9.190299034118654,-0.12940131127834323,-0.45731449127197266,-0.08407834917306901
4.56744384765625,-1.8709819316864014,9.292178153991701,-0.13938881456851962,-0.46306934952735906,-0.07933230698108673
4.680560588836671,-2.2219390869140625,9.163764953613281,-0.1259013265371323,-0.5149478912353516,-0.09519167989492418
4.626457214355469,-1.9505257606506348,9.045779228210451,-0.111418254673481,-0.5505536794662476,-0.1191113144159317
4.552445888519288,-1.913219690322876,9.1432580947876,-0.09537176787853241,-0.6058712601661683,-0.14704400300979614
4.577046871185304,-2.091163873672486,9.059320449829102,-0.08566217124462128,-0.6738107204437256,-0.1739701181650162
4.531908988952637,-2.37871527671814,8.827049255371094,-0.060324229300022125,-0.7719773650169374,-0.23842290043830872
5.258519172668457,-1.811837911605835,8.866295814514162,-0.03076579608023167,-0.7631531953811646,-0.26905369758605957
5.338006019592285,-1.9599300622940066,8.618444442749023,-0.0007043926161713899,-0.7610440254211426,-0.28648617863655096
5.206652164459229,-1.7026461362838747,8.882143020629883,0.01053872983902693,-0.7759507298469545,-0.29293394088745117
5.06832218170166,-1.6320773363113406,8.962477684020998,0.002483988646417856,-0.8250680565834047,-0.29504990577697754
4.904017925262452,-1.7568743228912354,9.157467842102053,-0.00830692704766989,-0.9049144983291626,-0.2954282760620117
4.620957851409913,-1.8936052322387695,9.247716903686523,-0.004318722523748875,-1.022757411003113,-0.31699520349502563
4.74197816848755,-2.6770250797271733,9.314697265625,0.06793077290058136,-1.1481635570526123,-0.3598253428936005
4.725483417510987,-2.1093029975891113,8.953302383422852,0.14966003596782687,-1.3083395957946777,-0.40608724951744085
5.466801643371582,-1.280989170074463,8.958757400512695,0.13699612021446228,-1.4302808046340945,-0.43222752213478094
5.637174129486085,-1.3760206699371338,9.345184326171875,0.11078087240457536,-1.5292887687683105,-0.42354574799537664
5.089168548583984,-2.243885040283203,8.943023681640625,0.13792075216770175,-1.6725684404373171,-0.45987385511398315
5.7716064453125,-2.176047563552857,8.842367172241211,0.20213574171066284,-1.8186224699020388,-0.5089458227157593
5.725026607513429,-1.8919620513916016,8.509079933166506,0.24778801202774048,-1.9612299203872683,-0.5397323966026307
5.854462146759034,-1.8639007806777956,8.515431404113771,0.2745518088340759,-2.1509840488433842,-0.5617412328720093
5.250666618347168,-2.202864170074463,8.755015373229982,0.325772911310196,-2.4256212711334233,-0.6072635650634766
5.605878829956055,-1.5982768535614014,8.622312545776367,0.3830471634864807,-2.755194425582886,-0.677950382232666
5.702964305877686,-1.8303351402282715,8.468747138977053,0.4253056347370148,-3.1624231338500977,-0.7280505895614624
5.817735195159913,-1.9509156942367556,8.388410568237305,0.5024226307868959,-3.6532912254333496,-0.7819500565528871
6.120108604431152,-1.2687044143676758,8.282838821411133,0.5079450607299805,-4.247646331787109,-0.8000134825706483
6.780132770538331,-0.7689616680145264,8.480155944824219,0.4735535681247712,-4.865365982055664,-0.7779141068458558
8.222765922546388,0.0975886881351471,8.868467330932617,0.34911972284317017,-5.271693706512452,-0.7149029374122621
9.616626739501953,0.5740926861763002,9.260002136230469,0.1385166794061661,-5.763840675354004,-0.44269087910652166
11.823753356933594,0.23440754413604736,10.03493881225586,-0.04615077748894692,-5.822346210479737,-0.20246773958206177
13.915157318115234,-0.399680107831955,10.488933563232422,-0.12421479821205139,-5.545759677886964,0.0552930012345314
17.13719940185547,-2.1911323070526127,10.9680871963501,0.04674061760306359,-5.100153923034668,0.12383989989757538
21.70855712890625,-2.9769062995910645,10.83247470855713,-0.03252117708325387,-4.382120132446289,0.21326591074466708
23.440387725830078,-4.25285530090332,9.317822456359865,-0.6384626626968384,-3.4905338287353516,0.47753474116325384
22.812828063964844,-1.3171544075012207,6.599616527557374,-1.344760298728943,-2.581739902496338,0.4536236226558686
18.090581893920902,-3.7656323909759526,-2.708858013153076,-1.6993974447250368,-2.4600472450256348,-0.024588819593191147
23.469305038452152,-4.564197063446046,-5.497610569000245,-1.1040410995483398,-2.8250739574432377,-0.7661080360412598
22.548725128173828,-4.546110630035401,-6.548206329345703,-0.12496344745159149,-3.1676058769226074,-1.653990149497986
19.117296218872074,-2.9624719619750977,-8.049410820007326,0.7351667284965516,-3.8622350692749023,-2.3977034091949467
28.89811515808106,-1.9487603902816775,-2.0944664478302006,1.4248740673065186,-4.926236629486085,-3.2729442119598393
31.24993896484375,0.5268386006355287,8.380805969238281,1.112953066825867,-4.3050537109375,-3.387757539749146
24.454940795898438,2.1455798149108887,6.348316192626953,0.1721809953451157,-3.659690141677857,-3.3724923133850098
22.607524871826172,0.8299438953399658,7.738719940185547,-0.7176653146743774,-3.2001698017120366,-3.4685020446777344
17.358827590942386,-1.1002700328826904,6.739891529083253,-1.3222624063491824,-2.8303184509277344,-3.4981846809387207
13.99308490753174,-4.7140517234802255,6.836037635803223,-1.4423993825912478,-2.698556423187256,-3.590819120407105
10.570359230041506,-8.853125572204592,7.167508602142335,-0.8709456324577333,-2.676332235336304,-3.5404715538024902
8.839015007019045,-10.202994346618654,7.821011543273926,0.23579201102256775,-2.700273752212525,-3.4094247817993164
7.891607284545898,-9.746264457702638,9.382612228393555,1.264789938926697,-2.6227216720581055,-3.1240153312683105
7.553668498992921,-7.445120811462402,11.770265579223633,1.8318790197372439,-2.2549257278442383,-2.6811382770538335
7.07807493209839,-5.182062149047852,13.996571540832521,1.8280208110809326,-1.4293293952941895,-2.040176153182984
5.062003135681152,-3.646209239959717,15.164403915405273,1.452805757522583,-0.34877261519432073,-1.3655130863189697
3.1645557880401616,-3.1835019588470463,15.77285671234131,0.8303927779197694,0.7448080778121948,-0.684924840927124
1.7377213239669802,-3.8414261341094975,15.337631225585938,0.2865375280380249,1.7886401414871218,-0.09771114587783813
-1.1612936258316042,-5.032670021057129,13.217923164367678,0.07369891554117204,2.630637407302857,0.32646751403808594
-4.9745073318481445,-5.589110374450684,10.167121887207031,0.21717935800552368,3.0830919742584233,0.5729562044143677
-7.548496246337891,-4.923540115356445,7.266013622283936,0.5210604667663574,3.128547906875611,0.75353342294693
-8.104486465454102,-3.1555705070495605,5.785222053527832,0.6941667795181274,2.9515926837921147,0.9320774078369141
-7.334061145782472,-1.5341314077377322,5.739357948303223,0.587926208972931,2.7510244846344,1.1895532608032227
-6.102299213409425,-0.5682004094123841,6.69080924987793,0.2828820645809174,2.6926684379577637,1.4732543230056765
-4.80267095565796,-0.21570222079753879,7.8719329833984375,-0.06561774760484697,2.8084592819213867,1.7150883674621582
-3.707474708557129,-0.02704031765460968,8.93306064605713,-0.3080136179924011,3.0894258022308354,1.8893494606018066
-2.6646935939788823,-0.19456724822521212,9.540804862976076,-0.4130312204360962,3.4889373779296875,1.972372889518738
-2.012745618820191,0.332061767578125,9.503159523010256,-0.38247793912887573,3.9191567897796635,1.9642908573150635
-1.1700990200042725,1.3188090324401855,9.296845436096193,-0.4009323418140412,4.334630012512207,1.9124696254730225
-0.38524580001831055,1.873084902763367,8.975698471069336,-0.5016055703163148,4.715986251831055,1.8576987981796267
0.24934850633144381,1.8173635005950928,8.588519096374513,-0.6060601472854614,5.026810646057129,1.7895737886428835
0.9604415893554688,1.387087106704712,8.275192260742188,-0.6212296485900879,5.255517482757569,1.7006709575653076
1.4796655178070068,1.648722052574158,7.774072647094727,-0.5666016340255737,5.381550312042237,1.5908461809158327
2.097832679748535,2.053078413009644,7.597870826721191,-0.5741492509841919,5.422897815704347,1.4253082275390625
3.4977173805236816,2.235138416290283,8.198112487792969,-0.6352016329765321,5.41816282272339,1.2374355792999268
5.643175601959229,2.2037212848663335,9.32350254058838,-0.7460645437240601,5.47105360031128,1.0631155967712402
7.454304218292237,2.011008501052857,10.123682975769045,-0.8742012977600098,5.599562168121339,0.9149948954582215
9.05758571624756,2.215975284576416,10.423354148864748,-0.998158633708954,5.729537010192871,0.7675681710243226
10.624944686889648,2.055795669555664,10.276782989501953,-1.0863660573959353,5.792413234710694,0.5705212354660034
12.127546310424805,2.0481247901916504,10.301563262939453,-1.1119141578674316,5.73415231704712,0.33037078380584717
13.730464935302734,2.72881293296814,10.621922492980959,-1.1877012252807617,5.588758945465089,0.08878353983163835
15.251646995544435,3.662165641784668,11.05125141143799,-1.403153657913208,5.418303966522218,-0.17795878648757935
16.461162567138672,4.203891277313233,11.427550315856935,-1.6903893947601318,5.227790832519531,-0.5639358162879945
18.40420150756836,4.689316272735597,11.641022682189943,-2.047868967056275,5.042853355407715,-0.9892420172691346
20.253763198852543,4.927687644958496,11.185782432556154,-2.418729305267334,4.867815494537354,-1.2980083227157595
20.755956649780277,6.0091142654418945,9.587804794311523,-2.769701719284058,4.620739936828613,-1.4621876478195193
19.63968086242676,7.93969488143921,7.190220832824707,-3.150644302368164,4.186128616333008,-1.5713592767715456
19.748523712158203,9.688587188720703,6.394055843353272,-3.5155181884765625,3.6203305721282963,-1.7675714492797852
20.55267143249512,10.315702438354492,6.91889524459839,-3.7012159824371342,3.197761058807373,-2.1091794967651367
20.84384346008301,10.743446350097656,7.392832279205323,-3.611185073852539,2.9690997600555424,-2.552210807800293
20.626764297485355,11.026183128356935,6.958223819732667,-3.3705699443817143,2.7953116893768315,-2.950313091278076
20.24850082397461,11.017312049865724,5.625176906585694,-3.090803623199463,2.616554498672486,-3.2066941261291504
18.917886734008793,10.390334129333498,3.251257181167603,-2.8307900428771973,2.3722679615020756,-3.3480551242828374
17.625280380249027,8.248880386352539,0.8316278457641602,-2.5413038730621342,2.00803804397583,-3.427404642105103
16.696371078491214,6.214420318603516,-1.0766524076461794,-2.16002106666565,1.5343245267868044,-3.4494524002075195
15.403678894042969,5.116398334503175,-2.820563316345215,-1.8905003070831299,0.9947527050971986,-3.3407349586486816
13.718708038330078,3.564281225204468,-3.8844182491302495,-1.744046926498413,0.3857531845569611,-3.0948960781097417
7.180203914642335,-15.864809989929201,-2.921869516372681,-0.33969190716743475,-0.4438425302505493,-2.6802322864532475
5.448946475982667,10.310755729675295,2.6277496814727788,3.0115766525268555,-1.944385051727295,-2.9398190975189213
13.933560371398928,-9.883460044860842,18.011817932128906,1.1178661584854128,-1.716557502746582,-0.34794929623603826
21.25533676147461,-15.58117198944092,26.328857421875,1.0319906473159792,-1.4640617370605469,-0.7641792297363281
9.894976615905763,-7.924955368041992,12.768375396728516,0.7397744655609131,-0.035028737038373954,-0.6677590608596802
6.6518568992614755,9.454941749572756,9.915727615356445,0.8163549304008485,-0.6849924921989442,-0.3592138886451721
10.402729988098146,13.99570083618164,17.223114013671875,0.3946142494678498,-0.02575274556875229,-0.2884653508663178
1.2165526151657107,-2.6361300945281987,8.353360176086428,0.15005388855934143,-0.0016809162916615608,-0.21241600811481479
4.463215351104737,-1.2261390686035156,10.669439315795898,0.06333290785551073,-0.1864946186542511,-0.16762749850749972
5.04742193222046,2.0980749130249023,9.637282371520998,0.005415624938905239,-0.07721889019012451,-0.12395911663770677
5.2083401679992685,-1.6648962497711182,9.70890998840332,0.011460633017122747,0.006657182238996029,-0.08791836351156236
4.3559632301330575,-2.2084784507751465,9.504883766174318,0.04867003113031387,0.0424993745982647,-0.06919894367456438
4.797840595245362,-2.05333685874939,9.806154251098633,0.07756210118532182,0.05100250989198685,-0.06278010457754137
4.572834491729737,-1.670142412185669,9.897303581237795,0.09173289686441423,0.055053230375051505,-0.03989074379205704
4.268120288848878,-1.2213176488876345,9.981164932250977,0.07056891918182373,0.04256012663245202,-0.025229886174201965
4.259045600891113,-1.131899356842041,9.95871353149414,0.0415925532579422,0.020811935886740688,-0.010870042257010938
4.1848859786987305,-1.3542139530181885,9.85260009765625,0.017333162948489193,0.00981159694492817,0.006223864387720824
3.889292478561402,-1.457168221473694,9.747486114501953,0.001628794940188527,-0.00545910932123661,0.015054528601467611
3.7105319499969487,-1.5072833299636843,9.81608295440674,-0.019539784640073776,-0.053142245858907707,0.012775460258126259
4.000226020812988,-1.4326571226119997,9.775794982910156,-0.03477297350764275,-0.08571559190750122,0.01038513146340847
4.16868543624878,-1.1810739040374756,9.821839332580568,-0.04501908645033837,-0.09548495709896088,0.0189730990678072
4.21769666671753,-1.1767001152038574,9.772310256958008,-0.06488712877035142,-0.09029167145490648,0.02775685489177704
4.2221832275390625,-1.23029100894928,9.759172439575195,-0.08625102043151855,-0.09321565181016923,0.03904741257429123
4.274300575256348,-1.2143023014068604,9.764828681945803,-0.10880155861377716,-0.09439737349748613,0.05758263543248177
4.042876720428468,-1.4331028461456299,9.667019844055178,-0.12328815460205078,-0.09411210566759111,0.069141685962677
4.022844791412354,-1.4734504222869873,9.67150402069092,-0.13870954513549805,-0.11477981507778168,0.07092932611703874
4.223907947540284,-1.4534602165222168,9.641427993774414,-0.14584332704544067,-0.12329509109258653,0.07289451360702515
3.907224655151367,-1.6551685333251953,9.334253311157227,-0.14153070747852328,-0.11732654273509979,0.07438939809799194
3.5647261142730717,-1.6451547145843506,9.647112846374513,-0.15744492411613464,-0.1665536314249039,0.0633494108915329
4.306327342987061,-1.6633788347244265,9.618141174316406,-0.16079504787921908,-0.18532298505306247,0.047823913395404816
4.416657447814941,-1.6904851198196413,9.483384132385256,-0.14268845319747925,-0.1590000241994858,0.04664398729801178
4.254074573516847,-1.5893367528915407,9.498291015625,-0.13193762302398682,-0.14388589560985568,0.044092942029237754
4.361996650695801,-1.7182326316833496,9.546121597290039,-0.1282828152179718,-0.12557961046695712,0.04138410836458206
4.435659408569336,-1.7811149358749392,9.525138854980469,-0.11664475500583649,-0.10002587735652924,0.03922830894589425
4.406177043914796,-1.7612552642822266,9.45150375366211,-0.10143369436264038,-0.07765286415815355,0.04232034832239151
4.238525390625,-1.8263561725616455,9.465009689331055,-0.09309032559394836,-0.05860747769474984,0.04006473347544671
4.102075099945069,-1.7924845218658447,9.485273361206055,-0.08877304941415788,-0.0616723895072937,0.037300262600183494
3.9541151523590092,-1.7577623128890993,9.451237678527834,-0.09316879510879517,-0.07764129340648651,0.03001530654728413
3.9516472816467285,-1.7830522060394287,9.581270217895508,-0.10293079167604448,-0.11555862426757812,0.020456289872527126
4.258126735687257,-1.8408195972442627,9.545413017272951,-0.09943594038486481,-0.13416348397731784,0.0024047351907938723
4.371888160705566,-1.6962642669677734,9.586233139038086,-0.09294754266738892,-0.13862584531307223,4.875054582953453e-05
4.337067604064941,-1.440827012062073,9.641581535339357,-0.1072676107287407,-0.14114634692668918,0.0053938282653689384
4.374626636505128,-1.6665983200073242,9.56221103668213,-0.12015415728092194,-0.14415596425533297,0.010018404573202133
4.3680691719055185,-1.6006795167922976,9.587210655212404,-0.13017281889915466,-0.14495821297168734,0.010387160815298559
4.312119483947754,-1.5250532627105713,9.502296447753906,-0.14737831056118014,-0.15248313546180725,0.013793070800602438
4.149743556976319,-1.6744956970214844,9.490153312683107,-0.16662596166133883,-0.16020612418651584,0.01722227782011032
3.986814498901367,-1.7626389265060427,9.521679878234865,-0.1816164255142212,-0.186108872294426,0.010157791897654533
3.7257363796234135,-2.2441673278808594,9.292304039001467,-0.17242851853370667,-0.23589693009853366,-0.03880469128489495
3.919859647750855,-2.3463640213012695,9.35280990600586,-0.15006953477859497,-0.27199301123619085,-0.11226947605609894
4.28591012954712,-2.221202611923218,9.428474426269531,-0.13576869666576388,-0.28036835789680487,-0.1838231086730957
4.404839515686035,-1.9813337326049805,9.408899307250977,-0.13143314421176913,-0.2671949863433838,-0.2000556439161301
4.560567855834961,-1.8293050527572634,9.603103637695312,-0.15766032040119174,-0.2740017771720886,-0.14772453904151917
4.129822254180909,-2.021878242492676,9.656899452209474,-0.17049148678779602,-0.3224481046199799,-0.16816213726997375
4.003346920013429,-1.7330718040466309,9.820284843444826,-0.18626306951045993,-0.4156592786312104,-0.2192416787147522
4.359001636505128,-1.2069634199142458,10.088721275329592,-0.28058323264122015,-0.502395749092102,-0.20951648056507113
4.006134510040284,-1.8366781473159792,9.88509273529053,-0.37594029307365423,-0.6204655170440674,-0.19113627076148987
3.7020726203918457,-1.4337611198425293,9.932899475097656,-0.47729834914207464,-0.7884806394577026,-0.21248830854892733
3.310172319412232,-0.5400693416595459,10.268067359924318,-0.6257533431053163,-0.9815154671669007,-0.23784634470939636
3.4216866493225098,-0.7247727513313295,10.197194099426271,-0.78876930475235,-1.260662317276001,-0.1959468871355057
3.1348788738250737,-0.1526278853416443,10.35182857513428,-0.8988635540008545,-1.5616515874862673,-0.1445136219263077
3.0717854499816895,-0.3831825256347656,10.2593469619751,-1.0201205015182497,-1.9136996269226074,-0.12396574765443803
2.941424131393433,-0.8262260556221009,10.26791000366211,-1.0953741073608398,-2.323575019836426,-0.10948414355516435
2.5425496101379395,-0.9919977188110352,10.057929992675781,-1.1235754489898682,-2.8422987461090092,-0.09849704802036285
2.6214740276336674,-1.0945545434951784,9.807565689086914,-1.1765958070755007,-3.521118640899658,-0.1099843978881836
3.534554719924927,-0.7317010760307313,10.672957420349123,-1.246530294418335,-4.1857972145080575,-0.053968437016010284
3.822130918502808,-1.099762797355652,11.234541893005373,-1.3856834173202517,-4.957995891571046,-0.017273448407649994
3.5717895030975346,-1.9848239421844482,11.596546173095703,-1.584968686103821,-5.841344833374023,0.13695047795772555
3.3284327983856206,-1.7804907560348513,14.433525085449219,-1.9964280128479004,-6.8835721015930185,0.28092864155769354
6.16578483581543,-1.8567397594451904,18.42618179321289,-2.658580541610718,-7.833732604980469,0.32106915116310125
9.760372161865234,-4.4086713790893555,18.622560501098636,-3.4438247680664062,-8.37598991394043,0.27799138426780706
15.00521755218506,-6.320257186889648,19.17790985107422,-4.1303067207336435,-8.728437423706055,0.20368774235248568
20.084344863891605,-8.497259140014648,19.96690940856934,-4.593327522277832,-8.683199882507326,-0.11256100982427598
22.381431579589844,-9.085176467895508,21.012245178222656,-5.156314849853516,-8.048392295837404,-0.4461166262626648
26.666994094848636,-9.367021560668945,19.866094589233402,-6.06804084777832,-7.473874092102051,-0.5760789513587953
27.498033523559574,-7.213327407836914,18.166517257690433,-7.989960193634034,-6.028013229370117,0.10839835554361345
20.299835205078125,-2.441341638565064,21.24223136901856,-10.776316642761232,-4.039213180541992,0.6657689809799194
15.301964759826662,-6.914339065551758,14.767338752746584,-11.266643524169922,-1.8343566656112673,-0.12083961069583893
34.44537734985352,-20.090167999267578,20.639873504638672,-8.201420783996584,-0.13605888187885287,-2.137861728668213
25.647439956665043,-25.22147941589356,27.13681411743164,-3.617537021636963,3.859747171401978,-2.3474369049072266
10.827668190002443,-10.499922752380373,14.53219985961914,-0.889150857925415,5.265978336334229,-2.059078931808472
3.9543333053588867,1.273042917251587,6.379727363586426,-0.06268860399723053,5.43135690689087,-2.2157835960388184
2.2689955234527592,7.2962493896484375,4.372220039367676,-0.7232568264007568,5.0630998611450195,-2.17706847190857
2.2835140228271484,9.262001991271974,3.1519360542297363,-1.8598366975784304,4.733353614807129,-2.064623594284058
2.4751112461090092,4.909925937652589,3.133710622787476,-2.6074850559234624,4.549610137939453,-1.945573329925537
1.7416470050811768,-0.3264248669147492,4.111749649047852,-2.3174304962158203,4.519846439361573,-1.7813174724578857
1.5840572118759157,-1.8514597415924072,6.014552593231202,-1.3215397596359255,4.554959774017335,-1.5450255870819092
1.0579715967178347,1.259367346763611,6.744030952453613,-0.4489549994468689,4.771158695220948,-1.1927714347839355
0.6739736795425415,4.924668312072754,6.592687129974366,-0.3278855383396149,5.062387466430664,-0.7496024370193481
0.5344294309616089,5.958137512207031,5.831141948699952,-0.6218184232711792,5.371887683868409,-0.26998770236968994
0.07489602267742157,5.988995075225831,3.999320268630982,-0.8077110052108765,5.638855934143066,0.1276875287294388
-1.1198134422302246,6.230446338653565,2.2672905921936035,-0.785144567489624,5.669584751129151,0.3354787826538086
-1.081257224082947,6.922112464904785,1.5745019912719727,-0.6311887502670288,5.554259777069093,0.34476289153099066
-0.2442612797021866,7.926196575164796,1.7460415363311768,-0.5237864255905151,5.430219173431397,0.14557814598083496
0.7944352626800537,7.928606510162354,2.160198211669922,-0.46357336640357977,5.376762866973878,-0.145427405834198
1.9866306781768799,7.020490646362305,2.195652961730957,-0.3343363702297211,5.3932390213012695,-0.4679862558841706
2.8449032306671147,5.9059462547302255,1.4764157533645632,-0.1157139241695404,5.423494815826417,-0.7835049033164979
3.6678075790405273,5.208804607391358,0.9309833645820619,0.03795365244150162,5.399098873138429,-0.9699554443359375
4.91697883605957,4.272261142730714,0.40134477615356445,0.13334661722183228,5.373443603515625,-0.9770491719245912
6.530914783477784,3.157345056533814,-0.43409377336502075,0.19423973560333252,5.308363437652589,-0.8610987663269043
8.922945022583008,1.744589447975159,-1.6013923883438113,0.2695885598659516,5.123676300048828,-0.6335961818695068
11.093421936035156,0.717549502849579,-2.856937885284424,0.39102059602737427,4.750018596649171,-0.32873809337615967
13.146365165710451,-0.6802878975868226,-3.495348691940308,0.5507025122642518,4.192517757415772,-0.03889112174510956
15.646577835083008,-2.2836790084838867,-3.415639877319336,0.8076093196868896,3.4976789951324467,0.24395447969436646
17.59508323669434,-2.017162799835205,-3.0915307998657227,1.076448678970337,2.7261092662811284,0.5318945050239564
19.20909881591797,-1.6799798011779785,-2.637023448944092,1.167747974395752,1.962391257286072,0.7206300497055054
21.067438125610355,-2.343178987503052,-1.5729275941848757,1.222234129905701,1.2683855295181277,0.7268919944763184
23.557683944702152,-2.5676414966583256,-0.13192659616470337,1.2794436216354372,0.6986609697341919,0.6589012742042543
24.996046066284183,-2.1460509300231934,0.8385913372039795,1.2074064016342165,0.29372042417526245,0.5974847078323364
23.67421913146973,-1.7969726324081423,0.3459782600402832,0.9967227578163148,-0.04042671620845795,0.5025479197502137
20.217416763305668,-1.6704344749450684,-1.521747708320618,0.6821092367172241,-0.4651110768318176,0.34344968199729925
16.91010284423828,-3.0223817825317383,-2.3830502033233647,0.3675822317600251,-1.0706617832183838,0.19160170853137973
14.89336681365967,-5.555734634399414,-1.4337090253829958,0.2980832159519196,-1.6424570083618164,0.18268969655036926
38.94225692749024,-12.305066108703615,12.551255226135256,0.07954375445842743,-2.8997528553009038,0.903337836265564
47.65477371215821,47.593231201171875,34.30718231201172,-1.644682288169861,0.7734399437904359,0.2229120135307312
-7.518518447875977,18.552133560180668,2.0171811580657963,-0.6543911695480347,1.6973611116409304,-0.33803701400756836
10.997150421142578,-9.493825912475586,19.914495468139652,-1.63136887550354,0.5095295310020448,0.3912884891033173
-8.163581848144531,-6.5591325759887695,5.955045223236085,-0.29710391163825994,0.7652161121368408,0.14243437349796298
6.353795528411866,-9.201852798461914,11.09482192993164,-0.21851664781570435,-0.04643505811691284,-0.17388771474361422
1.5793715715408327,-8.888407707214357,8.867428779602053,0.09542817622423173,0.06627574563026428,-0.4676258862018586
5.019305706024171,0.001994699239730835,10.406104087829592,0.12888669967651367,-0.0225213747471571,-0.565701186656952
7.626461029052734,3.686300754547119,9.639452934265138,-0.006363485474139453,-0.0012641968205571175,-0.36506924033164984
6.593861103057862,0.250039279460907,9.112573623657227,-0.06718998402357103,0.11092156916856767,-0.08682693541049957
5.671253681182862,-0.2260218858718872,9.591793060302734,-0.08756363391876221,0.19605915248394015,0.0678957849740982
4.354328632354737,-1.7170327901840212,9.937169075012209,-0.11149214953184129,0.2004624903202057,0.09640911221504211
4.050848007202148,-2.9671604633331303,9.77584457397461,-0.04485037922859192,0.14892397820949557,0.0021029124036431313
4.3422040939331055,-0.9380981326103212,10.023813247680664,-0.020534701645374298,0.08158311247825623,-0.03560625389218331
4.47804880142212,-0.2033907324075699,9.964352607727053,-0.07188019901514055,0.023592744022607803,-0.003944857511669398
4.525928020477296,-0.8816222548484803,9.679667472839357,-0.10716827958822252,0.0016495126765221357,0.04796473681926727
4.041105270385742,-1.7350989580154421,9.89616107940674,-0.08289386332035065,-0.033684048801660545,0.03983019292354584
4.150429248809815,-1.628493666648865,9.882110595703125,-0.05597103014588357,-0.08998043090105058,0.005706699565052986
4.509607791900636,-1.1459681987762451,9.703421592712404,-0.051919125020504,-0.1245243474841118,-0.008592616766691208
4.76439094543457,-0.7655701637268066,9.636603355407717,-0.07351850718259813,-0.12393559515476227,0.019620351493358612
4.553624629974366,-0.9272559881210327,9.648016929626467,-0.09608937799930573,-0.11930211633443834,0.04980503022670746
4.383763790130616,-1.183979630470276,9.725186347961428,-0.1101755276322365,-0.13285459578037265,0.055632688105106354
4.458756446838379,-1.3368242979049685,9.678263664245607,-0.1144603043794632,-0.1520456820726395,0.054297663271427155
4.495386123657227,-1.3244602680206299,9.569603919982912,-0.12263807654380798,-0.16583098471164706,0.055740412324666984
4.5916948318481445,-1.048774600028992,9.5985107421875,-0.14131595194339755,-0.17761871218681335,0.07115168124437334
4.533768653869629,-1.1977219581604004,9.604842185974123,-0.15604478120803833,-0.18792203068733215,0.08349243551492692
4.613072872161866,-1.4455560445785525,9.354801177978516,-0.15744087100028992,-0.19264893233776095,0.08487755060195923
4.721673965454102,-1.4938204288482666,9.293258666992188,-0.14167095720767978,-0.17137488722801208,0.07768669724464417
4.665454387664796,-1.411271572113037,9.287113189697266,-0.13725540041923523,-0.14732541143894198,0.07859168946743011
4.466045379638672,-1.4829865694046023,9.326845169067383,-0.13077661395072937,-0.13519248366355896,0.07146350294351579
4.300031661987305,-1.3461581468582156,9.390564918518068,-0.1395355761051178,-0.14800922572612765,0.06788922846317291
4.119603633880616,-1.3216985464096072,9.545847892761232,-0.16259665787220004,-0.18431732058525085,0.05753995478153229
4.260316848754883,-1.6480016708374023,9.490066528320312,-0.16811856627464294,-0.2150148302316666,0.03748781979084015
4.45266056060791,-2.1141479015350346,9.06126117706299,-0.140537902712822,-0.2157835811376572,0.0035397233441472054
4.53501844406128,-1.7885653972625732,8.991249084472656,-0.11913727223873138,-0.1997158080339432,-0.023505933582782745
4.418612003326417,-1.3825775384902956,9.210915565490724,-0.11907561123371124,-0.20355294644832614,-0.029728407040238384
3.7852790355682377,-1.8968306779861452,9.368138313293459,-0.11932387948036194,-0.22802685201168063,-0.05956631898880005
3.7254490852355957,-2.197340488433838,9.793597221374513,-0.09607744961977006,-0.31541565060615545,-0.12422813475131989
4.603880405426026,-1.2639735937118532,9.400763511657717,-0.0812835693359375,-0.38941523432731634,-0.1715051531791687
4.7830095291137695,-0.806615173816681,9.289421081542969,-0.08173029124736786,-0.4146421849727631,-0.1612605005502701
4.629446029663086,-0.9338659048080444,9.511647224426271,-0.09202918410301208,-0.458857148885727,-0.13141369819641113
4.010609149932862,-1.3053795099258425,9.557313919067383,-0.11646686494350433,-0.5501617193222046,-0.11287299543619157
3.3843195438385014,-1.611121654510498,9.894054412841797,-0.1577378511428833,-0.7356948256492616,-0.14965218305587769
3.773072481155396,-1.9757384061813357,9.573829650878906,-0.18291382491588595,-0.9475394487380981,-0.2238856852054596
3.976658821105957,-1.099790096282959,9.749404907226562,-0.20587562024593356,-1.1393382549285889,-0.24565948545932773
3.7823662757873535,-1.2084743976593018,9.486796379089357,-0.23693960905075073,-1.348921775817871,-0.2798843681812287
4.897884368896484,-0.8017702698707582,9.64193630218506,-0.2820401191711426,-1.5526522397994997,-0.2811654806137085
4.227382659912109,-1.106121897697449,9.679165840148928,-0.3691664636135102,-1.7200398445129395,-0.2796425223350525
4.778933048248292,-2.4863045215606694,10.16401481628418,-0.2618464231491089,-1.908375144004822,-0.2870427966117859
4.786498546600343,-1.0190442800521853,9.573561668395998,-0.19629675149917603,-2.1434426307678223,-0.3032436072826386
5.206985950469972,-1.307852387428284,9.603100776672365,-0.22639851272106173,-2.356297492980957,-0.3360919058322907
5.268879413604737,-1.157506346702576,9.531788825988771,-0.21683318912982943,-2.6339874267578125,-0.37120145559310913
5.3136963844299325,-1.2189090251922607,9.136882781982422,-0.1952979564666748,-2.9537889957427983,-0.40742260217666626
5.195778369903565,-1.0592072010040283,9.001083374023438,-0.16044251620769504,-3.399760484695435,-0.42626678943634033
5.587263584136964,-1.3417040109634402,8.841960906982422,-0.11245398223400116,-3.826687574386597,-0.4130229949951172
6.897697925567628,-0.7228277325630189,9.515707015991211,-0.04365230724215508,-4.249875068664551,-0.28494691848754883
7.665068626403809,-0.8259176611900331,10.759745597839357,-0.05398835614323617,-4.601616859436035,-0.12894491851329806
9.208815574645998,-2.1935384273529057,12.2946252822876,-0.1238890141248703,-4.845547676086426,0.025795096531510357
12.095100402832031,-4.311443805694581,13.52098274230957,-0.25287342071533203,-4.770896434783936,0.13312482833862305
13.870556831359865,-6.325320720672608,12.746238708496094,-0.1125822365283966,-4.589937686920167,0.01697529293596745
20.141658782958984,-5.802565097808839,14.78866958618164,-0.026029845699667934,-4.200283050537109,-0.27517262101173406
25.522142410278324,-5.046885013580323,11.389019012451172,-0.19151683151721957,-3.70569396018982,-0.5426987409591675
29.329332351684574,-4.15236759185791,4.288586139678956,-0.39814737439155584,-3.351350784301758,-0.9215463995933534
31.168350219726562,-5.324607372283936,1.9669866561889648,0.022632418200373653,-3.5495166778564453,-1.6397640705108643
30.59014701843262,-3.9934988021850586,3.684669017791748,0.29210418462753296,-3.516812086105347,-1.9569077491760254
36.06383514404297,-3.211150646209717,8.027100563049318,0.24717618525028232,-3.6150891780853276,-2.1864848136901855
38.99986648559571,-5.060302734375,19.67709541320801,-0.16325384378433228,-2.3764045238494877,-2.013113021850586
25.476751327514652,-5.447399616241456,15.572980880737305,-0.587588906288147,-1.2173835039138796,-1.5402947664260866
20.8354663848877,-5.684492111206055,13.70928478240967,-0.702617108821869,-0.8466905355453491,-1.2649363279342654
14.82198715209961,-5.805466651916504,11.724655151367188,-0.6768980026245117,-0.6437596082687378,-1.0901015996932986
11.719805717468263,-5.52020263671875,11.338180541992188,-0.590179443359375,-0.6947655081748964,-1.019468069076538
10.27720832824707,-5.777828216552734,12.971357345581055,-0.3988443613052368,-0.5612952113151551,-0.9473606944084169
8.237742424011232,-6.401301860809327,14.323017120361328,-0.015101373195648193,-0.18429000675678256,-0.8967123031616211
5.803886413574219,-5.766364574432374,15.308523178100586,0.47921282052993774,0.3659406304359436,-0.9053258299827577
2.8292844295501713,-3.8870763778686523,14.758638381958008,0.7722820043563843,1.0860103368759157,-0.8449037075042725
-1.8091535568237305,-1.7404545545578005,11.99012565612793,0.841190278530121,1.7298047542572021,-0.7778124809265137
-6.588646411895753,0.20712329447269442,8.6630859375,0.631064772605896,2.071109533309937,-0.7410151958465576
-8.772083282470703,0.39479750394821167,6.58185625076294,0.29529130458831787,2.149780750274658,-0.6748148798942567
-8.437235832214357,-0.6498316526412964,5.816507816314698,0.07974915206432343,2.217081785202027,-0.5354920625686646
-8.320105552673342,-1.7188402414321902,5.404100894927979,0.10541218519210815,2.3476326465606694,-0.31247559189796453
-9.507305145263672,-1.202860474586487,3.9429473876953125,0.23081988096237183,2.4881446361541752,-0.04398828744888306
-11.59023952484131,0.21791785955429077,1.5297141075134277,0.25929129123687744,2.4533891677856445,0.17226634919643405
-11.939437866210938,1.2921847105026247,0.712181568145752,0.07948315143585205,2.2494785785675053,0.31353676319122314
-10.286588668823242,1.0224634408950808,1.673384428024292,-0.17513395845890048,2.174762725830078,0.45418834686279297
-8.810768127441406,-0.06344287097454071,2.5888717174530034,-0.24113193154335022,2.3319747447967534,0.6188350915908813
-8.063162803649904,-0.15163229405879977,2.6789171695709233,-0.17798641324043274,2.5921168327331543,0.7715163826942445
-7.480863571166992,0.7373719215393066,2.0242209434509277,-0.18359516561031344,2.8636317253112793,0.9088880419731141
-6.884534358978272,1.2795040607452393,1.031935453414917,-0.27544149756431585,3.1105856895446777,1.0166010856628418
-5.916206359863281,1.478859066963196,0.251647412776947,-0.3578269183635712,3.2796669006347656,1.083332657814026
-3.7474846839904785,2.1433920860290527,1.0573414564132693,-0.4679657816886902,3.4197168350219727,1.1347292661666872
-1.0793817043304443,2.7000596523284917,1.8674166202545166,-0.6099845170974731,3.6896369457244877,1.1396028995513916
0.7207288146018983,3.117329359054566,1.7788331508636475,-0.6892503499984741,3.9425795078277592,1.0332950353622439
3.402991771697998,3.2476508617401127,1.8880194425582888,-0.7300539016723633,4.071967601776124,0.8313708305358887
6.803740501403809,2.731510400772095,2.020814895629883,-0.6766927242279053,4.087071418762207,0.5393548607826234
10.512311935424805,0.7354919910430908,2.1892530918121342,-0.4585785567760468,4.0227203369140625,0.19484539330005649
13.298507690429688,-0.8293343782424927,1.6385173797607422,-0.06421139091253282,3.8379344940185547,-0.0702657401561737
15.98477077484131,-1.8064939975738525,0.7717294096946717,0.23832827806472778,3.5277006626129155,-0.13998588919639587
17.86019325256348,-3.3941502571105957,-0.4722452163696289,0.4763783514499665,3.0762307643890385,-0.018145084381103516
19.06968498229981,-2.9714932441711426,-1.397722125053406,0.6164929270744325,2.4780526161193848,0.29271784424781805
19.709362030029297,-2.8714931011199956,-2.6057372093200684,0.592669427394867,1.8544025421142578,0.6535822153091431
17.779935836791996,-3.0288536548614506,-4.236166000366211,0.6760152578353882,1.1700741052627566,0.8968683481216431
12.362538337707521,-0.8970182538032533,-9.21226215362549,0.7912803888320923,0.37068456411361694,0.9323130249977113
10.691033363342287,4.053635597229004,-11.214305877685547,0.4965468347072602,-0.9996428489685059,0.8339838385581971
103.53328704833986,26.32421112060547,58.02012252807618,-4.697434425354004,-2.020262479782105,1.2169724702835085
0.6863330006599427,10.738775253295898,-18.61947250366211,0.3561463654041291,4.940875053405762,-1.3724223375320437
17.46008110046387,-17.900192260742188,19.745830535888672,-1.0887612104415896,1.7853950262069704,0.9664150476455688
-6.586793899536133,12.283204078674318,11.164304733276367,-0.4047155976295471,2.394072771072388,0.3530042767524719
0.043544553220272064,-7.058910369873047,13.633961677551271,-0.1338889449834824,1.7228338718414307,-0.10853320360183716
-1.7884804010391238,-10.762285232543945,12.512024879455568,0.13347752392292025,0.6898198127746582,0.05528846755623818
0.948440432548523,-1.7078063488006592,11.777392387390138,0.13192956149578097,-0.08775750547647478,-0.21695807576179504
4.27847957611084,-3.8467919826507573,9.318685531616211,0.17095261812210083,-0.2876508533954621,-0.4665873050689697
7.11939287185669,3.13909125328064,9.114727020263672,0.16149204969406128,-0.2217511981725693,-0.32046607136726385
6.830094814300538,2.9089059829711914,9.091254234313967,-0.04831427335739136,-0.05991673097014428,-0.0559682622551918
5.546042442321777,-0.8698305487632753,9.149336814880373,-0.13482485711574557,0.09919369965791704,0.11883965134620667
4.159249782562257,-2.466598749160767,9.410871505737305,-0.08037989586591722,0.13244035840034485,0.08184855431318284
4.198392868041992,-0.9529194235801698,9.852134704589844,-0.06804414838552476,0.09660594165325165,0.02740362286567688
4.1358046531677255,-0.41371712088584905,10.090514183044435,-0.11517832428216936,0.011111658066511154,0.0341843031346798
4.389305591583253,-0.16250731050968173,10.086182594299318,-0.19495683908462524,-0.04757159203290939,0.09817817062139512
4.263949394226074,-0.8777362108230591,9.894516944885256,-0.23439034819602966,-0.1088177189230919,0.13377022743225098
4.076166152954102,-1.4754199981689453,9.992876052856445,-0.2509258091449738,-0.17708954215049744,0.12259526550769806
4.130680084228516,-1.511908769607544,9.987241744995117,-0.23433467745780945,-0.2580614387989045,0.08851797878742218
4.4083619117736825,-1.3811047077178955,9.834005355834961,-0.22328148782253268,-0.31268844008445745,0.07073363661766052
4.501924991607667,-1.4039337635040283,9.499606132507326,-0.21160385012626648,-0.33834674954414373,0.06669798493385315
5.022867679595948,-1.2613376379013064,9.593862533569336,-0.18727187812328341,-0.44302910566329956,0.0007206657901406288
3.9853625297546387,-1.7544834613800049,9.066498756408693,-0.14025422930717468,-0.44293966889381414,0.014202896505594254
5.160709857940675,-0.7526935935020448,9.672250747680664,-0.20141804218292236,-0.34634333848953247,0.05587301030755044
4.433734893798828,-1.5419445037841797,9.355736732482912,-0.16641876101493835,-0.3731094896793366,0.056576646864414215
4.549432277679444,-1.8421874046325684,9.333539962768555,-0.13150832056999207,-0.5336422324180604,-0.023085070773959163
4.887339115142823,-0.992652714252472,8.9456262588501,-0.12928059697151184,-0.4289656579494477,0.04157814383506775
5.414409160614015,-0.9316837787628174,9.285071372985842,-0.1273646056652069,-0.4213829040527344,0.06523888558149339
4.702198028564453,-1.6411142349243164,9.215568542480469,-0.10676565766334534,-0.399316281080246,0.06786565482616425
4.226123332977296,-1.771726369857788,9.034707069396974,-0.09504617005586626,-0.4254645109176636,0.05807029455900192
4.54583501815796,-1.4463237524032595,9.362783432006836,-0.08979427069425584,-0.5018144845962524,0.029732285067439083
4.161293029785156,-1.224097728729248,9.47380256652832,-0.09355904906988145,-0.573093354701996,0.022216439247131348
4.410201072692871,-1.593086123466492,9.283451080322266,-0.10451623797416687,-0.6810255646705629,-0.013829018920660019
4.795856952667237,-1.621441125869751,8.904582023620607,-0.11008498817682268,-0.6956558227539062,-0.032680951058864594
4.9077162742614755,-1.53888213634491,8.871159553527834,-0.0886039286851883,-0.7660624384880067,-0.07719375193119049
5.308254241943359,-1.2219746112823486,8.968147277832031,-0.10154560208320618,-0.7255769968032837,-0.08566669374704362
5.189871311187745,-1.1671918630599978,8.816630363464357,-0.12898634374141696,-0.7086682319641113,-0.10146700590848924
5.722552299499512,-1.0760700702667236,9.005062103271484,-0.12856483459472656,-0.6940743327140809,-0.08888573199510576
5.10481071472168,-2.080838203430176,8.320719718933107,-0.09343967586755754,-0.6456204652786255,-0.10492701083421709
5.563258647918702,-1.8316413164138796,8.606571197509766,-0.05434412136673928,-0.6584213376045228,-0.1312289834022522
5.130822658538819,-2.3017678260803223,8.830803871154787,0.0065858736634254456,-0.6486911177635194,-0.17046013474464417
5.267459392547608,-2.139778852462769,8.754369735717773,0.06945529580116272,-0.67354553937912,-0.2028342038393021
5.356590747833253,-1.5988875627517702,8.81311893463135,0.08423431962728502,-0.7141988277435303,-0.230502262711525
4.661139965057374,-1.9454082250595095,8.888534545898438,0.1478075385093689,-0.8551839590072632,-0.2988427579402924
5.631206512451172,-1.0205464363098145,9.493850708007812,0.15665018558502197,-0.9321073889732362,-0.2991829514503479
4.770550727844238,-1.3727599382400515,9.542498588562013,0.14495752751827243,-1.0546317100524902,-0.31446802616119385
5.060279369354249,-1.2226982116699219,9.473047256469727,0.1411830186843872,-1.2206765413284304,-0.3449476361274719
5.943219661712647,-0.6471931338310243,9.43406391143799,0.11701703071594238,-1.3735053539276123,-0.342584103345871
5.625890254974366,-0.7640910148620605,9.385457038879396,0.0914047360420227,-1.5170887708663943,-0.3313460946083069
5.543187141418457,-0.6657767891883851,9.437982559204102,0.05534555390477181,-1.6852381229400635,-0.3233751654624939
5.551003932952882,-1.1688653230667116,9.234146118164062,0.04262650385499001,-1.9135017395019531,-0.34260490536689764
5.101470947265625,-1.3113601207733154,9.088585853576662,0.06554051488637926,-2.2245457172393803,-0.4093637466430664
5.525059700012207,-1.416691541671753,8.825904846191406,0.13220791518688205,-2.5768990516662598,-0.5003661513328553
5.73207950592041,-1.1080578565597536,8.940225601196289,0.17321079969406128,-2.9829967021942143,-0.562022626399994
6.224966049194336,-0.46419185400009155,9.223978042602539,0.22598011791706088,-3.4676308631896973,-0.5537856221199037
6.952075004577637,0.03611944615840912,10.417580604553224,0.2547910213470459,-3.9363555908203125,-0.456029623746872
8.456993103027344,-0.5785143375396729,11.831012725830078,0.2565265893936157,-4.2980923652648935,-0.24745595455169678
10.523036003112795,-1.873385787010193,12.716480255126953,0.17547079920768738,-4.391239643096925,-0.12223208695650102
12.221348762512209,-3.0679988861083984,12.715526580810547,0.03978763520717621,-4.3487820625305185,-0.06509056687355042
15.741678237915039,-2.950223922729492,13.801856040954592,-0.015690511092543605,-4.174685001373292,-0.08405360579490662
22.24987030029297,-1.8425889015197754,14.662420272827148,-0.32187819480895996,-3.714973688125611,-0.03877197951078415
24.21333503723145,-2.313478469848633,10.299110412597656,-0.7284786701202393,-3.2315599918365483,-0.04285635426640511
26.024999618530277,-6.593597412109375,5.985468387603761,-0.5681990385055542,-3.091704607009888,-0.31460219621658325
27.480262756347656,-11.134851455688477,4.62020206451416,0.8068239092826844,-3.044814825057984,-0.6763272285461426
23.981683731079105,-8.117537498474123,2.3314781188964844,2.152612924575806,-3.358999729156494,-0.7979878783226014
36.071857452392585,-3.773411750793457,11.544579505920412,2.210802793502808,-3.410910129547119,-0.7298883199691772
30.293701171875,-0.8020644783973695,16.97414588928223,1.431821346282959,-2.0841629505157475,-0.5590546131134033
22.118762969970703,0.46713441610336304,12.604400634765625,0.1859996169805527,-1.5322667360305788,-0.40197062492370605
19.55377197265625,-0.5107986330986024,11.565711021423342,-0.7931753993034364,-1.2891533374786377,-0.47447255253791815
15.394093513488771,-2.240410804748535,9.704286575317383,-1.4032205343246462,-1.2464685440063477,-0.6449376344680786
14.932802200317383,-4.276328563690186,10.380860328674318,-1.5694886445999148,-1.227269172668457,-0.8922953009605409
13.273818016052248,-6.929334163665772,10.907737731933594,-1.2209922075271609,-0.9625710844993592,-1.036938190460205
10.25228500366211,-8.33129405975342,10.665487289428711,-0.3626025319099426,-0.6946944594383241,-1.0921697616577148
7.647248268127441,-7.287333011627198,11.23784923553467,0.47640371322631836,-0.46700033545494085,-1.0115534067153933
5.73304319381714,-4.600446224212647,11.905734062194826,0.9207345843315126,-0.12040142714977264,-0.7691377997398378
3.3843433856964116,-2.1565153598785405,11.805790901184084,0.9015247821807861,0.3736785650253296,-0.4808314740657807
0.1725163757801056,-0.7043660283088685,10.693533897399904,0.635062575340271,0.9433446526527406,-0.22298219799995422
-1.9464591741561892,-0.6884124279022217,8.819608688354492,0.40997532010078436,1.434706687927246,-0.06966763734817505
-5.117089748382569,-0.1410852521657944,6.341933250427246,0.3612289130687714,1.7525966167449951,-0.03468951210379601
-7.196772098541261,0.5010276436805726,4.381238460540772,0.3567425608634949,1.859208345413208,-0.0463271550834179
-8.056707382202148,0.7477746605873109,3.7456429004669194,0.34068411588668823,1.8326357603073122,-0.05350789427757263
-7.195202350616456,0.28668832778930664,4.699756622314453,0.291703075170517,1.8763597011566162,-0.025612227618694305
-6.588435649871827,-0.3376478850841523,5.18205451965332,0.2824729084968567,2.132631063461304,0.06797505915164948
-7.36945676803589,-0.22736744582653048,4.673028945922852,0.29862901568412786,2.430299520492554,0.16036227345466614
-8.000315666198732,0.3871613442897797,3.4800329208374023,0.2048047631978989,2.677149772644043,0.270876556634903
-8.638785362243654,0.4281800389289856,2.080555677413941,0.07911750674247742,2.8113029003143315,0.37700012326240545
-8.022877693176271,0.4884887933731079,1.717759370803833,-0.05323183164000512,2.887751579284668,0.5176647305488588
-6.913600444793702,0.15711888670921326,1.8584185838699343,-0.13684728741645813,3.008545398712158,0.6594247221946717
-5.228609561920167,0.3019785583019257,2.5497572422027592,-0.23139876127243042,3.239442586898804,0.8364505767822266
-4.49180793762207,0.2101040780544281,2.2097961902618413,-0.28717100620269775,3.545442342758179,1.0102621316909792
-4.200408935546875,0.670825719833374,0.9333067536354066,-0.2927593886852265,3.7727108001708984,1.168039917945862
-3.4771564006805424,1.5752800703048708,-0.11485777795314789,-0.3343938291072846,3.82577919960022,1.2730457782745361
-1.9730602502822878,2.449701070785523,0.19455672800540927,-0.45571351051330566,3.7783410549163823,1.3021697998046875
0.5743495225906372,2.751356601715088,1.6608341932296755,-0.6125572323799134,3.791660785675049,1.2496354579925537
3.717604637145996,2.090162754058838,3.196042060852051,-0.6762498021125795,3.918013572692871,1.1210738420486452
6.545563220977784,1.5960426330566406,3.840059280395508,-0.5941070318222046,4.078001976013184,0.9589951634407045
9.324456214904787,0.6672024726867676,3.6594264507293706,-0.4308406710624695,4.133501529693604,0.7706239223480225
11.774094581604006,0.420301616191864,3.1146340370178223,-0.23583984375,3.974349737167359,0.6085438132286073
14.515881538391115,0.3154876232147217,2.671022176742554,-0.18032550811767578,3.667463064193726,0.5000818967819214
17.43247795104981,-1.668910622596741,2.802262783050537,-0.17255280911922458,3.2698671817779545,0.4701482057571411
20.02978515625,-3.375989675521851,2.6905345916748047,-0.045950666069984436,2.8719365596771245,0.6113404035568237
21.429559707641605,-3.163213968276978,1.3912324905395508,-0.00484724435955286,2.4416692256927495,0.8963369727134706
19.846673965454105,-2.802574634552002,-1.5044785737991335,-0.0899413898587227,1.8710622787475586,1.1827877759933474
17.69680404663086,-2.079342603683472,-3.2233698368072514,-0.24002563953399658,1.1025373935699463,1.4302898645401003
15.589912414550781,-1.3980538845062256,-3.860913515090943,-0.4165251553058625,0.35760462284088135,1.5745519399642947
12.350053787231445,-0.3163768947124482,-5.371201515197754,-0.6090434193611146,-0.31119149923324585,1.6121094226837158
86.37854766845705,6.402181625366211,49.17321395874024,-1.3389250040054324,-0.7838884592056274,0.5312581658363343
0.3496565520763398,25.19529533386231,-10.96914291381836,0.36295327544212347,3.4424602985382085,-1.0069785118103027
9.21111583709717,-20.560672760009766,16.238609313964844,0.08589648455381395,2.336142063140869,0.1250642389059067
-7.113598346710206,5.0755352973938,12.960682868957521,0.020288208499550823,1.2881503105163574,0.5839648246765137
-2.391110420227051,1.6962338685989382,13.874087333679201,-0.009545802138745786,0.7004563808441162,-0.2002338916063309
-0.28599750995635986,-10.894172668457031,11.682278633117678,-0.020214522257447246,-0.13318835198879245,-0.3742518424987793
2.712351560592652,-1.4043990373611452,11.467076301574709,-0.07305862009525299,-0.5660592913627626,-0.39499372243881226
7.499042034149171,0.06965963542461395,8.801363945007326,-0.09528857469558716,-0.5392901301383973,-0.39932402968406683
8.30792236328125,-2.3337051868438725,7.8000993728637695,-0.023522373288869858,-0.26069644093513494,-0.22440794110298157
6.900271892547608,-0.0704198032617569,8.504079818725586,0.12354797869920732,0.09070356935262681,-0.07401484251022339
4.877223968505859,-1.7446556091308594,9.16981601715088,0.12920440733432773,0.27340781688690186,0.003519581397995353
3.9369096755981445,-2.0666062831878667,9.751970291137695,0.15272344648838046,0.2538979649543762,-0.0011275634169578552
3.991135597229004,-1.4570780992507937,9.881315231323242,0.11671479046344757,0.18623740971088412,-0.02160787582397461
4.511617183685304,-0.9751162528991699,9.808599472045898,0.06582093238830566,0.1492840051651001,-0.0013800995657220485
4.55130434036255,-1.2485580444335938,9.685792922973633,0.02823196910321713,0.14454472064971924,0.04225913807749749
4.17141056060791,-1.5156675577163699,9.727136611938477,0.008360923267900945,0.12749913334846497,0.05096672475337982
3.850044965744019,-1.433636546134949,10.01735019683838,-0.01883580908179283,0.054699782282114036,0.042055644094944
3.9753737449645996,-1.314068913459778,10.023928642272951,-0.06643407791852952,-0.03211800381541253,0.03912362456321716
4.419975757598878,-1.2228385210037234,9.708964347839357,-0.10201279819011688,-0.0799602195620537,0.05548790842294693
4.653435230255128,-1.364530324935913,9.49323844909668,-0.12171004712581635,-0.07639818638563158,0.07922374457120897
4.426058292388917,-1.4970290660858154,9.553770065307617,-0.1329617202281952,-0.0759301856160164,0.09550240635871887
4.237755298614503,-1.584118962287903,9.651540756225586,-0.14300043880939486,-0.09593837708234788,0.09589225053787231
3.9617819786071777,-1.7793148756027224,9.59006977081299,-0.1452974230051041,-0.1965586543083191,0.03716637566685677
4.748514175415039,-1.053150296211243,9.78323268890381,-0.1784123927354813,-0.1518358588218689,0.10251225531101227
4.014893531799316,-1.9547940492630007,9.382784843444826,-0.17649962007999423,-0.22667908668518066,0.056979712098836906
4.62537956237793,-1.52189040184021,9.638726234436037,-0.2017297595739365,-0.21676699817180636,0.0595918670296669
4.011986255645753,-2.0192790031433105,9.238344192504883,-0.1893296241760254,-0.21038804948329928,0.06919515132904053
4.8043317794799805,-1.837219834327698,9.793898582458498,-0.20725543797016147,-0.24229076504707336,0.04240952432155609
4.217199325561523,-1.7602196931838991,9.09610366821289,-0.18040069937705994,-0.22713138163089755,0.0516488254070282
5.060701847076417,-1.3603525161743164,9.688579559326172,-0.22045743465423584,-0.21274212002754211,0.09723012894392015
4.270905494689941,-1.7933715581893923,9.106889724731445,-0.1961575150489807,-0.25042143464088445,0.0751131922006607
5.200027942657472,-1.3698960542678835,9.702704429626467,-0.2364861220121384,-0.21994709968566895,0.12325713038444519
4.07425355911255,-1.9563554525375368,8.946561813354492,-0.20921339094638827,-0.23521819710731506,0.09592505544424058
4.8777432441711435,-1.5469131469726562,9.60215473175049,-0.25031825900077825,-0.21792088449001315,0.12359432876110077
4.4355316162109375,-2.0739693641662598,9.180278778076172,-0.23216921091079712,-0.20032708346843722,0.11978071928024292
4.316899299621582,-2.30206847190857,9.032754898071289,-0.20988707244396212,-0.23973864316940308,0.06674301624298096
5.041022777557374,-1.9151045083999636,9.207873344421388,-0.20036132633686068,-0.16507890820503235,0.08941804617643358
4.661525726318359,-2.641871929168701,8.722372055053711,-0.15369883179664612,-0.12466713786125183,0.0637345388531685
4.462193965911866,-2.5978641510009766,8.814362525939943,-0.11058420687913896,-0.0660364180803299,0.052576970309019096
3.836665630340576,-3.0132622718811035,8.612929344177248,-0.027449268847703934,-0.13696818053722384,-0.037648569792509086
4.813169956207276,-1.4700088500976562,9.707592964172365,-0.021703729405999187,-0.11931340396404266,-0.02723800949752331
4.084357738494874,-2.2106859683990483,9.270392417907717,-0.00784950237721205,-0.13143236935138705,-0.04941709339618683
4.376551628112793,-2.1999580860137944,9.27169704437256,-0.028850246220827103,-0.18049247562885287,-0.07319046556949615
4.41806697845459,-1.9864615201950075,9.170705795288086,-0.0034077437594532967,-0.2197154611349106,-0.09531687945127489
4.2642669677734375,-1.7785863876342773,9.35415554046631,-0.032501496374607086,-0.26217606663703924,-0.10718944668769836
4.572680950164796,-1.7197611331939697,9.426012992858888,-0.06772112101316453,-0.3188964426517487,-0.11090272665023804
4.187016010284425,-1.42249071598053,9.868649482727053,-0.1151208207011223,-0.3992263078689575,-0.1046169623732567
4.056911468505859,-1.7226455211639404,9.72807502746582,-0.17459104955196383,-0.5156046152114868,-0.11838626861572266
4.197101593017578,-1.7982628345489502,9.57131099700928,-0.20979279279708862,-0.6504604220390321,-0.1522637903690338
3.886934280395508,-1.7487530708312988,9.116438865661623,-0.19633312523365024,-0.9622340798377992,-0.2457677721977234
5.341242790222168,-0.3902357220649719,10.181403160095217,-0.3592884242534638,-0.8795678615570068,-0.13710813224315646
3.1266603469848633,-2.2959837913513184,9.747561454772951,-0.3210539519786835,-1.106205940246582,-0.1439436972141266
3.664728403091431,-2.2627136707305913,10.624182701110842,-0.2911231219768525,-1.6058635711669922,-0.29807701706886297
2.731556653976441,-2.575131893157959,9.326299667358398,-0.15743765234947205,-1.8541152477264404,-0.3431552350521088
4.116800785064698,-1.6658815145492556,9.505713462829592,-0.21283337473869324,-2.1174414157867436,-0.34564417600631714
4.886431217193604,-2.0173397064208984,9.65535640716553,-0.15075089037418368,-2.468635082244873,-0.39677631855010986
4.700483322143555,-1.751653075218201,9.559607505798342,-0.13100023567676547,-2.8395071029663086,-0.4435603320598603
5.1481671333313,-2.322366237640381,9.684877395629883,-0.08550743758678436,-3.2369284629821777,-0.4660567939281464
4.731349468231202,-1.8125450611114502,9.268103599548342,-0.004237933550029994,-3.7130870819091797,-0.4906072318553925
5.294709205627441,-0.9841471910476685,9.839836120605469,-0.02410554140806198,-4.246464252471925,-0.4458229243755341
6.069541931152344,-1.1976666450500488,10.786117553710938,-0.14794129133224487,-4.768439769744874,-0.2935885787010193
7.520560741424561,-2.5962371826171875,11.771700859069826,-0.2780603766441345,-5.165960311889648,-0.11570873111486436
10.321568489074709,-3.6036937236785893,13.699213027954102,-0.34818994998931885,-5.316064357757569,-0.04058106243610382
12.152896881103516,-4.797402858734132,13.34463119506836,-0.2724182605743408,-5.1603150367736825,-0.0642191842198372
16.329259872436527,-6.3765058517456055,12.73873805999756,0.1350833773612976,-5.034740924835206,-0.19506418704986572
22.357755661010746,-6.459250450134277,10.335103034973146,0.7606413960456849,-4.918992519378663,-0.47735828161239624
28.33482170104981,-4.381943225860597,4.480338096618652,1.0461232662200928,-4.873119831085206,-0.8201098442077637
29.52593231201172,-2.8142511844635014,-1.0728466510772705,1.336829423904419,-4.928846836090089,-1.4066368341445925
35.22450256347656,-2.6669895648956303,1.944355368614197,1.273805856704712,-4.9969801902771005,-1.7684895992279053
30.375125885009766,-0.5131481885910034,0.18069738149642944,1.3338321447372439,-4.934809207916261,-2.3029727935791016
36.46800613403321,1.68113374710083,3.566658258438111,0.8522521853446962,-5.288487434387207,-2.72708010673523
39.67114639282227,-1.3390681743621826,14.590880393981935,0.18100915849208835,-4.2040510177612305,-2.7545061111450195
28.516765594482422,-1.0849504470825195,11.959861755371094,-0.6860277056694032,-3.197075843811035,-2.5152986049652104
27.00815200805664,-2.385886430740357,13.108487129211428,-1.3473377227783203,-2.5633339881896973,-2.425451517105103
21.78099822998047,-4.243463039398194,12.914067268371584,-1.723145365715027,-1.8615190982818604,-2.3111274242401127
18.470106124877933,-7.35671091079712,13.963666915893555,-1.751669526100159,-1.3145439624786377,-2.1887431144714355
14.58138942718506,-11.523090362548828,13.832193374633789,-0.9373467564582826,-0.6223958730697632,-1.9806462526321413
8.887090682983398,-11.535715103149414,13.268041610717773,0.35107782483100897,0.00494052516296506,-1.8456571102142334
3.320931911468506,-8.352653503417969,12.148533821105959,1.2916271686553955,0.4543337523937226,-1.6772363185882568
-0.9711883664131166,-5.368031978607179,11.444963455200195,1.6310116052627566,0.7891501188278198,-1.4211230278015137
-2.7768898010253906,-3.459315776824951,11.596583366394045,1.4523328542709353,1.159386157989502,-1.1142686605453493
-4.5331573486328125,-3.105849981307984,10.887448310852053,1.0867998600006104,1.689542293548584,-0.8268485665321351
-7.424609184265137,-3.7415857315063477,8.925442695617678,0.812012791633606,2.1375472545623784,-0.6089479923248291
-10.430237770080568,-3.903026580810547,6.298880577087402,0.6606642603874208,2.334200859069824,-0.4203373193740845
-12.31614875793457,-3.271828889846802,4.819022655487061,0.49607267975807195,2.317424774169922,-0.24922297894954684
-11.806310653686523,-2.3601107597351074,5.680821895599366,0.10675667226314545,2.3178915977478027,0.023786438629031185
-10.25851821899414,-2.9205019474029545,7.348555564880371,-0.3732419312000275,2.6120986938476562,0.4001980125904084
-10.36590099334717,-4.583745956420898,7.225857734680176,-0.593442440032959,3.1143615245819096,0.7504040598869325
-11.723260879516602,-4.722982406616211,5.60917615890503,-0.5552273988723755,3.4896690845489506,1.064037561416626
-12.040138244628906,-2.9768707752227788,4.052837848663331,-0.5833001732826234,3.691560506820679,1.3742942810058594
-11.713619232177734,-1.2435587644577029,2.702350616455078,-0.8330207467079164,3.8133978843688965,1.670061230659485
-9.994565010070803,-1.0950716733932497,2.5633039474487305,-1.116018295288086,3.9127814769744877,1.9204493761062624
-7.062285900115968,-0.9703283309936523,3.145181655883789,-1.2671426534652712,4.140495300292969,2.1526515483856206
-5.107643127441406,-0.6723471879959106,2.302294492721558,-1.2769888639450075,4.46375322341919,2.341780662536621
-4.228113651275636,0.46437299251556396,0.14428704977035522,-1.2151401042938232,4.597939968109132,2.4806747436523438
-2.422826528549195,2.187652587890625,-1.0007297992706299,-1.321932315826416,4.476486682891847,2.6055152416229252
0.9572978615760804,2.6850469112396245,-1.2599600553512575,-1.5463478565216064,4.312620639801026,2.7558999061584473
4.717046737670898,2.645086526870728,-1.1235251426696777,-1.6288818120956423,4.108367443084718,2.834794521331787
8.891171455383303,2.187936305999756,-1.1332978010177615,-1.5492100715637207,3.876593351364136,2.7897586822509766
12.395437240600586,1.411652445793152,-1.573867440223694,-1.2731256484985352,3.5682251453399663,2.616980314254761
16.094627380371094,0.9377529621124268,-0.5244972109794618,-1.0304263830184939,3.1875739097595215,2.4414465427398686
20.634691238403324,-0.9235177636146547,1.5084190368652344,-0.8295484185218812,2.976690530776978,2.278230667114258
23.178750991821293,-3.312480211257935,1.7522776126861572,-0.3711431622505188,2.933630228042603,2.062150001525879
22.82058334350586,-3.4548091888427734,0.1529446244239807,0.0967545360326767,2.7829706668853764,1.8014689683914187
21.08019256591797,-2.475837230682373,-1.9536300897598269,0.23151102662086487,2.434470415115357,1.5871219635009766
17.52181625366211,-2.2402951717376713,-3.8579056262969975,0.0827392265200615,1.9557944536209109,1.459557294845581
38.2040138244629,-3.871297121047974,-3.6092908382415776,1.3420056104660036,1.619147539138794,-0.40582928061485296
66.6871337890625,13.366225242614748,6.646616458892823,1.3790547847747803,0.23757858574390414,-2.8707535266876225
27.72976875305176,-13.849241256713867,8.031416893005373,0.5520052909851074,3.7638080120086674,-1.8531038761138916
-0.3512263298034668,-9.51765251159668,11.937511444091797,1.3619613647460938,2.568087100982666,-0.14521612226963046
-4.62747859954834,19.85665512084961,18.288463592529297,1.1334292888641357,2.6573231220245366,-0.3114714026451111
1.4270832538604736,0.25920131802558904,12.958810806274414,0.7638638615608216,2.1925854682922363,-1.0834500789642334
-1.0661139488220215,-7.24289608001709,11.564727783203125,0.4644275605678559,1.1393101215362549,-0.4329043924808503
1.9917802810668945,4.831315517425538,14.11996078491211,0.22792166471481323,0.03402531147003174,-0.22018058598041537
4.550593852996827,-0.7225208282470703,10.414752960205078,0.011747127398848534,-0.1250579506158829,-0.24356091022491455
6.043108940124512,-5.727144241333008,7.842612266540527,0.052307251840829856,-0.11037641763687134,-0.12833160161972046
6.103113174438477,-0.7140026092529297,8.647746086120607,0.15541838109493258,0.047425538301467896,-0.10440247505903245
5.59600591659546,0.21128605306148532,9.300831794738771,0.14193664491176608,0.20878417789936068,-0.0324302539229393
4.88074827194214,-0.39686816930770874,9.684933662414553,0.05865124240517617,0.25504785776138306,0.08455126732587816
4.112111568450929,-1.3100154399871826,9.70510768890381,0.008461593650281431,0.21832504868507385,0.1411229968070984
4.254086494445801,-1.6886179447174072,9.764198303222656,-0.01795466430485249,0.15218570828437805,0.11757824569940568
4.326416015625,-1.8386273384094238,9.730635643005373,-0.021805133670568466,0.11328113079071045,0.0913277491927147
4.371854305267335,-1.5557215213775635,9.747833251953125,-0.028047924861311916,0.08581213653087616,0.08558983355760576
4.350029468536378,-1.2545702457427979,9.827951431274414,-0.05529110506176949,0.051918886601924896,0.09393399953842163
4.375720977783203,-1.299731969833374,9.804601669311523,-0.08879105001688005,0.017687849700450897,0.11981541663408281
4.448422431945801,-1.7322949171066286,9.564425468444826,-0.09274522960186005,0.0012172446586191654,0.13738544285297397
4.090962886810304,-2.2314078807830815,9.272708892822266,-0.05684112757444382,-0.07884820550680162,0.06160086393356323
4.541653633117676,-1.521470069885254,9.449947357177734,-0.05885447189211846,-0.02127140760421753,0.09961706399917603
5.117504119873047,-1.6068015098571777,9.704695701599123,-0.04624500498175622,-0.007516593672335148,0.09940255433321
4.136287689208984,-2.1419854164123535,9.128849983215334,-0.024069977924227718,-0.015826025977730755,0.07103867828845978
4.777651786804199,-1.4898204803466797,9.565774917602539,-0.03904267773032189,0.010983418673276901,0.0882220044732094
4.573973655700684,-1.494541883468628,9.459409713745117,-0.015118553303182127,0.02779684215784073,0.09708474576473236
4.803487300872804,-1.6060452461242676,9.546393394470217,-0.03312844783067703,0.045975271612405784,0.09991529583930969
4.515937328338624,-1.817648530006409,9.227234840393068,-0.005294684786349536,0.07556270807981492,0.09860512614250183
5.331185817718507,-1.3956856727600098,9.681798934936523,-0.019978960976004604,0.16280043125152588,0.16144467890262607
3.5568509101867676,-2.545068502426148,8.677504539489748,0.032458655536174774,0.10143608599901201,0.07775793224573137
5.00681209564209,-1.2264612913131716,9.703655242919922,-0.006030583754181862,0.1690499931573868,0.13804689049720764
4.269482612609863,-1.5883803367614746,9.442333221435547,0.030024543404579163,0.11768241226673126,0.05412437394261361
4.518893241882324,-1.361720085144043,9.67024040222168,-0.05233418941497803,0.23383198678493503,0.1519564688205719
3.7652585506439213,-2.002960681915283,9.096761703491211,-0.05736916884779931,0.22361135482788086,0.13912025094032288
3.47527289390564,-2.8391935825347905,8.810242652893068,-0.014100502245128156,0.11050210893154144,0.03781529143452645
4.172786712646484,-1.9250233173370361,9.556361198425295,-0.008178913965821266,0.1307273805141449,0.0644480809569359
3.7661314010620117,-2.0799043178558354,9.4262170791626,-0.017118582502007488,0.1377677619457245,0.057256598025560386
4.254475116729737,-2.31580662727356,9.244824409484865,0.017300419509410858,0.09116446226835252,0.0072336127050220975
4.509840488433839,-1.425284266471863,9.482046127319336,0.045333608984947205,0.1453310698270798,0.019249308854341507
4.4498963356018075,-1.5992369651794434,9.447781562805178,0.03010966442525387,0.1624833792448044,0.02461685985326767
3.876098155975342,-1.484119176864624,9.228629112243654,0.014824572019279005,0.17069944739341736,0.04238951578736306
3.321171283721924,-1.638615608215332,9.631731033325195,-0.014240361750125885,0.11062217503786088,0.050812501460313804
2.6539740562438965,-1.868208408355713,9.179713249206545,-0.03320241719484329,0.018020352348685268,0.014248892664909363
1.6120939254760742,-2.6469192504882812,9.40989875793457,-0.042123839259147644,-0.1823136806488037,-0.06238671764731408
2.910840272903443,-2.091660499572754,10.168299674987795,-0.039253626018762595,-0.3987225890159607,-0.15132285654544833
3.1548166275024414,-2.2541205883026127,10.06984615325928,-0.009510169737040998,-0.49199867248535156,-0.23270690441131592
3.4878375530242924,-1.6995075941085818,10.244064331054688,-0.03165105357766152,-0.5929701328277588,-0.3024300038814545
3.9447557926177983,-2.0940451622009277,9.987109184265138,-0.036568157374858856,-0.65897536277771,-0.3612122833728791
4.922096252441406,-1.4360135793685915,9.87983798980713,-0.03243338316679001,-0.7123228907585145,-0.3597569465637207
5.181227207183839,-0.8626791834831239,9.760879516601562,-0.052390623837709434,-0.7612160444259644,-0.2697625160217285
4.979605674743652,0.3714640736579895,10.401265144348146,-0.15516811609268188,-0.8307006955146791,-0.16383254528045654
4.286463260650636,-0.16051477193832397,10.550868034362795,-0.28247049450874334,-0.9463327527046205,-0.06796185672283173
4.230770111083984,-0.04036681354045868,10.477295875549318,-0.43361607193946844,-1.135862112045288,0.006678984034806491
3.465713739395142,-1.051556468009949,10.236753463745117,-0.4964902997016907,-1.4431811571121218,0.01695080660283566
2.283363580703736,-0.1885620653629303,10.745118141174318,-0.6011031270027162,-1.8247535228729248,-0.010011906735599043
2.791889190673828,-1.920023560523987,10.50533676147461,-0.663123607635498,-2.3560609817504883,-0.12783665955066684
2.400712013244629,-3.4332432746887207,10.334110260009766,-0.5251676440238954,-2.7276220321655273,-0.25535824894905096
3.2281198501586914,-2.2625472545623784,9.74450206756592,-0.3755204379558564,-3.2852725982666016,-0.35112863779067993
4.308697700500488,-2.5968985557556152,9.69386959075928,-0.3003574013710022,-3.717655420303345,-0.47560280561447144
4.308806419372559,-2.5640311241149902,10.32522487640381,-0.16325193643569946,-4.27437686920166,-0.5149514079093934
4.651231288909913,-3.819884777069092,10.333866119384766,0.06344646960496904,-4.86794376373291,-0.5753992199897767
5.575718879699707,-4.811216354370117,10.790836334228516,0.22645321488380432,-5.39453935623169,-0.6382599472999574
8.124434471130373,-3.694881677627564,12.548487663269045,0.2173522412776947,-5.695510387420655,-0.5990533828735352
11.935511589050295,-4.483708858489991,14.63972282409668,0.14803236722946167,-5.6903581619262695,-0.5602108836174012
15.983924865722656,-6.079575538635254,14.327751159667969,0.44072502851486206,-5.481282711029054,-0.6466137170791626
22.70474433898926,-5.476104736328125,13.590624809265138,0.8763936161994935,-5.164712905883789,-0.8527767658233643
26.93897247314453,-5.292384147644043,8.012331962585451,0.9853312969207764,-4.903277873992921,-1.0683588981628418
28.332784652709964,-6.434688568115234,1.7938815355300906,1.1329412460327148,-4.946420669555664,-1.3273128271102907
32.21686553955078,-5.596879959106445,2.1974387168884277,1.5302455425262451,-5.13018560409546,-1.5635883808135986
29.226032257080078,-2.179938077926636,0.0560455322265625,1.524336814880371,-5.087112903594972,-1.610652804374695
35.264179229736335,1.536041259765625,2.8927273750305176,0.8885174393653871,-5.42781925201416,-1.7698374986648562
38.14308166503906,-1.4751502275466921,13.94298839569092,0.06755083799362183,-4.372915267944336,-1.773581385612488
29.381664276123047,0.47646686434745794,13.18204116821289,-1.073699712753296,-3.238332033157349,-1.4577007293701172
27.712572097778324,-1.0038971900939941,14.820040702819826,-2.009720802307129,-2.243845701217652,-1.3687344789505007
22.71711921691895,-1.7023009061813357,14.468423843383789,-2.679957866668701,-1.1608711481094363,-1.259373664855957
17.142372131347656,-4.939265251159668,13.312799453735352,-2.9796588420867924,-0.24632795155048373,-1.2282207012176514
10.412915229797365,-9.867129325866701,11.44281005859375,-2.3201835155487065,0.2769489884376526,-1.265827536582947
4.257512569427491,-10.850746154785156,9.043517112731935,-0.8554273247718812,0.3439933657646179,-1.386681318283081
0.09490782022476196,-7.4707913398742685,8.527136802673342,0.489319384098053,0.20477016270160678,-1.502138614654541
-1.9292074441909792,-3.3703770637512207,8.77943515777588,1.0350352525711062,0.18046642839908603,-1.4626085758209229
-3.1898646354675293,-0.8841110467910767,9.104211807250977,0.8772383332252504,0.35928767919540405,-1.2895835638046267
-3.83840823173523,-0.6470108628273011,9.735236167907717,0.37952026724815374,0.7530578374862671,-1.0841100215911865
-4.035805225372315,-2.341354608535767,10.027816772460938,-0.044098272919654846,1.3030182123184206,-0.8153105974197388
-5.449636936187745,-4.450422763824464,8.958166122436523,-0.08394306153059007,1.8587273359298708,-0.578544020652771
-7.100931644439698,-5.408932685852051,7.9368605613708505,0.18840473890304565,2.215020895004273,-0.38429033756256104
-7.325552940368652,-3.640082120895386,7.599365711212159,0.33605682849884033,2.539157629013062,-0.12760464847087863
-8.146782875061037,-1.8639318943023682,6.196768760681152,0.1847677230834961,2.906427621841431,0.20183086395263672
-9.806923866271974,-1.499263048171997,3.8728053569793706,-0.06323102861642839,3.1375782489776616,0.5113058090209961
-11.097098350524904,-1.5449028015136719,1.723344326019287,-0.19952920079231262,3.1028492450714116,0.7504645586013794
-10.97654914855957,-1.0053194761276247,0.9295551776885986,-0.25906160473823553,2.9275155067443848,0.9081498384475708
-9.913233757019045,-0.3472002148628235,1.2711323499679568,-0.34964001178741455,2.804682016372681,1.037095308303833
-8.271553039550781,-0.14086173474788669,2.2647552490234375,-0.4841910302639008,2.821546316146851,1.1706478595733643
-6.208004951477051,-0.1270652711391449,3.445885181427002,-0.607419788837433,3.0150070190429688,1.3263045549392702
-4.682215690612793,-0.05859815329313278,3.7743773460388184,-0.6763579845428467,3.323494195938111,1.4869736433029177
-3.3508813381195073,0.5888773202896118,3.617185592651367,-0.717434585094452,3.6196537017822266,1.6291466951370241
-2.0277795791625977,1.3318383693695068,3.1047370433807377,-0.770413100719452,3.8774106502532963,1.7168705463409424
-0.8434239625930786,1.913257956504822,2.297471046447754,-0.7755474448204042,4.036437034606934,1.7087756395339968
0.9929330348968506,2.942964315414429,2.082490682601929,-0.8042322993278505,4.043765068054199,1.6244654655456543
3.952188014984131,2.9851548671722417,2.4607827663421635,-0.8556541800498964,4.0475969314575195,1.4655376672744753
6.747073173522949,1.9219805002212527,2.388069391250611,-0.7326627373695375,4.074618816375733,1.2294645309448242
8.876163482666016,2.005603790283203,2.028738021850586,-0.5150704383850098,4.034758090972901,0.9727801084518433
10.836492538452148,2.5486178398132324,1.5898776054382324,-0.4078121483325959,3.9030003547668457,0.7330605983734131
13.073727607727053,1.7516257762908936,1.4503796100616455,-0.36902326345443726,3.661782503128052,0.4993799328804016
15.301260948181154,0.143381267786026,2.378299951553345,-0.26753506064414984,3.2991478443145756,0.31507474184036255
17.675037384033203,-0.8003842234611512,3.026699304580689,-0.13233529031276706,2.9366440773010254,0.2534527480602265
18.913263320922855,-2.090425968170166,2.585175037384033,-0.07564266771078111,2.5721030235290527,0.4026704430580139
19.130258560180668,-3.8392169475555424,1.4038966894149782,-0.0275438129901886,2.143150091171265,0.7832592725753784
18.436920166015625,-4.384303092956543,-0.5189146995544434,0.09284029155969621,1.6464878320693972,1.3381273746490479
15.76230239868164,-2.703171730041504,-3.2422842979431152,0.06297604739665985,0.9724413752555848,1.9339864253997803
21.725078582763672,-2.013264417648316,-6.519252300262452,-0.08598041534423828,0.18200100958347323,2.307590246200562
81.4331741333008,24.212581634521484,35.572101593017585,-0.16447924077510837,0.22424280643463135,-0.04819941148161889
14.532719612121584,14.782550811767578,-3.6605582237243652,-0.3695791959762573,2.4710068702697754,-0.6320447325706483
0.14734323322772983,-20.87464141845703,8.28835201263428,0.09991064667701721,3.005560159683228,0.2591751217842102
-4.940628528594972,6.4754486083984375,17.147926330566406,0.19463253021240234,1.4512940645217898,0.5714811682701112
-1.913516402244568,-3.2710561752319336,13.082382202148438,0.12268297374248505,1.3888036012649538,-0.5929312705993652
-0.00890139490365982,-10.910947799682617,11.399665832519531,0.24955415725708008,0.2041136622428894,-0.48494586348533636
4.179940223693848,6.52501106262207,13.264381408691406,-0.014772364869713783,-0.30869475007057195,-0.3795178532600403
7.108581066131593,-1.718603014945984,7.697503566741944,-0.008170123212039472,-0.2247474193572998,-0.35091203451156616
8.670560836791992,-0.7446374893188477,7.966886520385742,0.002071023685857654,0.07120248675346375,-0.04670407250523568
6.034137248992921,-1.2220987081527712,8.502077102661133,0.08786369115114213,0.36625722050666815,0.03620801120996475
4.329718589782715,-1.8490034341812136,9.424273490905763,0.10228100419044495,0.4616121947765351,0.0570361465215683
3.5393991470336914,-2.0269711017608647,9.93797492980957,0.113655261695385,0.37586700916290283,0.032100431621074677
3.8815526962280273,-1.2046002149581911,9.964121818542482,0.08516774326562883,0.26319026947021484,0.0235512237995863
4.509847164154054,-0.42231428623199463,9.966956138610842,0.0051076291128993034,0.20148330926895142,0.06732485443353654
4.313946247100831,-1.1830574274063113,9.745307922363281,-0.04490513727068902,0.17638307809829712,0.09388045221567155
3.897523880004883,-1.600616693496704,9.946157455444336,-0.06419141590595245,0.12989892065525058,0.09016811102628709
3.801999568939209,-1.5984461307525635,10.09079360961914,-0.08276765793561937,0.05051600933074951,0.05738270655274392
3.9888648986816406,-1.2565727233886719,9.973974227905273,-0.11954823136329651,-0.01609831675887108,0.05728260055184365
4.438315868377686,-1.3551193475723269,9.696891784667969,-0.13953599333763123,-0.05176373943686486,0.07178643345832825
4.629276752471925,-1.6076928377151491,9.61013698577881,-0.14673984050750732,-0.11034636944532396,0.0544390194118023
4.2420411109924325,-1.433748483657837,9.387855529785156,-0.1444360911846161,-0.019912717863917354,0.11833775043487549
4.532442092895508,-2.07379698753357,9.586854934692383,-0.13649633526802063,-0.08888678252696991,0.06480783969163896
4.341067790985108,-1.660390853881836,9.589275360107422,-0.11616192758083344,-0.03241612389683724,0.10514096915721893
4.130227565765382,-2.3034353256225586,9.329111099243164,-0.09109959006309509,-0.08440425246953966,0.05084456130862237
4.383791446685792,-1.7913546562194824,9.317193031311037,-0.049787379801273346,-0.012227146886289121,0.07497774064540863
4.5568084716796875,-2.2948772907257085,9.376721382141115,-0.015766775235533718,-0.026235627010464672,0.016489919275045395
4.1622724533081055,-2.154518365859986,9.110565185546875,0.04612881317734719,-0.03763492405414581,-0.021831007674336437
4.5907182693481445,-1.5764409303665163,9.450043678283693,0.04125296324491501,0.0170870665460825,0.0005783584783785046
4.038704872131348,-2.079971075057984,9.13637447357178,0.06167183071374893,0.058711294084787376,0.008219698444008827
4.737552165985108,-1.8915497064590456,9.674198150634766,0.078720822930336,0.022679895162582397,-0.023620622232556347
4.4830079078674325,-1.9202570915222168,9.290904998779297,0.12491390109062195,0.06428197771310808,-0.027486350387334824
4.136987209320069,-2.24518895149231,8.983119010925295,0.14976958930492404,0.1310078203678131,-0.025991689413785934
4.735483169555664,-1.6964695453643799,9.509100914001467,0.17268604040145874,0.08523505181074144,-0.06086830794811249
4.740416049957276,-0.8498549461364746,9.597300529479982,0.14564645290374756,0.1458262801170349,0.019053721800446514
4.010008811950684,-2.2970261573791504,9.145240783691406,0.1432819664478302,0.15739946067333224,0.01555013656616211
5.016690731048585,-1.4607594013214111,9.619744300842287,0.17120943963527682,0.17537623643875122,-0.001835784874856472
4.818011283874512,-1.2253029346466064,9.344195365905763,0.1838895082473755,0.23483581840991977,0.034902140498161316
4.369327545166016,-1.2622479200363161,9.45826816558838,0.1744489818811417,0.25088527798652654,0.053469590842723846
3.447020769119263,-1.565366864204407,9.141977310180664,0.17294542491436007,0.2411627173423767,0.04534974321722985
3.157863140106201,-1.735816240310669,9.766101837158203,0.1367423087358475,0.1726369559764862,0.02123325690627098
3.137028217315674,-1.9491355419158936,9.761209487915039,0.11962341517210008,0.10245262086391449,-0.024363288655877117
3.688170194625855,-2.000393867492676,9.394145011901857,0.14594520628452304,0.049004551023244865,-0.06873302161693573
3.7560026645660405,-1.7240539789199831,9.511871337890625,0.16944451630115512,0.019467763602733612,-0.10293487459421159
4.091469287872315,-1.1746789216995241,9.793780326843263,0.14774905145168307,-0.011709103360772133,-0.11267033219337463
3.9539892673492436,-0.9340842962265015,9.673811912536623,0.11169448494911194,-0.02878687344491482,-0.09736821055412292
3.366579532623291,-1.0072503089904785,9.835752487182617,0.042225215584039695,-0.09173496812582017,-0.08829954266548157
3.1529502868652344,-1.2948215007781982,9.852310180664062,-0.004878095816820861,-0.17444247007369995,-0.11248461157083513
2.929646253585816,-1.4653832912445068,9.819714546203615,-0.028230408206582073,-0.27566665410995483,-0.16564661264419556
2.9311065673828125,-1.8711990118026736,10.189921379089357,-0.038666989654302604,-0.3855869770050049,-0.24467654526233676
3.4047346115112305,-2.2965328693389897,9.774098396301271,-0.016917919740080837,-0.4725098907947541,-0.3563689589500427
4.654070854187012,-1.2935340404510498,9.914188385009766,0.016359230503439907,-0.5360726118087769,-0.4016658961772919
5.154085636138917,-0.6228463649749756,9.782595634460451,0.018800294026732448,-0.5618958473205566,-0.3312457799911499
4.496345520019531,-1.1879358291625977,9.785057067871094,0.017204133793711666,-0.6072498559951782,-0.27681818604469305
4.492959022521973,-0.8753564357757568,10.028865814208984,-0.004171868320554496,-0.6967865824699403,-0.2470824122428894
4.017642974853516,-0.8881800770759584,10.12178707122803,-0.04684495553374291,-0.8202598094940186,-0.22282834351062777
3.939029455184937,-0.8150631189346313,10.238332748413086,-0.0952167809009552,-0.9983856081962587,-0.20713008940219882
3.41645359992981,-1.3178901672363281,9.846622467041016,-0.08904810994863512,-1.2914783954620361,-0.14882104098796847
3.191534757614136,-0.07113291323184967,10.953224182128906,-0.09440981596708299,-1.6992138624191286,-0.11681562662124634
2.633045196533203,-2.459750890731812,10.844951629638672,-0.18415191769599915,-1.8766826391220095,-0.1613205075263977
3.2575020790100098,-1.5332722663879395,10.363107681274414,-0.10668969899415971,-2.316343307495117,-0.23642483353614807
3.9154593944549565,-1.7071614265441895,10.091904640197756,-0.17307610809803012,-2.5650291442871094,-0.32114377617836004
4.429162502288819,-1.5170626640319824,10.009195327758789,-0.19097392261028293,-2.843948125839234,-0.39758801460266113
4.463852882385254,-1.8489073514938357,9.70068359375,-0.1801716387271881,-3.120795011520386,-0.4809008836746216
4.364880084991456,-1.5486141443252566,9.800799369812013,-0.08705906569957733,-3.501032114028931,-0.5865243077278138
4.826089859008789,-0.9956126809120179,9.717961311340334,0.07040775567293169,-3.980288505554199,-0.6861178278923036
5.740307807922363,-1.2025058269500732,9.393203735351562,0.2542383670806885,-4.500093460083008,-0.7073870301246644
6.768949508666992,-2.003150463104248,10.044352531433107,0.4353530108928681,-4.92254638671875,-0.6880593895912172
8.709831237792969,-1.9735542535781863,10.974542617797852,0.4710783362388611,-5.145742893218995,-0.6003912091255189
11.13020420074463,-1.811277747154236,11.711077690124513,0.2676736116409302,-5.064250469207765,-0.5171105861663818
13.195542335510256,-3.1192767620086674,11.514870643615724,0.08713347464799882,-4.7233901023864755,-0.5250594615936279
15.46987056732178,-2.905076026916504,11.664289474487305,0.08830819278955461,-4.409485816955566,-0.5877056717872621
20.18271255493164,-1.6929126977920534,12.189450263977053,-0.21180437505245212,-4.0146331787109375,-0.651780366897583
21.03662109375,-0.3780067563056946,8.500170707702638,-0.6851230263710023,-3.589066982269287,-0.792850434780121
20.366302490234375,0.4820838868618012,4.113990783691406,-1.119300365447998,-3.5681557655334473,-1.2648974657058718
22.440284729003906,1.8928186893463135,4.291923522949219,-1.1101585626602175,-3.534409999847412,-1.9442013502120974
21.174720764160156,5.159223079681397,3.400030851364136,-1.3522444963455202,-3.434885025024414,-2.5925393104553223
21.128124237060547,5.462420463562012,1.664475679397583,-1.5027337074279785,-3.7264778614044194,-3.498185634613037
29.10317611694336,-0.17267537117004395,8.799143791198732,-1.5417598485946657,-3.609350919723511,-3.965259075164795
22.309110641479496,-1.409957528114319,8.544182777404787,-1.2215188741683962,-2.8392601013183594,-4.060645580291749
18.024774551391605,-0.9136571884155273,7.471404552459718,-1.0859591960906982,-2.6636588573455815,-4.181178569793702
15.811286926269531,-4.584105491638184,8.046669006347656,-0.8079402446746826,-2.566644430160523,-4.165823936462402
12.23133659362793,-7.5575151443481445,6.789967060089112,0.01764023117721081,-2.612988710403443,-3.9740357398986816
10.366884231567383,-7.7758636474609375,6.926660537719727,1.120223641395569,-2.703136920928955,-3.8539049625396733
8.639540672302248,-6.506823539733887,7.716127872467042,1.8694469928741455,-2.6908810138702397,-3.627257585525513
7.296272277832031,-5.49877691268921,8.370567321777344,2.1563837528228764,-2.588794708251953,-3.2340233325958256
5.998247146606445,-5.528878688812257,8.889744758605959,2.1912012100219727,-2.393160820007324,-2.747625589370728
4.835011959075929,-5.973029136657715,9.525673866271974,2.160157918930054,-2.086261749267578,-2.2333443164825444
4.071386337280273,-5.971635818481445,10.60586929321289,2.0824582576751713,-1.6539649963378906,-1.7044601440429688
4.590041160583496,-5.213134765625,12.53309440612793,1.7738585472106934,-1.0168069601058962,-1.065718412399292
5.331324577331543,-4.541182518005371,13.987852096557617,1.211301565170288,-0.03121194988489151,-0.33324304223060613
4.08887815475464,-5.194999217987061,13.64491939544678,0.7015612125396729,1.090597748756409,0.3443976640701294
0.8226070404052734,-5.747729301452637,11.243744850158693,0.4406383931636811,1.9473316669464111,0.8765069246292114
-2.1720092296600346,-5.526123523712159,8.434432029724123,0.4205598831176758,2.3788664340972905,1.2247483730316162
-3.741791248321533,-4.506762504577637,6.348794460296632,0.49046361446380615,2.502322196960449,1.4735993146896365
-3.711751937866211,-2.823975801467896,5.3098249435424805,0.44668868184089666,2.500030994415283,1.6582924127578738
-3.4583318233489995,-1.64491605758667,5.009031772613526,0.2514241337776184,2.499012708663941,1.8075805902481081
-3.1532773971557617,-0.9846559762954712,5.108643054962159,0.007005216553807259,2.497675180435181,1.899707555770874
-2.442167282104492,-0.6202693581581117,5.633597373962402,-0.23713958263397217,2.5355143547058105,1.9125667810440066
-2.020308494567871,-0.5516765117645264,6.084833145141602,-0.4174511134624482,2.6487913131713867,1.8553165197372439
-1.3262919187545779,-0.2818339467048645,6.665184020996094,-0.5487112402915956,2.8047313690185547,1.7575874328613281
-0.24906927347183228,-0.14227509498596191,7.409305572509766,-0.6844147443771362,3.017553091049195,1.641322374343872
0.9524735808372499,-0.21781930327415466,8.12651252746582,-0.8244898319244385,3.3194313049316406,1.5409373044967654
1.3687242269515993,-0.23984371125698092,8.26024913787842,-0.929882287979126,3.665004968643189,1.4713561534881592
1.3788928985595703,-0.2667631506919861,7.956664562225343,-1.0201195478439333,3.947669506072998,1.4149377346038818
1.6333250999450684,-0.32732674479484564,7.640838146209718,-1.0885592699050906,4.136448860168457,1.3636862039566042
2.2472848892211914,-0.1569275408983231,7.711137771606445,-1.1611748933792116,4.2433791160583505,1.3352463245391846
2.9274175167083745,0.10180272161960602,7.8632550239563,-1.2663458585739138,4.304295539855957,1.32589066028595
3.905170440673828,0.20283456146717074,8.205248832702638,-1.3947169780731201,4.350450992584229,1.3339525461196902
4.999617576599121,-0.20114631950855258,8.496571540832521,-1.4758121967315674,4.393374919891358,1.350539207458496
6.179847240447999,-0.5519431233406068,8.8871545791626,-1.4694223403930664,4.416990280151367,1.379820227622986
7.243467330932617,-0.6804286241531372,9.316802978515625,-1.418827772140503,4.421547412872315,1.4274437427520752
8.29290771484375,-0.5057331919670106,9.969064712524414,-1.3515586853027344,4.422279834747315,1.483624339103699
9.342145919799805,0.21452268958091736,10.550895690917969,-1.3207112550735476,4.43034553527832,1.5172463655471804
10.10868549346924,1.1063075065612793,10.948898315429688,-1.3930954933166504,4.42452335357666,1.4931167364120486
10.791604042053224,1.800767779350281,11.487619400024414,-1.540319085121155,4.387446403503418,1.3736237287521365
11.812153816223146,2.128916501998902,12.214970588684084,-1.7277377843856814,4.365501403808594,1.1709582805633545
12.791783332824709,1.9829761981964111,12.882129669189453,-1.8717967271804812,4.371356010437012,0.904910981655121
13.425405502319336,2.082442283630371,13.131672859191896,-1.9619704484939577,4.368146419525147,0.6261088848114014
13.319582939147951,2.887356758117676,12.69460678100586,-2.062192916870117,4.302190303802491,0.3429587483406067
12.73667621612549,3.5963258743286133,11.902935028076172,-2.176402807235718,4.142789840698242,-0.002364441752433777
