AccX,AccY,AccZ,GyrX,GyrY,GyrZ
0.0032518315128982067,-0.0004893814329989256,0.00643448205664754,1.2999938689972625e-06,-1.1060099495807663e-05,-1.1040169738407714e-05
4.765589714050293,-0.679303765296936,9.39318370819092,0.0021542517933994536,-0.01547456067055464,-0.01553940400481224
4.763254642486573,-0.6945834159851074,9.388389587402344,0.0005054058856330813,-0.01233583688735962,-0.013864028267562391
4.756386756896973,-0.6633124351501465,9.419275283813477,0.003239950863644481,-0.012260468676686287,-0.010934391990303993
4.736469268798828,-0.6911785006523133,9.411034584045412,0.0010526994010433557,-0.012295914813876152,-0.0099863363429904
4.73618221282959,-0.6812856793403627,9.414216995239258,0.00022962428920436653,-0.011934406124055387,-0.011739837005734444
4.705570220947266,-0.7160493731498719,9.390007019042969,-0.00020794199372176084,-0.013200478628277779,-0.012418017722666265
4.694203853607179,-0.7022172808647157,9.40796756744385,0.0005237197619862856,-0.01726989820599556,-0.013562701642513275
4.71547794342041,-0.6941065788269043,9.400275230407717,-0.0005644558113999666,-0.019989386200904846,-0.014737495221197607
4.741873741149902,-0.7056176066398622,9.398143768310547,-0.0008762290235608816,-0.020482677966356277,-0.015255118720233442
4.750462532043457,-0.6910886764526367,9.391605377197266,0.0019492311403155327,-0.019250685349106792,-0.016868513077497482
4.770423889160156,-0.6982165575027466,9.387184143066406,0.0038364289794117217,-0.016336731612682343,-0.017206277698278427
4.791241168975831,-0.661758542060852,9.40565299987793,0.0031265472061932087,-0.012930746190249922,-0.015232155099511147
4.781339168548585,-0.6737971305847168,9.390316009521484,0.0037133411969989543,-0.011101574636995794,-0.012940116226673126
4.744392395019531,-0.6774099469184877,9.404683113098146,0.0028628939762711525,-0.009960184805095198,-0.012556614354252815
4.745336532592773,-0.6871637105941772,9.426849365234375,0.0035828780382871628,-0.009182740934193136,-0.013390517793595793
4.732895851135254,-0.7005162239074707,9.40194320678711,0.0025496573653072123,-0.010177675634622574,-0.012457200326025488
4.739779949188233,-0.7077232003211976,9.426895141601562,0.004861359018832446,-0.010855057276785375,-0.013909019529819489
4.753710269927979,-0.691840946674347,9.42319965362549,0.002302285749465227,-0.012244180776178839,-0.014022599905729294
4.760157108306886,-0.6622477769851685,9.44239616394043,0.0020547092426568274,-0.010423427447676659,-0.014478804543614388
4.756675720214844,-0.6838226914405824,9.398409843444826,0.0009944800985977056,-0.012865176424384117,-0.011688821949064733
4.731387138366699,-0.6790417432785034,9.408157348632812,1.545437589811627e-05,-0.011196314357221128,-0.011605381965637207
4.743922710418702,-0.6841529607772827,9.404141426086428,-0.00042651707190088933,-0.011718813329935074,-0.008949895389378073
4.723294258117676,-0.7136995792388916,9.416893005371094,-0.002093734918162227,-0.011645574122667313,-0.010918447747826576
4.745855331420898,-0.6973366737365723,9.408834457397461,-8.997607073979454e-05,-0.011685507372021675,-0.012052345089614393
4.7752652168273935,-0.666663646697998,9.419640541076662,-0.0019851275719702244,-0.011572800576686859,-0.010200475342571737
4.747732639312745,-0.7012081146240234,9.408584594726562,-9.001630678540097e-05,-0.008368512615561485,-0.010841622017323973
4.750800132751465,-0.6928974986076356,9.384836196899414,-0.0004264798772055656,-0.006117579527199268,-0.010944368317723274
4.764740467071534,-0.6826945543289185,9.426530838012695,0.0006428784690797329,-0.0038775794673711066,-0.0103759765625
4.728536605834961,-0.687330186367035,9.398351669311523,-0.0007632673950865865,-0.005795559845864773,-0.008703180588781835
4.729691505432129,-0.6542275547981263,9.439872741699219,-0.0012807302409783008,-0.005167214199900627,-0.007598228286951781
4.754228115081788,-0.672219216823578,9.411458015441896,-0.0026930375024676323,-0.008100307546555998,-0.009489669464528562
4.757514953613281,-0.6850851774215698,9.403318405151367,-0.00275099603459239,-0.008298548869788648,-0.006440114229917526
4.744852066040039,-0.6836603879928589,9.403162956237795,-0.002022183034569025,-0.006528181955218315,-0.0069065201096236714
4.755332469940186,-0.6692195534706117,9.435140609741211,-0.003242704318836332,-0.007435864768922329,-0.007105366792529822
4.740660667419434,-0.678598701953888,9.393239021301271,-0.004132444504648448,-0.006287808530032635,-0.0052937595173716545
4.728948593139648,-0.6885786652565004,9.40255641937256,-0.002697681309655309,-0.00539447832852602,-0.005542938131839038
4.72925901412964,-0.7133617401123047,9.383312225341797,-0.001698890933766961,-0.005632838234305382,-0.006241242866963149
4.68730354309082,-0.747203290462494,9.414793014526367,0.0001477557234466076,-0.007938788272440435,-0.00981290265917778
4.728262424468995,-0.7060273885726929,9.415364265441896,0.0002627044159453363,-0.010201450437307358,-0.011576006188988686
4.727407455444336,-0.6922259330749512,9.438561439514162,-0.00043075712164863944,-0.010172150097787382,-0.010804060846567154
4.757139682769776,-0.70106041431427,9.421833038330078,0.0002530947385821492,-0.012033329345285894,-0.010676540434360504
4.742398262023926,-0.7021175026893617,9.399429321289062,-0.0001745952176861465,-0.009578146971762182,-0.01054299995303154
4.733659267425538,-0.692176342010498,9.387761116027834,-0.0003281979006715119,-0.009276452474296095,-0.009959806688129904
4.748697757720948,-0.6763934493064881,9.395586967468263,-0.0010170110035687685,-0.009239583276212217,-0.010102532804012299
4.734230041503906,-0.6955923438072206,9.406765937805178,0.000289694726234302,-0.009744844399392607,-0.00847071036696434
4.724198818206788,-0.6886064410209657,9.441542625427248,-0.0008654968114569783,-0.009105167351663114,-0.009064491838216782
4.735321521759034,-0.6894163489341737,9.427181243896484,-0.0008765981765463948,-0.011083967052400114,-0.00935917813330889
4.750726222991944,-0.6855117678642274,9.39532470703125,-0.0013572308234870434,-0.009711858816444876,-0.009544460102915764
4.745783805847168,-0.6900935173034668,9.379314422607422,-0.0001193569987663068,-0.009023056365549566,-0.009288297966122627
4.728672027587891,-0.6892596483230591,9.426043510437013,0.001411867095157504,-0.009470778517425062,-0.010491156950592995
4.751861095428468,-0.716434121131897,9.413337707519531,0.0020939109381288294,-0.007987350225448608,-0.011060543358325958
4.752336978912354,-0.6586214900016786,9.429568290710451,0.0027760639786720276,-0.008089576847851278,-0.009945278987288475
4.721540927886964,-0.7037380933761597,9.390911102294922,0.0020480074454098944,-0.006742291618138553,-0.01070970669388771
4.728703022003175,-0.6858737468719482,9.39848518371582,0.0005504064611159266,-0.009049734100699425,-0.011162926442921163
4.743500232696534,-0.6874313354492188,9.4381103515625,0.0010098196798935535,-0.009511042386293411,-0.011461770161986351
4.7517900466918945,-0.674142599105835,9.425530433654787,-0.001503894804045558,-0.01024539861828089,-0.010787418112158775
4.750078201293945,-0.6876420378684999,9.42576789855957,-0.0032912706956267357,-0.011271519586443901,-0.00936937239021063
4.7693986892700195,-0.6813966035842896,9.397699356079102,-0.0014717738376930358,-0.005916906520724297,-0.0074998349882662305
4.73765754699707,-0.7064253091812134,9.414819717407227,-0.0010751181980594995,-0.004393287003040314,-0.006743231788277626
4.743411064147949,-0.6957707405090332,9.402130126953125,0.001863780082203448,-0.003654753789305687,-0.00827367138117552
4.73641061782837,-0.7030699253082275,9.40890884399414,0.0014640843728557231,-0.004290346521884204,-0.006421178579330444
4.760468482971191,-0.7085505723953247,9.402101516723633,0.0023578759282827377,-0.0038113144692033534,-0.009578483179211617
4.727038383483887,-0.6892449855804443,9.414460182189943,0.002302414271980524,-0.0016552460147067907,-0.005844198632985354
4.731411933898926,-0.7107930779457093,9.427096366882326,0.0032683990430086855,-0.003902571741491556,-0.009341926313936712
4.76112985610962,-0.6956389546394349,9.399632453918459,0.0028619812801480293,-0.0018562816549092531,-0.009188043884932997
4.737024784088136,-0.6848673820495605,9.401628494262695,0.003741904860362411,-0.00037765916204079986,-0.006379043217748404
4.742518901824952,-0.7023411989212036,9.396358489990234,0.004672320093959571,-0.00018072559032589197,-0.00910181924700737
4.7282609939575195,-0.6728593707084657,9.437976837158203,0.0034399896394461398,-0.0005087867612019181,-0.009145679883658888
4.723613739013672,-0.6837252974510194,9.414237976074219,0.001037104520946741,-0.0009398324182257056,-0.00656925654038787
4.714713096618652,-0.6853851079940796,9.427753448486328,0.002115393988788128,0.00011308541434118526,-0.006943630985915661
4.697777271270753,-0.6858412027359009,9.428447723388672,-0.0005532667273655534,-0.00470336014404893,-0.007628441322594882
4.706853389739991,-0.6958906650543213,9.418278694152834,-0.0037769791670143604,-0.00723102642223239,-0.00854010321199894
4.712589740753175,-0.6672406196594238,9.410856246948242,-0.0026802362408488993,-0.007795394863933326,-0.010117361322045326
4.720963954925538,-0.6796479225158691,9.430018424987795,-0.0022765113972127438,-0.008284979499876501,-0.00669327937066555
4.747359275817871,-0.6917182803153993,9.437493324279787,-0.003089738078415394,-0.0064299781806766996,-0.008364123292267324
4.747694492340089,-0.677567720413208,9.406671524047852,-0.0035302273463457827,-0.004563771188259125,-0.006427358370274306
4.759883880615234,-0.6869797110557557,9.381688117980959,-0.002616696292534471,-0.004781599622219802,-0.004603554494678974
4.74482011795044,-0.6913765668869019,9.435111999511719,-0.0037880374584347014,-0.003096968401223421,-0.002694303402677179
4.735124588012695,-0.6837681531906128,9.433056831359865,-0.006454243324697018,-0.0032650365028530364,-0.0025191942695528273
4.740140438079835,-0.6677131056785585,9.446871757507326,-0.007767516653984786,-0.0039346832782030106,-0.00012333910854067656
4.737740516662598,-0.6579729318618774,9.400031089782717,-0.010968435555696487,-0.004591365344822407,0.003240822115913034
4.731117725372315,-0.7085673213005067,9.398807525634766,-0.010501455515623093,-0.004462157841771842,0.0020333295688033104
4.680632591247559,-0.7806687355041504,9.394728660583498,-0.010993611067533493,-0.0027946729678660636,0.0012338388478383424
4.69532585144043,-0.7207102179527284,9.432190895080568,-0.00876825675368309,-0.006491987500339747,-0.003646086435765028
4.724886417388917,-0.6946663856506348,9.408131599426271,-0.0067619415931403646,-0.00603402266278863,-0.00171337416395545
4.6998658180236825,-0.7047213315963745,9.405399322509766,-0.006874239537864924,-0.006384127773344517,-0.002392278285697103
4.690727233886719,-0.7306647300720215,9.401024818420412,-0.006998763885349036,-0.009929437190294266,-0.0024705869145691395
4.707832336425781,-0.7231888771057129,9.419855117797852,-0.008310514502227308,-0.01060456968843937,-0.004961421247571708
4.729760646820069,-0.6708576679229736,9.43885135650635,-0.009819580242037773,-0.010864196345210075,-0.0028729245532304053
4.720527172088624,-0.6824489831924438,9.414865493774414,-0.011446280404925346,-0.009248617105185987,-0.0015999567694962025
4.696685314178468,-0.7189888954162598,9.388120651245117,-0.009395414963364601,-0.010532918386161329,-0.0043024648912251
4.714065074920655,-0.6874249577522279,9.406384468078615,-0.009694697335362434,-0.011265411041677,-0.003746846690773964
4.706595420837402,-0.7482945919036865,9.431313514709474,-0.01175309345126152,-0.009799700230360031,-0.0038095063064247374
4.667866230010987,-0.7424257397651673,9.421182632446289,-0.010091594420373442,-0.014136740937829018,-0.008358773775398733
4.73725700378418,-0.7102038860321045,9.461662292480469,-0.009135580621659757,-0.018308348953723907,-0.00873635895550251
4.718631267547608,-0.7155653834342958,9.408087730407717,-0.008018867112696173,-0.017531704157590866,-0.007130725774914027
4.7258148193359375,-0.7086868286132812,9.440948486328125,-0.008149635046720505,-0.01770883798599243,-0.0065143252722919
4.698053359985352,-0.7273170351982118,9.419911384582521,-0.007471913006156684,-0.01725180074572563,-0.008531461469829084
4.728529453277589,-0.7178587913513184,9.441330909729006,-0.008150962181389334,-0.01775144413113594,-0.009174071252346039
4.7156643867492685,-0.7306136488914491,9.456205368041992,-0.008537566289305687,-0.019962413236498836,-0.009390018880367279
4.731120586395265,-0.7241699695587158,9.414673805236818,-0.0075885853730142125,-0.02170343138277531,-0.008888287469744682
4.728640556335449,-0.7118737697601318,9.42276382446289,-0.008426737971603872,-0.018093038350343704,-0.007460018154233695
4.702317237854004,-0.7347598075866699,9.387157440185547,-0.008921814151108267,-0.018482718616724014,-0.008685814216732979
4.702274322509766,-0.7363288998603822,9.415243148803711,-0.0074253310449421414,-0.017610501497983932,-0.009967717342078687
4.737627029418945,-0.728843092918396,9.39736557006836,-0.005627786274999381,-0.018255712464451793,-0.009495925158262253
4.7057814598083505,-0.7340561151504517,9.417960166931154,-0.0027667349204421043,-0.018398022279143337,-0.011538121849298477
4.700272083282472,-0.7591150999069214,9.382390975952148,-0.0026923634577542548,-0.01757447049021721,-0.012123942375183105
4.683074474334718,-0.77573961019516,9.380867004394531,-0.0018237602198496463,-0.019724268466234207,-0.015814883634448055
4.735208034515382,-0.703059196472168,9.407840728759766,0.0029865452088415623,-0.021596137434244156,-0.018193876370787624
4.775129318237305,-0.6971622109413148,9.425272941589357,-0.0002772193984128535,-0.01890053413808346,-0.01685715839266777
4.748640537261964,-0.7351070046424867,9.398807525634766,0.0015719030052423477,-0.016130981966853145,-0.015649804845452312
4.734769344329835,-0.7308762669563295,9.40824604034424,0.004282169975340366,-0.01568488217890263,-0.014570143073797226
4.7366180419921875,-0.7238584756851196,9.40785026550293,0.005938883870840073,-0.012461099773645401,-0.015217213891446592
4.740163803100586,-0.7104523181915283,9.39474868774414,0.006950154900550842,-0.010546266101300718,-0.015103895217180252
4.718863010406495,-0.7280720472335815,9.4127893447876,0.005312323104590178,-0.010166402906179428,-0.014313735067844391
4.701972961425781,-0.75726318359375,9.43147373199463,0.0036864811554551125,-0.013199913315474989,-0.015684373676776886
4.699956417083741,-0.7227367162704468,9.465662956237795,0.0034021402243524794,-0.017295742407441143,-0.017067309468984604
4.741987228393555,-0.6893491744995117,9.435022354125977,0.0004954652977176012,-0.021649517118930817,-0.018690334632992748
4.763720989227296,-0.7015761733055116,9.426456451416016,0.001874448615126312,-0.019183840602636337,-0.0166950523853302
4.732373237609863,-0.7061511278152466,9.38352680206299,-0.0008878577500581741,-0.017090639099478725,-0.015912026166915894
4.7611145973205575,-0.7092499136924745,9.414155960083008,0.0014982743887230756,-0.015613836236298086,-0.014261826872825623
4.780191421508789,-0.7202745676040649,9.400882720947266,0.001937102060765028,-0.011947131715714933,-0.011822624132037163
4.739959716796875,-0.7089095115661621,9.406559944152834,0.002082209102809429,-0.009462495334446432,-0.011086764745414259
4.721032619476319,-0.7522526979446411,9.39983654022217,0.004405552055686713,-0.007090280763804913,-0.011824994347989561
4.714585781097413,-0.7388088703155518,9.431123733520508,0.00351355248130858,-0.007337119895964862,-0.013242322951555252
4.710855007171632,-0.7377939224243164,9.392889022827148,0.005194623954594135,-0.008787951432168485,-0.013826411217451096
4.729375839233398,-0.7287259101867676,9.429466247558594,0.007301037665456534,-0.012224594131112099,-0.01626618579030037
4.740172863006593,-0.7270970344543457,9.436123847961428,0.003944027703255416,-0.012976670637726784,-0.015885731205344204
4.753243923187257,-0.6869725584983827,9.428080558776857,0.001930265687406063,-0.01222372055053711,-0.015597927384078504
4.775090217590332,-0.7105442881584169,9.406793594360352,0.005233732983469963,-0.010599805973470213,-0.011830832809209824
4.746651649475098,-0.7159889936447144,9.422500610351562,0.002117026597261429,-0.008560557849705221,-0.011283726431429388
4.712946414947511,-0.7386471033096313,9.3905725479126,0.004130758345127106,-0.007570667658001185,-0.012207383289933205
4.729138851165772,-0.7000352740287782,9.426140785217287,0.005267505533993244,-0.004686374217271805,-0.014150972478091719
4.742671012878418,-0.7263206243515015,9.43120861053467,0.005050188861787319,-0.006801654119044543,-0.011953935027122498
4.73313856124878,-0.6959506273269653,9.423924446105959,0.005431768950074912,-0.005645787343382835,-0.01253056526184082
4.710142612457276,-0.7096283435821533,9.392581939697266,0.003126644529402256,-0.006702037993818522,-0.013342907652258873
4.72922420501709,-0.7220873832702637,9.43040657043457,0.0030761384405195713,-0.008710373193025589,-0.011785916052758695
4.716717720031738,-0.7272969484329224,9.41324234008789,0.00313740479759872,-0.009005101397633553,-0.011162229813635351
4.740058898925781,-0.7035108804702759,9.411265373229982,0.0021344667766243224,-0.010201197117567062,-0.012182913720607758
4.743103504180909,-0.6913216710090638,9.407204627990724,0.0015374168287962675,-0.010062373243272306,-0.01107042282819748
4.755810737609863,-0.6939234137535096,9.38938617706299,0.0005764621892012657,-0.006982496473938228,-0.010753786191344261
4.698127269744874,-0.7251996397972108,9.434300422668459,-0.0011492049088701608,-0.007389753125607967,-0.009781324304640295
4.7377285957336435,-0.7188527584075928,9.424520492553711,-0.0017745450604707003,-0.00824111979454756,-0.009096610359847547
4.719709873199464,-0.6892180442810059,9.411252975463867,-0.0005436300998553634,-0.008938533253967764,-0.01050424575805664
4.726086139678956,-0.7257302403450013,9.392800331115724,-0.00121814978774637,-0.009667274542152883,-0.009128987789154053
4.7367706298828125,-0.7007518410682679,9.434632301330568,-0.0002751668507698924,-0.01057131215929985,-0.010214931331574919
4.711628437042237,-0.7040352225303651,9.410387992858888,-0.0026707169599831104,-0.008782287128269674,-0.006655563134700061
4.709498405456543,-0.7327204942703247,9.404221534729006,-0.003010377520695329,-0.006508447229862213,-0.010211388580501081
4.745635986328125,-0.7243141531944276,9.440287590026857,-0.004176494199782611,-0.00870019104331732,-0.008077912032604218
4.7297563552856445,-0.7123575210571289,9.425478935241701,-0.003606370184570551,-0.009639027528464796,-0.008374344557523727
4.707712650299073,-0.6988362073898315,9.405450820922852,-0.0025796729605644946,-0.01115918718278408,-0.0066490620374679565
4.682965278625488,-0.7280113697052002,9.396292686462404,-0.004293731413781643,-0.010378274135291578,-0.00810854323208332
4.700240135192871,-0.7415604591369629,9.42626476287842,-0.004281196743249893,-0.01537054032087326,-0.010410136543214323
4.748321533203125,-0.7168285250663758,9.428319931030273,-0.005310478620231152,-0.016960000619292263,-0.010660259053111076
4.750073432922363,-0.6874326467514038,9.402765274047852,-0.0041929888539016255,-0.016070526093244553,-0.009556815028190613
4.736367702484132,-0.7051901817321777,9.40172004699707,-0.005831906571984291,-0.014891694299876692,-0.008746350184082985
4.735650539398194,-0.7542300224304199,9.416116714477539,-0.004793596919625998,-0.012804795987904074,-0.009275564923882484
4.699550628662109,-0.7455101609230043,9.42435932159424,-0.00234115612693131,-0.01430143415927887,-0.010340732522308828
4.729714870452882,-0.7459704875946045,9.428241729736328,-0.0023592854849994183,-0.014420290477573873,-0.010782106779515745
4.762939929962159,-0.6960978507995605,9.423802375793459,-0.0016691318014636638,-0.012300871312618256,-0.00978860352188349
4.735940456390382,-0.7445452213287354,9.407962799072266,-0.00011278671445325017,-0.012161733582615852,-0.008949979208409788
4.711637973785401,-0.7197397947311401,9.409490585327148,0.0004486902907956392,-0.010057337582111359,-0.011741078458726408
4.72840166091919,-0.7419744729995728,9.409316062927248,0.0001566908176755533,-0.012162309139966965,-0.012201430276036263
4.727476119995117,-0.7272979021072388,9.410980224609375,-5.6641300034243613e-05,-0.014219914563000204,-0.012622063979506493
4.706917762756348,-0.7207783460617065,9.42501735687256,-0.00010046678653452545,-0.012673474848270416,-0.012745567597448828
4.735912799835206,-0.7123002409934999,9.416519165039062,-0.00011332709982525557,-0.01513971295207739,-0.013594761490821838
4.742763519287109,-0.7141094803810121,9.442817687988281,-0.0009273450123146176,-0.014061131514608862,-0.011508430354297163
4.735404014587402,-0.7284035086631776,9.410543441772461,-0.002254018560051918,-0.013305087573826315,-0.010847050696611404
4.718278408050538,-0.7102277278900146,9.398583412170412,0.00045321261859498923,-0.011541808955371382,-0.011029541492462158
4.734858036041261,-0.7000326514244081,9.401574134826662,0.0012715969933196904,-0.01006663404405117,-0.010779603384435179
4.746077060699464,-0.7286578416824341,9.40799331665039,0.0009074804256670178,-0.010838223621249199,-0.011940529569983482
4.750321388244629,-0.7308369874954224,9.397864341735842,0.0011359961936250331,-0.010853497311472893,-0.010983494110405447
4.772294998168945,-0.7049005031585693,9.393120765686037,0.0023601471912115817,-0.007496078964322806,-0.01069614291191101
4.733891487121582,-0.7087236046791078,9.413332939147951,0.003551349975168705,-0.0068134027533233174,-0.01073397696018219
4.705679416656495,-0.7439147233963013,9.407563209533693,0.0015069256769493224,-0.008961107581853867,-0.010955370962619781
4.720282554626465,-0.756860613822937,9.405436515808107,0.0031586915720254187,-0.009510423988103867,-0.012372584082186224
4.744916915893555,-0.7006954550743104,9.410470962524414,0.002926132874563337,-0.009026248939335348,-0.01062149927020073
4.756834506988526,-0.7051012516021729,9.43228054046631,0.0010642590932548046,-0.010079116560518743,-0.010414978489279747
4.742180824279785,-0.714156985282898,9.425780296325685,0.0022975895553827286,-0.009156289510428907,-0.010843432508409025
4.731230258941651,-0.7182761430740356,9.404835700988771,0.0014679841697216034,-0.009797816164791586,-0.011188795790076256
4.7231292724609375,-0.7294896841049194,9.404290199279787,0.00173564103897661,-0.007617218885570765,-0.010734623298048973
4.727803707122804,-0.7356279492378236,9.408315658569336,0.004364312626421452,-0.007960223592817785,-0.011576484888792038
4.710466861724854,-0.7520426511764526,9.397479057312013,0.005530875641852618,-0.008425036445260048,-0.013818291947245598
4.728071689605714,-0.7023879885673524,9.429875373840334,0.006346443202346564,-0.010889323428273201,-0.01436243485659361
4.741420269012452,-0.7024086713790894,9.416211128234865,0.0038451948203146458,-0.011714641004800797,-0.01339030731469393
4.7314820289611825,-0.7098355293273926,9.43900775909424,0.002827792661264539,-0.010886089876294136,-0.014463591389358045
4.737645626068116,-0.6887129545211792,9.407564163208008,0.0028167436830699444,-0.01062589976936579,-0.014867535792291166
4.744695186614991,-0.7273114323616029,9.418934822082521,0.0017263257177546623,-0.010259060189127922,-0.012413837946951391
4.7697157859802255,-0.7245818376541138,9.412052154541016,0.004629978910088539,-0.010381456464529037,-0.011035392992198469
4.756634235382081,-0.7088748216629028,9.40842056274414,0.005651205778121948,-0.00581289129331708,-0.011878933757543564
4.7493634223938,-0.7119578123092651,9.383509635925295,0.005344059318304062,-0.002630711300298572,-0.010690894909203054
4.7260193824768075,-0.7052832245826722,9.403203010559084,0.007166666444391013,-0.001425616443157196,-0.009505278430879118
4.712317943572999,-0.7138872742652894,9.442250251770021,0.007525007240474224,-0.001069863559678197,-0.01154409069567919
4.731560707092285,-0.6989038586616517,9.460664749145508,0.008066745474934578,-0.004867961164563895,-0.011172270402312279
4.7406721115112305,-0.6696182489395142,9.386072158813477,0.004417244344949722,-0.005034221801906825,-0.009914825670421125
4.697547912597656,-0.6960726380348207,9.418593406677248,0.00410833116620779,-0.004708994645625354,-0.010681012645363808
4.7554168701171875,-0.7293539047241211,9.41494369506836,0.004506292752921581,-0.0060761915519833565,-0.012228588573634626
4.724092483520508,-0.7231721282005311,9.415101051330568,0.00944608449935913,-0.0029897594358772044,-0.012722868472337723
4.691620826721191,-0.7672574520111084,9.38811779022217,0.011932865716516973,-0.003157346975058317,-0.015240244567394257
4.743652820587159,-0.6860710382461548,9.428192138671875,0.012469268403947355,-0.004147661849856377,-0.017467746511101726
4.728688716888429,-0.6861521005630493,9.457189559936523,0.009716800414025785,-0.004104993771761657,-0.01586560159921646
4.737150192260742,-0.6834044456481934,9.43080806732178,0.011935984715819359,-0.0029577913228422408,-0.015307791531085968
4.773512363433839,-0.6647497415542603,9.426254272460938,0.012015089392662048,-0.0016122864326462152,-0.013959079049527647
4.740356922149659,-0.6797588467597963,9.400638580322266,0.010170571506023407,0.0004961167578585447,-0.011073676869273186
4.698114395141602,-0.6891510486602783,9.396894454956055,0.008909184485673904,0.0012888354249298573,-0.010408223606646063
4.729118824005128,-0.6831343173980713,9.39967155456543,0.0071891588158905515,0.0015001550782471895,-0.007576712872833014
4.619390487670898,-0.7414610385894775,9.419187545776367,0.006777703296393157,-0.0009377719834446907,-0.011108094826340675
4.688197135925293,-0.746534287929535,9.443905830383303,0.008567769080400467,-0.005810088012367488,-0.016328148543834686
4.737720966339112,-0.6389002203941346,9.412620544433594,0.008401421830058098,-0.0069241756573319435,-0.014769268222153189
4.749134540557862,-0.6834911704063417,9.421821594238281,0.0037490325048565865,-0.005211570765823127,-0.012906726449728012
4.73646354675293,-0.6769413352012635,9.413893699645998,0.002008655574172735,-0.006698950659483672,-0.010702497325837614
4.74195146560669,-0.6863226294517518,9.444124221801758,0.0024745124392211437,-0.005893377121537925,-0.009503282606601715
4.735531806945801,-0.685167670249939,9.444882392883303,0.0027880226261913776,-0.004207160323858261,-0.00923451501876116
4.724333763122559,-0.662841796875,9.443927764892578,0.001161384047009051,-0.005688515491783619,-0.007025569211691619
4.744118690490723,-0.669255554676056,9.43639659881592,0.0005457587540149689,-0.0030900163110345606,-0.0056304805912077436
4.72918701171875,-0.7007288932800293,9.42249870300293,-0.0007140356465242804,-0.0014348560944199562,-0.004689416382461787
4.716863155364991,-0.7140455842018129,9.420994758605959,-0.0020703526679426436,-0.0012747793225571515,-0.0034787487238645554
4.681687831878663,-0.7006261348724365,9.422244071960451,-0.0012202361831441524,-0.0007325027836486697,-0.003580241231247783
4.688983917236328,-0.7414289116859437,9.42702865600586,-0.00014122063294053078,-0.002406791085377336,-0.006754197645932437
4.71431827545166,-0.715614140033722,9.413624763488771,0.00017207275959663093,-0.0018500365549698474,-0.0073825279250741005
4.631422996520996,-0.7445272207260132,9.410079002380373,0.0032726724166423087,-0.00392320053651929,-0.010284710675477982
4.739699840545655,-0.7401000261306763,9.430331230163576,0.005654496606439353,-0.00835643894970417,-0.01402766350656748
4.740438461303711,-0.6548851728439331,9.456697463989258,0.003147582523524761,-0.007913696579635145,-0.012462404556572439
4.719525814056397,-0.6762885451316835,9.444584846496584,0.004309495911002159,-0.0064922268502414235,-0.012567492201924324
4.7393341064453125,-0.636264443397522,9.443168640136719,0.0018511795205995443,-0.006852844264358283,-0.010080041363835335
4.753752231597901,-0.6375914812088013,9.447998046875,-0.002436880255118013,-0.00456234160810709,-0.006215643603354693
4.700319290161133,-0.7247709631919862,9.43777847290039,-0.004015704151242972,-0.0029810587875545025,-0.0036087865009903908
4.736185550689698,-0.7065276503562928,9.438157081604006,0.0001269408967345953,-0.0014649558579549196,-0.004791485145688057
4.735999584197999,-0.6791586875915527,9.42253303527832,-1.0889438271988183e-05,0.0011255794670432806,-0.001972561934962869
4.719947338104249,-0.6684184670448304,9.451461791992188,-0.003248993074521423,0.0007230329792946577,-0.0011326757958158853
4.710944652557374,-0.7132700681686401,9.437759399414062,-0.0033179810270667076,-0.0009024598984979094,-0.0017325646476820113
4.730976104736328,-0.7007327079772949,9.400742530822756,-0.0016736467368900776,0.0010949458228424194,-1.42919052450452e-05
4.700239181518555,-0.7098162174224854,9.44748306274414,-0.000522404385264963,0.0022108063567429785,-0.0003552145790308714
4.737306594848633,-0.6944998502731323,9.457414627075195,0.0003182288783136756,0.0027200477197766304,-0.00198572943918407
4.701755046844483,-0.637991487979889,9.42662239074707,-0.002475900575518608,0.0032667189370840792,0.0013457451714202764
4.663444042205811,-0.6959350109100342,9.410791397094727,-0.002285341266542673,0.0022689464967697863,0.0006260611116886139
4.734682083129883,-0.7444568872451782,9.419565200805664,-0.00048693979624658823,0.005270593799650669,-0.00025855246349237865
4.6958160400390625,-0.7086105942726136,9.45620632171631,0.0007224672008305788,0.0069649270735681066,0.0010722805745899677
4.676754951477051,-0.7330995798110962,9.48049068450928,-9.842667350312696e-05,0.0015895441174507141,-0.001682141562923789
4.719956398010254,-0.6608961820602417,9.47247314453125,-0.0028613975737243895,-0.0019912379793822765,0.0010173158952966335
4.742973327636719,-0.660722315311432,9.441226959228516,-0.00460684671998024,-0.0004246488679200411,0.0060273376293480405
4.741147994995117,-0.676839053630829,9.46791172027588,-0.005176805891096592,0.0001713966048555449,0.008328404277563095
4.7805280685424805,-0.6344352960586548,9.47665309906006,-0.0037135500460863113,0.004884727764874698,0.012640488334000112
4.795290946960449,-0.6185647845268251,9.495774269104006,-0.006964678876101971,0.010154389776289465,0.021625082939863205
4.702375888824464,-0.710247278213501,9.41612434387207,-0.010106125846505165,0.013925865292549133,0.0264746155589819
4.644501209259034,-0.7452551126480103,9.44960117340088,-0.008342616260051727,0.014782384969294073,0.02468239888548851
4.599145412445069,-0.6887772083282471,9.364193916320803,-0.00903519056737423,0.012211239896714689,0.026627475395798687
4.5566115379333505,-0.7273955941200257,9.44173336029053,-0.014397031627595426,0.0034912554547190666,0.022985441610217098
4.626509189605714,-0.7567614316940308,9.477610588073732,-0.01847762428224087,-0.002717769937589765,0.019914913922548294
4.663338661193848,-0.7237969636917114,9.403493881225586,-0.01720078103244305,-0.004823066294193268,0.018344184383749965
4.717799186706543,-0.7267404198646547,9.432541847229006,-0.015529094263911247,-0.0013149253791198137,0.020163444802165035
4.728028297424316,-0.7091580033302308,9.441739082336428,-0.01562671735882759,0.0035926967393606906,0.021152276545763016
4.756513595581055,-0.765304446220398,9.428179740905763,-0.015156676061451437,0.011253672651946546,0.026740215718746185
4.720496654510499,-0.8357859253883363,9.416550636291506,-0.013974047265946867,0.01659218594431877,0.03347496315836907
4.7751526832580575,-0.8613961935043335,9.39492416381836,-0.008321744389832022,0.02306758239865303,0.03736977279186249
4.556191444396973,-0.6789505481719971,9.373057365417482,-0.006421613972634078,0.02910793200135231,0.036858718842268
4.424537181854249,-0.628525972366333,9.401357650756836,-0.014799566939473152,0.018110182136297226,0.032531816512346275
4.539223670959473,-0.6677401065826416,9.280767440795898,-0.015905115753412247,0.015997527167201046,0.021354109048843384
4.379865169525147,-0.6600289344787598,9.32217788696289,-0.01951343007385731,0.020156923681497574,0.014767240732908249
4.490085124969483,-0.705009937286377,9.46676254272461,-0.04194895178079605,0.006180728320032359,0.017231717705726624
4.8550214767456055,-0.7813575267791748,9.463580131530763,-0.052227117121219635,0.007695823907852173,0.03180817887187005
4.754528522491456,-0.9263292551040649,9.391624450683594,-0.04573740065097809,0.021723205223679546,0.03087887167930603
4.785948276519776,-0.8159686326980591,9.280428886413576,-0.02683194726705551,0.03808538988232613,0.025745278224349025
4.771694183349609,-0.615736722946167,9.289327621459961,-0.02280415035784245,0.06712290644645691,0.025388991460204128
4.611814975738526,-0.6609528064727783,9.370867729187013,-0.03694469481706619,0.08541539311408997,0.03856694325804711
4.462760448455811,-0.7905006408691406,9.516972541809084,-0.05454305559396744,0.07298205047845842,0.051835931837558746
4.34079647064209,-0.9831442832946777,9.506420135498047,-0.0629018470644951,0.06077973544597626,0.04798334091901779
4.593475818634034,-0.9766758680343628,9.518404960632326,-0.05808790773153305,0.04664398357272149,0.034694522619247437
4.6381330490112305,-0.7618409991264344,9.535187721252443,-0.052174258977174766,0.045828495174646385,0.034865349531173706
4.546020030975343,-0.6987174153327943,9.595959663391115,-0.06097319349646569,0.04241689294576645,0.03421734645962716
4.507380962371827,-0.780668079853058,9.616813659667969,-0.07219017297029497,0.025270335376262665,0.033072829246520996
4.372843265533448,-0.9043990969657899,9.616612434387209,-0.07212675362825395,0.0038026906549930573,0.021508308127522472
4.384929180145265,-0.7971237897872925,9.698015213012695,-0.07956336438655853,-0.02840161696076393,0.013588008470833303
4.5092129707336435,-0.6846776008605957,9.634811401367188,-0.1015309989452362,-0.05860960856080056,0.03272659331560135
4.588004589080811,-0.7325738668441772,9.626421928405763,-0.12571667134761813,-0.0694970041513443,0.038848988711833954
4.605937480926515,-0.8216843605041504,9.659302711486818,-0.15541140735149386,-0.06393605470657349,0.033376526087522514
4.633490562438965,-0.8582370877265931,9.570485115051271,-0.1453585922718048,-0.10609538853168488,0.028392998501658443
4.624002933502198,-0.8961539268493652,9.559435844421388,-0.14008033275604248,-0.12968657910823825,0.029491014778614044
4.618262767791749,-0.9330544471740723,9.522152900695803,-0.1400021463632584,-0.1446424424648285,0.027344100177288055
4.570234298706055,-0.9766230583190918,9.505456924438477,-0.14040656387805941,-0.15671849250793457,0.025508696213364605
4.446358680725098,-1.1411510705947878,9.36259651184082,-0.12869909405708313,-0.16469812393188477,0.014831640757620336
4.392481803894043,-1.0992698669433594,9.512311935424805,-0.11694997549057007,-0.19252099096775058,-0.003407079726457596
4.721661090850831,-1.020785450935364,9.458182334899904,-0.10459406673908234,-0.20998315513134005,-0.014489178545773031
4.534883499145508,-0.8138493299484253,9.476458549499513,-0.10392829030752183,-0.22320035099983215,-0.00743849901482463
4.573000431060792,-0.8949280381202699,9.527812004089357,-0.10555239021778107,-0.2521483898162842,0.002472087042406202
4.499782085418702,-1.1129305362701416,9.449750900268555,-0.09186846017837524,-0.2770588696002961,-0.0034005935303866863
4.318028450012207,-1.1058969497680664,9.532367706298828,-0.08251843601465227,-0.3216915726661682,-0.017360709607601166
4.392004013061523,-1.063533067703247,9.578946113586428,-0.06843292713165283,-0.3834104239940644,-0.03829478472471237
4.490060806274414,-1.0863335132598877,9.467962265014648,-0.06149009987711907,-0.4428073465824128,-0.062114425003528595
4.524366855621339,-1.2953004837036133,9.41963863372803,-0.030240505933761597,-0.4895999729633332,-0.10248588025569916
4.922430992126465,-1.1353263854980469,9.425984382629396,0.01332581415772438,-0.539393723011017,-0.1466198116540909
5.109865188598633,-0.7570152878761293,9.223064422607422,0.0016807558713480832,-0.5609017610549927,-0.16028089821338656
5.118735790252686,-0.6564605236053467,9.418105125427248,-0.014857097528874876,-0.5842146277427674,-0.14987078309059143
4.86379337310791,-0.7298438549041748,9.574996948242188,-0.05355159193277359,-0.6295800805091859,-0.12753522396087646
4.755556106567383,-0.9552703499794007,9.509891510009766,-0.08590539544820787,-0.6991301774978638,-0.12088334560394287
4.892367362976074,-1.035269379615784,9.430288314819336,-0.08836425840854645,-0.7810869812965394,-0.11830933392047882
4.9283156394958505,-0.9712048768997192,9.303269386291506,-0.10094849765300751,-0.8554435968399048,-0.10158631950616838
4.97520637512207,-1.0685298442840576,9.085232734680178,-0.1192050576210022,-0.9150012135505677,-0.10193958878517151
5.25892448425293,-0.8079648017883301,9.227231979370117,-0.13848723471164706,-0.9651011228561401,-0.09911555051803589
5.109313011169434,-1.1463096141815186,8.994665145874023,-0.12548500299453735,-1.0095168352127077,-0.1344408094882965
5.208668231964112,-1.7500317096710205,8.848868370056154,-0.07689806818962097,-1.068922758102417,-0.19453419744968417
5.628792762756348,-1.4838533401489258,8.730098724365234,-0.0015943708131089809,-1.0832879543304443,-0.243025079369545
5.633214950561523,-1.2476935386657715,8.70704746246338,0.031399223953485496,-1.0816967487335205,-0.2646605372428894
5.807776927947999,-1.142146944999695,8.577383041381836,0.08112249523401262,-1.085371971130371,-0.2387153655290604
5.879295825958253,-1.0400464534759521,8.546359062194826,0.10732973366975786,-1.0892778635025027,-0.2311578094959259
5.752681255340577,-1.4999128580093386,8.57087516784668,0.13331814110279086,-1.0978221893310547,-0.25611558556556707
5.956939220428468,-1.3752737045288086,8.484027862548828,0.1652493178844452,-1.1310733556747439,-0.2860360443592072
6.243671894073487,-1.040678143501282,8.426132202148438,0.17424575984478,-1.1438453197479248,-0.29413959383964544
5.936894416809082,-0.7500486373901367,8.522488594055178,0.17323416471481323,-1.1671600341796875,-0.30175104737281805
6.374371051788331,-0.5057855844497681,8.488339424133303,0.2011471390724182,-1.2157171964645388,-0.31364452838897705
6.345696926116944,-0.6189266443252563,8.211884498596193,0.1817466914653778,-1.2107449769973757,-0.30093798041343695
6.490775108337402,-0.6095777750015259,8.28425407409668,0.1591238230466843,-1.241534948348999,-0.30200949311256414
6.400328636169434,-0.9878020286560059,8.26930046081543,0.19495500624179843,-1.2801362276077273,-0.3202463388442993
6.193022727966309,-0.8498241305351258,8.28620719909668,0.25638404488563543,-1.3501486778259277,-0.3519180119037629
6.272403717041016,-0.855093538761139,8.211841583251953,0.2858005166053772,-1.4320453405380251,-0.3913016617298127
6.5677504539489755,-0.8971129655838013,8.120375633239748,0.2775205969810486,-1.5144945383071902,-0.4222481846809387
6.701977729797363,-0.7436795234680176,8.036950111389162,0.2547662854194641,-1.5987284183502197,-0.435951441526413
6.511317253112793,-1.0585066080093386,7.810332775115968,0.24444091320037842,-1.7111347913742068,-0.46487706899642944
6.632811546325684,-0.8680852651596069,8.135867118835451,0.30923324823379517,-1.8759573698043825,-0.49680027365684515
6.35163688659668,-0.37319934368133545,8.049631118774414,0.3681997358798981,-2.097329616546631,-0.525309979915619
6.604298114776612,-0.3590225577354431,7.772587776184082,0.42434990406036377,-2.352440357208252,-0.5746054053306581
6.999320983886719,-0.4423579871654511,7.473977565765382,0.48117992281913763,-2.6230616569519043,-0.5948166251182557
7.104699611663819,0.07328915596008301,8.29964351654053,0.5265561938285829,-2.9587316513061523,-0.566618800163269
7.3348050117492685,0.00756467878818512,8.490042686462404,0.5764006972312928,-3.300595760345459,-0.5102228522300721
8.051332473754883,-0.0647248774766922,8.281076431274414,0.6225489377975464,-3.6734957695007324,-0.4613663852214814
8.804885864257812,0.28363609313964844,8.93667984008789,0.583118200302124,-3.9841873645782475,-0.38999325037002563
10.342954635620117,0.5620726943016053,9.038036346435547,0.5101484656333924,-4.191722869873047,-0.3487531542778015
12.013954162597656,-0.006696105003356934,9.898091316223146,0.49324291944503784,-4.26118040084839,-0.30415987968444824
14.460409164428711,-0.7106155157089233,10.187837600708008,0.5726805329322816,-4.125578403472901,-0.2659114599227905
17.436588287353516,-0.04961314797401428,11.095245361328125,0.5781580209732056,-3.9971554279327397,-0.22957196831703186
21.544874191284183,0.19342085719108582,11.135232925415039,0.28186592459678655,-3.7321324348449707,-0.1837073266506195
25.338914871215824,-0.4743903875350952,10.88590717315674,-0.43962985277175903,-3.2766869068145756,-0.021993190050125122
27.560888290405277,-5.906480312347413,3.1690454483032227,-0.5939512252807617,-2.7900328636169434,-0.30929908156394964
26.19715118408203,-10.508260726928711,-1.826582908630371,0.9291611909866333,-2.9337069988250737,-0.8778600692749023
32.36961364746094,-9.869369506835938,-0.8484302759170532,2.4249467849731445,-2.714551210403443,-0.8475034832954408
34.514488220214844,-6.194008350372315,-1.4055886268615723,3.708676338195801,-2.72671389579773,-0.41736942529678345
47.81106185913087,1.7764346599578857,12.690087318420412,2.7011153697967534,-2.3297593593597417,0.20517563819885254
34.744213104248054,3.4728796482086186,16.347543716430668,1.4113895893096924,-0.6663309931755067,0.5609840154647827
21.7569751739502,4.9460906982421875,10.851277351379396,0.0346742756664753,-0.29718494415283203,0.670265793800354
16.20656776428223,4.5468597412109375,8.230931282043459,-1.1882870197296143,-0.586687982082367,0.5445829629898071
13.10383415222168,2.6693029403686523,7.339699268341065,-2.012278318405152,-1.0575164556503298,0.09434846043586731
13.239673614501953,0.28814423084259033,8.515137672424318,-2.3595385551452637,-1.2900942564010622,-0.49927055835723877
13.491822242736818,-3.1794831752777104,10.761229515075685,-2.140259265899658,-1.0521327257156374,-1.0417352914810183
11.821852684020998,-6.365380764007569,12.516045570373537,-1.3059730529785156,-0.44166758656501776,-1.3741531372070312
9.827515602111818,-6.635215759277344,13.785956382751467,-0.1650360077619553,0.3724605739116669,-1.532914638519287
6.865490913391113,-3.893574476242066,13.66752338409424,0.5707738399505615,1.2697261571884157,-1.4874675273895264
0.9676591157913208,-1.8023087978363037,10.514172554016115,0.8254931569099427,1.9277369976043701,-1.346100091934204
-4.7131085395813,-0.3648805618286133,6.209905624389648,0.762483298778534,2.1343822479248047,-1.2280768156051638
-7.557985305786133,0.19669638574123385,4.117959976196289,0.4395898282527924,1.9495309591293337,-1.0423874855041504
-7.208589553833008,-0.8131321072578431,4.30544137954712,0.11594054102897644,1.7976020574569704,-0.7698915004730225
-6.134385585784913,-2.5278503894805913,5.36430311203003,0.08941378444433214,1.890054702758789,-0.48787617683410645
-6.100673675537109,-3.3788878917694096,6.315616607666016,0.2674242854118347,2.2181518077850346,-0.21013891696929932
-7.107582092285156,-2.7706494331359863,4.903079509735108,0.45006522536277777,2.6275231838226323,0.046745724976062775
-10.291970252990724,-1.6129615306854248,1.60923969745636,0.5092211365699769,2.7643284797668457,0.20823986828327182
-10.908935546875,-0.4583873152732849,0.16569899022579196,0.28188931941986084,2.65392279624939,0.37196323275566107
-9.90530776977539,-0.506001353263855,0.11084127426147461,-0.05764033645391464,2.6036355495452885,0.5563905239105225
-8.580029487609865,-1.2096118927001953,0.8671879768371582,-0.28729361295700073,2.66715669631958,0.7179759144783021
-7.429499626159668,-1.361663579940796,1.1229046583175661,-0.39482998847961426,2.8699619770050053,0.8791954517364502
-6.774999618530273,-1.0058703422546387,0.6986857652664185,-0.43563017249107366,3.0733723640441895,1.0055198669433594
-5.672988414764405,-0.21601584553718567,0.5966710448265077,-0.5191969871520996,3.261088132858277,1.142664909362793
-4.6880841255188,0.45523232221603394,0.2872594892978669,-0.6192677021026611,3.462662696838379,1.2580693960189822
-3.9634475708007812,0.676105260848999,-0.24180585145950317,-0.6655495762825013,3.576852798461914,1.2935706377029421
-2.6005041599273686,1.8237860202789307,0.3582673668861389,-0.7092519998550415,3.6142199039459233,1.2921508550643923
-0.14745670557022095,2.805376291275025,1.486331343650818,-0.8238815069198608,3.6995384693145756,1.2285995483398438
2.09108829498291,3.1776952743530273,2.00056004524231,-0.8771699666976929,3.81982421875,1.0573719739913943
4.614358425140382,3.7580952644348145,2.0953898429870605,-0.8686038255691528,3.9150435924530034,0.7867603302001953
7.119939327239991,3.345227956771851,1.865553379058838,-0.7986773252487183,3.956177949905396,0.42613926529884344
8.755239486694336,3.267438650131226,1.2446192502975466,-0.6428253650665283,3.8986117839813237,0.08749793469905853
10.676151275634766,3.5054323673248295,0.541406810283661,-0.5730624198913574,3.7173547744750977,-0.12393116205930711
12.475625991821289,1.9301680326461794,0.06020650267601013,-0.4775368571281433,3.4158418178558354,-0.20811182260513306
14.585684776306154,1.3540011644363406,0.861263930797577,-0.2546696662902832,3.026100873947144,-0.10135265439748765
16.967529296875,1.6707658767700195,1.6546244621276855,-0.1567097455263138,2.678901195526123,0.16031311452388766
18.02991485595703,1.0113278627395632,1.4305143356323242,-0.061292342841625214,2.3504443168640137,0.46149405837059027
17.377593994140625,1.005406379699707,0.4949492514133454,0.13418197631835938,1.9397624731063845,0.7610578536987305
16.725353240966797,1.815617918968201,0.13772910833358765,0.2920065820217133,1.471158742904663,0.9917131662368774
15.072420120239258,2.1520297527313237,-0.9693419337272645,0.3900707662105561,1.0766444206237793,1.1540795564651491
9.008141517639162,2.459001064300537,-5.700043201446534,0.4834415912628174,0.5009691715240479,1.2541121244430544
10.250234603881836,6.946506500244141,-9.47726821899414,0.29493117332458496,-0.5727939009666444,1.4171855449676514
104.17001342773438,22.47811508178711,57.71614074707031,-3.199812889099121,-0.43796017765998846,2.95053505897522
-1.6534898281097412,13.014577865600586,-11.418108940124513,-0.5079054832458496,3.8902008533477788,0.6034438610076904
14.025299072265625,-14.529781341552734,18.766637802124027,-1.2377502918243408,2.4262657165527344,1.050291419029236
-17.165016174316406,-9.844503402709961,11.983813285827638,-0.23951047658920288,1.5217865705490115,0.5748685598373413
-5.6021270751953125,-5.567461013793945,14.283244132995607,0.5385321974754335,0.002577809616923332,-0.7300952672958374
4.068956851959229,-8.784643173217773,12.553417205810547,0.768082082271576,-0.6163961887359619,-1.1171604394912722
9.267474174499513,5.187525272369386,8.884883880615234,0.6073601841926576,-0.6944742798805238,-0.7907118797302246
10.855850219726562,4.979435920715332,6.22827959060669,0.16108839213848117,-0.2432440221309662,-0.38742014765739446
8.68118667602539,1.449935555458069,7.601059436798097,-0.14284516870975497,0.3191203474998474,0.059772737324237823
5.154609203338624,-1.2467876672744753,8.85555934906006,-0.15373365581035617,0.5349395275115967,0.16372482478618625
3.667600631713867,-2.8287768363952637,9.573371887207031,-0.018731201067566875,0.40924414992332464,0.0485825389623642
4.143204689025879,-2.64614200592041,9.55227565765381,0.10127275437116624,0.2530050277709961,-0.14740885794162753
4.869047164916992,0.37188765406608587,9.663914680480959,0.11103584617376329,0.14874941110610962,-0.18428745865821838
5.131683826446534,1.8008362054824831,10.067645072937013,-0.03969790041446686,0.07585415989160539,-0.004608229734003544
4.75916337966919,0.1608128547668457,9.879126548767092,-0.16083575785160067,-0.004448795225471259,0.13757842779159546
4.2759766578674325,-1.6266770362854004,9.561253547668459,-0.12589031457901,-0.10711314529180528,0.08532314002513885
4.502401351928711,-1.3425983190536501,9.57774543762207,-0.06186283007264138,-0.21628925204277039,-0.014639720320701599
4.957139015197754,-0.47641515731811523,9.56525993347168,-0.0790826678276062,-0.2940721213817597,-0.04637356847524643
5.290011882781983,-0.2035879045724869,9.307065963745117,-0.12321743369102478,-0.3252529501914978,-0.019837444648146633
5.2248196601867685,-0.544886887073517,9.298977851867678,-0.15590550005435946,-0.346030592918396,0.003189837327226997
4.9128079414367685,-0.5659520626068115,9.397457122802734,-0.17768436670303345,-0.3961882889270783,0.013182467781007292
4.76097297668457,-0.9133202433586122,9.423604965209961,-0.20792484283447266,-0.4635476768016816,-0.0021315268240869045
5.075294017791749,-1.1892219781875613,9.26801872253418,-0.20018626749515536,-0.5268110632896424,-0.023717563599348068
5.511510848999023,-0.8997434377670288,9.080781936645508,-0.18084198236465454,-0.5535548329353334,-0.013145053759217262
5.620238780975343,-0.8396378755569458,8.83405876159668,-0.1990209072828293,-0.538114070892334,-0.0072684623301029205
5.519718647003175,-1.0403611660003662,8.801553726196289,-0.1859569996595383,-0.517742395401001,-0.005642021540552379
5.559323310852051,-0.9264323711395264,8.678848266601562,-0.17286075651645663,-0.49475923180580145,-0.004581292159855366
5.322037696838379,-0.8354474306106567,8.882930755615234,-0.1861217170953751,-0.4947313070297241,-0.006595234852284194
5.1108975410461435,-0.5888761878013612,9.265140533447266,-0.18694078922271729,-0.551519811153412,0.0009401888237334789
5.036090850830078,-0.5051658749580384,9.364855766296388,-0.21786762773990634,-0.6483243703842163,0.024754540994763378
5.115565299987793,-1.0278446674346924,8.997500419616701,-0.2036494016647339,-0.7515161037445068,0.02018821053206921
5.115190982818604,-0.9278164505958558,8.754621505737305,-0.17432671785354614,-0.8673989176750184,0.004665005952119827
5.295261383056641,-0.8321647644042969,9.052186965942383,-0.1529659628868103,-0.9546356797218324,-0.03614842519164086
5.027062892913819,-0.8742666840553285,8.95849132537842,-0.22038322687149048,-1.0057185888290407,-0.07922486960887909
5.617816925048828,-1.2255120277404785,8.978930473327638,-0.23396803438663485,-1.0801464319229128,-0.11970232427120209
5.575254917144776,-1.9645650386810303,8.762515068054201,-0.14254249632358554,-1.088871955871582,-0.17639695107936862
5.804058074951172,-1.5656461715698242,8.454756736755373,-0.0251120924949646,-1.1202558279037478,-0.2213540226221085
6.386666297912598,-1.802875280380249,7.767051219940186,0.05343123897910119,-1.0702300071716309,-0.2518678009510041
6.619386672973633,-1.3359429836273193,7.805830955505371,0.101377971470356,-0.9980896115303041,-0.2688114643096924
6.670459747314453,-0.7427533864974976,8.125617980957031,0.1090339869260788,-0.9223256707191468,-0.24824130535125732
6.551516056060792,-0.9563364386558534,7.873081207275391,0.13331688940525058,-0.8592737913131714,-0.22602346539497375
6.619217395782472,-1.0942840576171875,7.973783969879151,0.16487419605255127,-0.8437805771827699,-0.21535319089889526
6.538264274597168,-1.222536563873291,8.056597709655763,0.1815425157546997,-0.8324751853942871,-0.222822442650795
6.263381481170655,-1.4614455699920654,7.895815372467042,0.20165644586086276,-0.8433804512023926,-0.2716160714626313
6.485673904418945,-1.1071443557739258,8.01844596862793,0.23591832816600802,-0.8642122745513916,-0.3162214159965515
6.645392894744874,-0.8464123010635376,8.005800247192383,0.2391570806503296,-0.8706547617912294,-0.3362954258918762
7.0089688301086435,-0.31316542625427246,7.756325244903565,0.22706921398639682,-0.8795266747474672,-0.32380348443984985
6.960562705993652,0.3256932497024536,7.997699260711671,0.19546885788440707,-0.8649978637695312,-0.27697661519050604
6.639484882354737,-0.17154648900032043,8.035762786865234,0.16576249897480014,-0.8792538642883301,-0.23214605450630188
6.869555950164796,-0.24355322122573853,7.864748477935792,0.18294808268547058,-0.9079776406288148,-0.18797007203102112
6.960684299468995,-0.03421461582183838,7.4207215309143075,0.16848382353782654,-0.9371988773345947,-0.18012298643589023
7.242635250091554,0.3074791431427002,7.622594833374023,0.10468786209821702,-0.9720394611358643,-0.15025667846202853
6.773636341094972,0.03941911458969116,7.922339916229249,0.06438937038183214,-0.9918801784515381,-0.09261365234851837
6.507675647735597,-0.5742335319519043,7.92120361328125,0.07613199949264526,-1.0601276159286501,-0.08768151700496674
6.808732986450195,-0.6066629290580751,7.221883773803711,0.08234493434429169,-1.1534366607666016,-0.10921951383352281
6.774170398712159,-0.6939846873283387,7.730742454528809,0.07123760133981706,-1.2649314403533936,-0.1491496711969376
6.238365173339844,-1.6510066986083984,7.558162212371827,0.12387274205684662,-1.3832746744155886,-0.23182688653469088
7.278839588165284,-1.2014856338500977,7.506949424743652,0.2050309330224991,-1.5351917743682861,-0.3068309128284455
7.496077060699464,-0.5273278951644897,6.9511260986328125,0.248874694108963,-1.6362359523773193,-0.3285933434963227
7.382928371429444,-0.09890414029359819,7.4544172286987305,0.2680255174636841,-1.81602418422699,-0.2838941216468811
6.825429916381836,-0.565684735774994,7.450511932373047,0.31439489126205444,-2.0600354671478276,-0.23642863333225253
6.4278669357299805,-1.23199462890625,8.065056800842287,0.3832188844680786,-2.4885752201080327,-0.26328301429748535
6.359260559082031,-1.3336032629013064,7.7229933738708505,0.48748150467872625,-3.0194137096405034,-0.3849813938140869
6.80491828918457,-1.0276908874511719,7.337737083435059,0.5517752170562744,-3.6171524524688725,-0.4604440927505493
7.207918643951417,-0.7120100259780884,7.513493061065675,0.5964936017990112,-4.164732456207276,-0.5152511000633241
8.406073570251467,0.14039479196071628,6.9576783180236825,0.6148204803466797,-4.561294078826905,-0.5464349985122681
9.761337280273438,0.4677078127861023,7.144743442535401,0.5931597948074341,-4.90638542175293,-0.474080115556717
11.93917751312256,1.2007789611816406,7.843645095825195,0.5108086466789247,-5.152153968811035,-0.14832805097103122
11.935836791992188,1.994253754615784,8.141877174377443,0.3812824189662934,-5.195401191711426,0.10640288889408112
13.783560752868654,1.243380427360535,8.097657203674318,0.23278909921646118,-4.7962355613708505,0.2353268563747406
18.261034011840824,0.22037607431411743,8.01774311065674,0.06886111944913866,-4.185928821563722,0.25397276878356934
27.050071716308594,1.9057627916336062,7.697690010070801,-0.4156424701213837,-3.355191230773926,0.5080984234809877
24.00579643249512,-1.608975887298584,6.766808986663819,-0.9637152552604676,-2.4921083450317383,0.5635762214660645
19.02300071716309,-0.70519357919693,5.281527042388917,-1.5217058658599854,-2.0135428905487065,0.38231056928634644
16.41509056091309,-3.248164176940918,-0.7729877233505249,-1.9025301933288574,-2.301170825958252,0.022435070946812633
17.902442932128906,-2.5758423805236816,-7.553825378417969,-1.2547861337661745,-3.006525993347168,-0.8569688200950624
17.848033905029297,-4.5347089767456055,-9.52331066131592,0.26466280221939087,-3.7789938449859624,-2.1915538311004643
20.634088516235355,-2.8187098503112793,-7.752406120300293,1.5690780878067019,-4.702394485473633,-3.129660844802857
24.419448852539062,3.1106162071228027,-6.306950092315675,2.073423385620117,-5.460420608520508,-3.7278869152069096
35.36944961547852,7.309743404388429,4.103663444519043,1.304291367530823,-5.444451332092285,-3.8163154125213627
28.11733436584473,6.397887229919434,7.4550538063049325,-0.25808185338974,-4.125328540802003,-3.4637763500213627
23.505067825317386,3.15513277053833,6.184825897216797,-1.6680971384048464,-3.358719825744629,-3.114437818527222
20.851181030273438,-1.5268359184265137,6.402928829193116,-2.236947536468506,-2.735783100128174,-2.972213506698609
16.078050613403324,-4.7533769607543945,5.559135437011719,-2.170014619827271,-2.3645243644714355,-2.9272291660308842
12.84297275543213,-8.361788749694826,5.705661296844483,-1.4151731729507449,-2.181302070617676,-2.928469181060791
10.437331199645998,-9.355275154113771,6.323769569396973,-0.23916105926036837,-2.041347026824951,-2.8650729656219487
8.980583190917969,-8.553029060363771,7.507123470306397,0.9290025830268861,-1.873575568199158,-2.7098097801208496
7.2847442626953125,-6.464773654937745,9.078598976135256,1.7453644275665283,-1.6196569204330447,-2.399205207824707
6.541852474212647,-3.419378519058228,10.879716873168945,1.9063856601715088,-1.1598762273788454,-1.9306839704513552
6.23193359375,-1.341832995414734,12.67220687866211,1.5493073463439941,-0.4131827056407929,-1.3436710834503174
4.746544361114503,-0.037099689245224,13.635972023010256,0.9016598463058472,0.5087947845458984,-0.807483732700348
2.7514040470123295,0.1758686900138855,13.250332832336428,0.13836817443370822,1.3859741687774658,-0.35446527600288397
0.052115291357040405,-0.3739506304264069,11.808448791503906,-0.4696102440357209,2.028233051300049,-0.04202213138341904
-1.9894031286239626,-0.9740150570869447,10.040627479553224,-0.8593423366546631,2.4425165653228764,0.1715092658996582
-3.3532862663269043,-0.8628362417221069,8.462738990783693,-1.05332612991333,2.7003183364868164,0.3457247912883759
-4.363552093505859,-0.5444845557212831,7.17729377746582,-1.1925466060638428,2.804810762405396,0.5641400814056396
-4.894132137298585,-0.6168308258056641,6.21467161178589,-1.2615087032318115,2.8234202861785893,0.7844682335853578
-5.066629886627198,-0.9435194730758667,5.697135925292969,-1.220597505569458,2.797813177108765,0.9573453664779663
-4.721659183502198,-1.0265866518020632,5.809429645538331,-1.105452299118042,2.7763442993164062,1.0587042570114138
-3.311422824859619,-0.6286535859107972,6.646189212799073,-1.0068675279617312,2.853165626525879,1.1323913335800173
-1.7145797014236452,-0.24508048593997958,7.638033866882324,-0.9435800313949585,3.113693475723267,1.1625546216964724
-0.852190673351288,0.358412504196167,8.331245422363281,-0.9398921728134155,3.5012018680572514,1.124413013458252
0.0734243467450142,1.5790178775787354,8.739830017089844,-1.0936250686645508,3.9443464279174805,1.0841308832168581
0.5339564085006714,2.411823987960816,8.610616683959961,-1.4025630950927734,4.391247272491456,1.1044983863830566
0.10173229128122331,2.172584772109986,7.542665481567383,-1.6896235942840576,4.740317821502686,1.1175640821456911
-0.4305328130722046,2.046417236328125,6.80071783065796,-1.8564748764038086,4.882187366485597,1.0551345348358154
0.14965754747390747,2.632506608963013,6.745233535766602,-1.9880474805831911,4.909682750701905,0.9665099382400513
1.1647890806198122,3.444060564041138,7.041856288909913,-2.210410356521607,4.921243667602539,0.8881013989448548
2.2561240196228027,4.39439582824707,7.748456478118897,-2.5057981014251713,4.932049751281738,0.7733545303344727
3.699865579605103,5.052089214324952,8.73687267303467,-2.8405308723449707,4.975798130035401,0.6014659404754639
4.963322639465332,5.724356174468995,9.674461364746094,-3.179319381713867,5.096879005432129,0.36818102002143865
5.95599365234375,6.4760451316833505,10.177253723144531,-3.5211040973663335,5.240131378173828,0.10402091592550279
6.88733720779419,6.653014183044434,10.257614135742188,-3.8510804176330566,5.336650371551515,-0.17481754720211032
7.864809989929199,6.573646068572999,10.252232551574709,-4.074358463287354,5.350011825561523,-0.4351141750812531
9.386967658996584,6.54372501373291,10.632083892822266,-4.228147506713867,5.317416191101074,-0.6800610423088075
10.322710990905763,7.029942512512207,11.263852119445803,-4.333727836608887,5.226689815521241,-0.9292447566986084
11.49410629272461,8.79985237121582,12.123097419738771,-4.564672470092773,5.082741260528565,-1.212811589241028
13.275010108947756,9.223974227905273,12.098936080932617,-4.955265522003175,4.942815780639648,-1.533358454704285
14.594204902648928,8.43929958343506,10.966404914855959,-5.228274822235108,4.67034673690796,-1.8088548183441162
15.222198486328125,7.297253608703613,10.158119201660156,-5.219725608825684,4.184792995452882,-1.9736833572387695
16.35948753356934,8.331518173217773,10.63998031616211,-5.0398926734924325,3.64725923538208,-2.0129294395446777
18.077545166015625,10.526052474975586,11.367125511169435,-4.995029449462891,3.2652871608734135,-1.8762786388397217
19.12866973876953,12.87526607513428,11.465535163879396,-5.055462837219238,3.0055150985717773,-1.6384991407394411
19.486831665039062,14.106456756591797,10.831858634948732,-5.072600364685059,2.8675606250762944,-1.4399523735046387
18.53981971740723,14.89543342590332,9.409173011779787,-4.787137031555176,2.7782309055328374,-1.4072021245956423
16.392684936523438,16.162652969360355,7.223990917205811,-4.242718219757081,2.5766310691833496,-1.5630940198898318
14.465497970581055,16.73126029968262,5.130242824554444,-3.598603963851929,2.222786188125611,-1.840205430984497
13.051342964172365,14.911793708801271,2.9927632808685307,-2.8834207057952885,1.771498203277588,-2.1728112697601323
13.113179206848146,11.611339569091797,1.341822624206543,-2.053114891052246,1.2409266233444216,-2.514820814132691
14.484303474426271,1.2902212142944336,-1.628788709640503,-0.4883321523666382,0.5955328345298768,-2.8172216415405273
14.015688896179201,9.19930171966553,-5.844556331634522,1.90165913105011,-0.21515448391437533,-3.4546899795532227
16.668096542358402,17.798980712890625,-4.573485851287843,2.200795412063599,-1.134000301361084,-3.5450718402862553
10.117162704467773,9.84757709503174,7.754637718200684,0.859442174434662,-1.141099214553833,-1.7645823955535889
26.001903533935547,-18.22014617919922,19.691184997558594,1.0613688230514529,-0.5517539978027344,-0.47941759228706365
16.252996444702152,-20.620843887329105,20.880966186523438,0.8595296740531922,0.09898407012224199,-0.6045944690704346
-1.611147403717041,-10.164599418640138,3.803569078445435,0.9960044026374818,0.10064426064491272,-0.2351314872503281
4.9923462867736825,7.291329383850098,12.069791793823242,0.9610011577606201,-0.941149652004242,-0.005933797452598811
11.553878784179688,19.035387039184574,16.745853424072266,0.27981910109519964,-0.3091639280319214,-0.10373841971158983
2.369158506393433,4.6254730224609375,8.834019660949709,-0.16221658885478976,0.04314325377345086,-0.21496915817260742
4.375680446624757,-5.463380813598633,9.332407951354982,-0.047654177993536,-0.14079254865646362,-0.23159806430339816
4.3583388328552255,-3.231839179992676,8.798845291137695,0.319202333688736,-0.21618637442588806,-0.1477240025997162
5.864897251129151,2.5137076377868652,9.972929000854492,0.2587244808673859,-0.18119242787361145,-0.09273215383291246
5.770135402679444,-0.750700831413269,9.681017875671388,0.09119110554456712,-0.0033783114049583678,-0.17079174518585205
5.372714519500733,-2.595199346542359,9.495896339416506,0.09380576014518738,0.04646121338009835,-0.07623030245304108
5.188427448272706,-0.4706709384918213,9.952550888061523,0.137048602104187,0.0491725467145443,-0.04352456703782082
4.976550579071046,-0.6672390699386597,9.863283157348633,0.121442086994648,0.049295589327812195,-0.06705347448587419
4.933252811431886,-0.7756067514419556,9.778307914733888,0.09555372595787048,0.06074465066194534,-0.037474233657121665
4.6989288330078125,-0.5318137407302856,9.882633209228516,0.028196372091770172,0.07144220918416978,0.0015017534606158733
4.673858642578125,-0.8184248208999634,9.797671318054201,-0.01765377633273602,0.04600100964307785,0.026408936828374863
4.503807067871094,-0.5949593782424927,9.913007736206055,-0.0432373508810997,0.012840836308896543,0.0462474450469017
4.374319553375245,-0.6458377838134766,9.757431983947756,-0.08705980330705644,-0.024891348555684093,0.048812150955200195
4.618385791778565,-0.868247389793396,9.650972366333008,-0.10798317939043046,-0.05019643157720566,0.05326185747981072
4.646970748901367,-0.8319796919822694,9.665033340454102,-0.13200509548187256,-0.057919245213270194,0.0712367966771126
4.59071159362793,-1.05422580242157,9.595203399658203,-0.13250295817852023,-0.07230305671691895,0.07255927473306657
4.5860185623168945,-1.1781800985336306,9.539937019348146,-0.12784223258495334,-0.08524986356496812,0.07094644010066986
4.565006256103516,-1.0937358140945437,9.508035659790039,-0.1293071359395981,-0.09427012503147125,0.0704706981778145
4.648438453674316,-1.0093069076538086,9.461966514587404,-0.13300570845603943,-0.09060227125883104,0.06813228875398637
4.794106960296632,-0.8670198321342469,9.574143409729006,-0.14960616827011108,-0.0846538469195366,0.07899878919124603
4.508508205413819,-1.1811890602111816,9.345527648925781,-0.14994542300701144,-0.06733527034521104,0.07003161311149597
3.6410973072052006,-1.8157203197479248,8.939556121826172,-0.12115537375211717,-0.07721398770809174,0.03958897665143014
3.9566092491149902,-2.1343567371368413,9.263351440429688,-0.08592654764652252,-0.14916132390499118,-0.0011256440775468948
5.02308464050293,-1.2636101245880127,9.318418502807617,-0.05620950087904931,-0.149043470621109,-0.023734746500849727
5.0820937156677255,-0.9086570739746094,9.313365936279297,-0.07309480756521226,-0.0908702537417412,-0.01813901588320732
4.952610015869141,-1.2569676637649538,9.30431652069092,-0.07647690176963806,-0.04813849553465844,-0.006439661607146263
4.685100555419922,-1.4901626110076904,9.261206626892092,-0.05439644306898117,-0.01737339608371258,-0.013904294930398466
4.338184356689453,-1.7238150835037234,9.192366600036623,-0.035889599472284324,-0.014287322759628296,-0.031777013093233115
4.415818691253663,-1.5402287244796755,9.332164764404297,-0.016098752617836,-0.03888579457998276,-0.058381926268339164
4.760982513427734,-1.2986392974853516,9.309284210205078,0.0004428814281709492,-0.038748752325773246,-0.08158694207668304
4.793192386627198,-1.1595728397369385,9.390934944152834,0.005586235318332911,-0.022697962820529938,-0.08491109311580658
4.61540412902832,-0.8066773414611816,9.446606636047365,-0.008097883313894272,-0.018326772376894954,-0.06845897436141968
4.324160575866699,-1.284623146057129,9.37901496887207,-0.03200237080454827,-0.03302287682890893,-0.06637535989284515
4.528563022613526,-1.5266549587249756,9.328129768371584,-0.02410071156919003,-0.06262578070163727,-0.06927443295717241
4.066760540008546,-1.3928507566452029,9.237965583801271,-0.030403247103095058,-0.08504223823547363,-0.0766785740852356
4.34119462966919,-1.2640433311462402,9.56499767303467,-0.04228442907333374,-0.13827191293239596,-0.09238745272159576
4.404723644256593,-1.0811657905578613,9.66644287109375,-0.062350764870643616,-0.18168306350708008,-0.07899922877550127
4.419038772583008,-1.0807311534881592,9.714035034179688,-0.08854907751083374,-0.22678269445896151,-0.08570727705955505
4.673902034759522,-1.4034351110458376,9.591541290283203,-0.0842842534184456,-0.25748759508132935,-0.09792642295360565
4.67238712310791,-0.9877095818519593,9.630795478820803,-0.07864779978990556,-0.279230535030365,-0.10631861537694932
4.619749069213867,-1.0546556711196902,9.349612236022951,-0.07927107810974121,-0.2956276535987854,-0.09719044715166093
4.516299724578858,-1.1834720373153689,9.540275573730469,-0.09786922484636308,-0.34387367963790894,-0.10508290678262712
4.718181133270265,-1.142637372016907,9.368915557861328,-0.11088362336158752,-0.4030281603336335,-0.11393044143915178
4.181399345397949,-1.4637186527252197,9.317753791809084,-0.10684164613485338,-0.4656033515930176,-0.13781167566776278
4.165898323059082,-1.5483992099761963,9.609987258911133,-0.08102212101221086,-0.5859535336494447,-0.22052153944969177
4.72019100189209,-1.2887996435165407,9.714300155639648,-0.09309879690408708,-0.7199752330780029,-0.26023134589195257
4.662308216094972,-0.7979899644851685,9.902937889099123,-0.1624448001384735,-0.868346393108368,-0.2882018387317658
4.474631309509277,-0.1486095637083054,10.040761947631836,-0.3059741258621216,-1.0642386674880984,-0.28592807054519653
4.092635154724121,-0.6995641589164735,10.139549255371094,-0.4635430574417114,-1.3115754127502441,-0.25020441412925726
2.8480160236358647,-0.37207597494125366,10.548270225524904,-0.5748922228813172,-1.6804933547973633,-0.2270845025777817
2.9042427539825444,0.4083191156387329,10.764190673828125,-0.6996842622756958,-2.1574475765228276,-0.20705880224704745
2.61324954032898,0.257610559463501,11.356756210327148,-0.8256738781929017,-2.7084598541259766,-0.15504021942615512
2.426862001419068,-0.19080057740211487,11.454116821289062,-0.9079102873802186,-3.3298976421356206,-0.1325024962425232
1.9865735769271853,-0.5173162817955018,11.509164810180664,-0.9866374731063843,-4.118336200714112,-0.18110224604606628
1.55631959438324,-1.4280406236648562,11.889276504516602,-0.9658194780349731,-5.195942401885987,-0.32415243983268743
1.0243211984634402,-3.356643438339234,13.318243980407717,-0.7230529189109803,-6.516918182373047,-0.47845771908760076
2.22242283821106,-6.09670114517212,14.902687072753906,-0.3599521219730378,-7.961719989776612,-0.62785804271698
5.224250316619874,-6.2530484199523935,17.681768417358402,-0.5431091785430908,-9.694605827331545,-1.090306043624878
13.255795478820803,-3.0862045288085938,19.97213172912598,-0.7358853220939637,-10.367189407348633,-1.0858969688415527
23.56072044372559,-6.197219371795655,19.48434829711914,-0.862978458404541,-10.350640296936037,-1.2224080562591553
32.71568298339844,-5.959807872772218,24.044540405273438,-1.2800384759902956,-9.329792976379396,-1.4421982765197754
32.02183532714844,-6.134974002838136,24.004718780517578,-1.7814242839813232,-8.02804470062256,-1.7826511859893799
29.912818908691406,-6.05994987487793,17.972450256347656,-2.2996690273284917,-7.009951591491699,-1.6440434455871582
24.83195304870606,-3.342929601669312,20.90732002258301,-3.7428023815155034,-4.941316604614258,-0.6116057038307191
16.547290802001953,-2.5884406566619877,13.600717544555664,-4.9730801582336435,-2.6814434528350835,-0.14351946115493774
40.73527908325196,-7.771134853363038,21.16098403930664,-4.1278839111328125,-1.0506910085678103,-1.354532241821289
19.90539360046387,-12.21278476715088,18.023963928222656,-2.7484652996063237,2.434182643890381,-1.4019486904144287
5.977562427520753,-7.297019004821777,6.569252490997315,-1.7902985811233523,3.067124843597412,-1.3788961172103884
2.8012340068817143,-2.6192810535430913,2.3839352130889897,-0.817476749420166,3.077101230621338,-1.5767425298690798
0.6889058351516724,2.958368539810181,0.38272571563720703,-0.7124089002609253,2.932806253433228,-1.764589786529541
-0.5624181032180786,4.834429740905762,-0.06631591171026231,-1.2871953248977663,2.7467145919799805,-1.8158760070800781
-1.0401862859725954,3.9866235256195073,0.6791405081748964,-1.9027870893478396,2.685854911804199,-1.7765525579452517
-0.5666409134864808,1.1749285459518435,1.909419655799866,-2.1237564086914062,2.8096494674682617,-1.6856855154037478
-0.9691156148910522,-0.8937119245529175,2.8359262943267827,-1.8222876787185671,3.0394296646118164,-1.6020215749740603
-1.7688080072402956,-0.9265571236610414,3.0387535095214844,-1.278025031089783,3.2862744331359863,-1.4192979335784912
-2.710514545440674,0.737644135951996,2.5885241031646733,-0.9397305846214296,3.4714035987854004,-1.1414784193038943
-3.3616833686828613,1.5190142393112185,1.8087037801742556,-0.8809065818786621,3.5410842895507812,-0.77577942609787
-3.0608665943145756,1.297932267189026,1.6045812368392947,-0.9652375578880311,3.5791330337524414,-0.3884375393390656
-2.334896802902222,0.9646819829940796,1.6663554906845095,-0.989622950553894,3.661312818527222,-0.011906192637979986
-1.4859507083892822,1.180657505989075,2.059406995773316,-0.9395495057106019,3.790112018585205,0.31689068675041204
-0.8686770796775819,1.843144416809082,2.0426793098449707,-0.9042267203330995,3.9965465068817143,0.5809793472290039
-1.2254116535186768,2.823840618133545,1.0601752996444704,-0.8954266905784608,4.171072959899902,0.7190623879432679
-1.739342212677002,3.6660411357879643,-0.03808286786079407,-0.9406025409698486,4.190409183502198,0.7303976416587831
-1.3133262395858767,3.9785051345825195,-0.43292754888534546,-1.0097744464874268,4.117647647857667,0.6319931745529175
0.059388618916273124,3.876625299453736,0.2590018212795258,-1.0282171964645388,4.057775020599366,0.46051710844039917
1.8759019374847412,4.482454299926758,1.1917054653167725,-1.0399672985076904,4.076146602630616,0.3091047406196594
4.07619571685791,4.525052070617676,1.7736369371414187,-1.0791455507278445,4.174190521240234,0.1755525767803192
5.685899257659913,3.719871282577515,1.2498263120651247,-1.0079921483993532,4.270116806030273,0.046032164245843894
6.7907562255859375,3.7985291481018066,0.20712269842624667,-0.8649940490722656,4.212560653686523,-0.03653526678681374
8.192362785339357,3.797405242919922,-0.4646603465080261,-0.7373234629631044,3.976383686065674,-0.0824289694428444
10.205852508544922,3.5032908916473393,-0.49183928966522217,-0.6091409921646118,3.653897047042847,-0.08602685481309892
12.419600486755373,3.636414051055908,-0.5370502471923828,-0.5034639835357666,3.2737257480621342,-0.010331541299819946
14.154883384704592,3.0136811733245854,-0.9260094761848451,-0.32415539026260376,2.8238930702209473,0.04388272389769555
14.967016220092773,3.04996132850647,-1.4964858293533327,-0.04375667497515679,2.2672858238220215,0.05828123167157174
15.19888210296631,3.453109979629517,-2.1861839294433594,0.2296203374862671,1.6082924604415896,0.015923360362648967
15.565252304077148,3.8023266792297363,-1.8903331756591797,0.46869897842407227,0.8687395453453065,-0.07536239922046661
17.624647140502933,4.198314666748047,-0.21115426719188693,0.6271295547485352,0.24265435338020325,-0.2239596098661423
17.994815826416016,3.928342342376709,0.1685294955968857,0.7240929007530214,-0.14553454518318176,-0.44644889235496527
14.807964324951172,3.1136147975921635,-1.3621065616607666,0.8230797648429872,-0.5482516288757324,-0.6452704668045044
49.65076065063477,15.30068111419678,1.4857611656188965,-1.235467314720154,-2.1706156730651855,0.3465820252895356
71.28724670410156,11.112974166870117,30.206518173217777,-2.311030387878418,1.6042098999023438,1.675216317176819
-3.2571241855621342,5.7108964920043945,4.298313140869141,-1.0743746757507324,1.6865466833114626,0.48141610622406006
6.717549800872804,-2.0073640346527104,15.713366508483888,-0.6666551232337953,1.758291244506836,0.6560543775558472
-9.976939201354982,-2.6072559356689453,9.7801513671875,0.011896137148141861,0.8642356991767884,0.21667981147766113
0.9377287030220033,-8.269046783447266,12.671933174133303,0.4504750072956086,0.1751082092523575,-0.5187413692474365
3.6440765857696538,-12.140913963317873,10.965660095214844,0.7431543469429017,-0.10279205441474915,-0.895697057247162
6.621232986450195,5.106496810913086,9.698824882507326,0.7688826918601991,-0.1453162133693695,-0.9125230312347412
9.492829322814943,6.870342731475831,7.988677501678468,0.26971250772476196,0.04042815044522286,-0.5078332424163818
8.037618637084961,3.383596897125244,8.940735816955568,-0.2559148669242859,0.32265138626098633,0.031814169138669975
5.364491939544679,-1.5576432943344118,9.099532127380373,-0.22764174640178683,0.36272281408309937,0.23287056386470797
3.965831756591797,-3.0139365196228027,9.661121368408203,-0.07790999859571458,0.24821323156356812,0.08497966825962067
4.425868511199952,-2.4596188068389897,9.489315986633303,0.050365995615720756,0.10584613680839539,-0.09135214239358903
5.249109268188477,0.6909370422363281,9.645613670349123,0.04118793830275536,0.06125749275088311,-0.09034909307956696
5.5005841255188,1.5012290477752686,9.78992557525635,-0.11585359275341034,0.05453236028552056,0.07630808651447296
5.074834823608398,0.01982457935810089,9.617786407470703,-0.21162837743759155,0.034397091716527946,0.20041446387767795
4.354709625244141,-1.716963768005371,9.513463973999023,-0.13501450419425964,-0.024792430922389034,0.13036969304084778
4.439308166503906,-1.746925234794617,9.550695419311523,-0.05241195484995843,-0.10652936249971391,0.016302447766065598
4.83455753326416,-0.48734566569328314,9.548205375671388,-0.03956829756498337,-0.16608966886997226,-0.021291382610797882
5.352147102355957,0.3090220391750336,9.420385360717773,-0.09537901729345323,-0.18328574299812317,0.029609456658363342
5.36186170578003,-0.2993509769439697,9.24146842956543,-0.14975790679454806,-0.16987013816833496,0.07472058385610582
5.102147102355957,-1.027290225028992,9.287490844726562,-0.14894425868988037,-0.16448774933815002,0.0768796280026436
4.905173301696777,-1.0415827035903933,9.370201110839844,-0.13953195512294772,-0.18035739660263062,0.058462943881750114
4.929689407348633,-1.1510894298553467,9.286733627319336,-0.12325148284435272,-0.2010583728551865,0.03351372107863427
5.046395778656007,-1.1562328338623047,9.106368064880373,-0.10302911698818207,-0.19096083939075473,0.01551375538110733
5.126898765563965,-0.7841540575027466,9.195402145385742,-0.10298198461532593,-0.18632057309150696,0.030691871419548992
5.198513984680176,-0.5309592485427856,9.284808158874513,-0.1292758584022522,-0.19419728219509128,0.054796382784843445
5.14635992050171,-0.9103280305862427,9.155099868774414,-0.13594965636730197,-0.1851292848587036,0.06884323060512543
5.235830783843995,-1.0041764974594118,9.02586555480957,-0.11108899861574174,-0.16890254616737366,0.06519400328397752
5.08421516418457,-0.795909345149994,9.025558471679688,-0.11202297359704973,-0.15360607206821444,0.06458456814289093
5.0014495849609375,-0.9763784408569336,9.045639991760256,-0.11968874931335449,-0.14272288978099826,0.05740922689437866
4.777215480804444,-1.1122338771820068,9.135608673095703,-0.10590152442455292,-0.13990242779254916,0.0372116006910801
4.8164124488830575,-1.4505894184112549,9.040634155273438,-0.062431059777736664,-0.13781295716762546,0.00409188587218523
5.082083225250245,-1.193094253540039,8.996158599853516,-0.02558605745434761,-0.1316131055355072,-0.02293668128550053
5.001019477844238,-1.091574311256409,8.714080810546875,-0.005196847487241031,-0.11092662811279297,-0.04523327574133874
4.867415428161621,-0.7907186150550843,9.119370460510256,-0.0032253644894808535,-0.12048517167568207,-0.0639260858297348
4.784802436828613,-0.4854318201541901,9.360210418701172,-0.007496104110032321,-0.15376800298690796,-0.05416624620556832
4.67220401763916,-0.95697021484375,9.27529048919678,-0.011031310074031355,-0.2029996067285538,-0.0581376776099205
4.6280364990234375,-1.0840728282928467,9.380401611328125,0.017599474638700485,-0.276902049779892,-0.10619314014911652
4.722275257110597,-0.9122531414031982,9.14847183227539,0.055889882147312164,-0.35323032736778265,-0.1583140939474106
4.549280643463136,-1.0246491432189941,9.262479782104492,0.07054823637008667,-0.43663725256919866,-0.19674187898635864
4.62632942199707,-0.6047286987304688,9.61196041107178,0.08628436923027039,-0.5580329895019531,-0.2218611389398575
5.138575077056886,-0.5612384080886841,9.260895729064943,0.08890318870544434,-0.6600319743156434,-0.22189217805862427
5.2301483154296875,0.06726165115833282,9.370594024658203,0.03263134881854058,-0.7427042722702026,-0.19991791248321533
4.903264999389648,-0.05715864896774292,9.482975959777834,-0.02039312943816185,-0.8437168002128602,-0.16189804673194885
4.497260570526124,-0.9662454128265381,9.306648254394531,-0.048102322965860374,-0.9994855523109437,-0.15990367531776428
5.287239074707031,-0.621274769306183,9.21681880950928,-0.03915724530816079,-1.1686549186706543,-0.14619059860706332
5.234561920166016,-0.1562326103448868,9.26198959350586,-0.10859826952219011,-1.304847240447998,-0.12368375062942505
5.222224235534668,-0.5206021070480347,9.595837593078615,-0.18369491398334506,-1.4888184070587158,-0.12042322009801866
5.168994426727296,-1.4790794849395752,9.84014415740967,-0.17080514132976535,-1.6649276018142702,-0.174950510263443
5.17427682876587,-1.3077218532562256,9.384017944335938,-0.026239639148116115,-1.8605282306671143,-0.23903484642505649
5.8850769996643075,-0.4506743550300598,9.511590003967287,-0.042551033198833466,-2.06667971611023,-0.227389469742775
5.926985263824464,-0.5177117586135864,9.52381992340088,-0.060084134340286255,-2.240656137466431,-0.19765645265579224
5.89192008972168,-0.3668583631515503,9.27857780456543,-0.038130510598421104,-2.4714758396148686,-0.21773728728294373
5.829599380493164,-0.06943704187870026,9.33568000793457,-0.053974904119968414,-2.6757628917694096,-0.19916963577270508
5.171931266784668,-0.6057969331741333,8.693077087402344,0.0017722366610541942,-2.9841551780700684,-0.22314313054084778
5.184489727020265,-0.6009696125984193,8.599457740783693,0.2035261541604996,-3.4593043327331543,-0.2971301376819611
6.104783535003663,-0.2511667907238007,9.773396492004396,0.40294054150581365,-3.9867088794708256,-0.3268829584121704
7.459928035736085,-1.1418870687484743,10.587139129638672,0.5228509902954102,-4.461685657501222,-0.23074689507484436
9.961255073547365,-0.9081467390060425,12.351043701171875,0.4868840873241425,-4.75621223449707,-0.028817899525165558
14.217215538024904,-1.26654589176178,13.394386291503906,0.2586109340190888,-4.76483154296875,0.1719680577516556
17.435218811035156,-4.793694496154785,12.088134765625,0.558026909828186,-4.56968879699707,0.039828520268201835
26.384889602661136,-3.299212217330933,11.408594131469727,1.208508014678955,-4.290329456329347,-0.10624122619628906
33.04084777832031,-2.4203929901123047,7.145837306976319,1.2751950025558474,-3.8377060890197754,-0.24614185094833374
29.714025497436527,-4.722138404846191,-0.0011538565158843994,1.782163381576538,-3.717995882034302,-0.6359415054321289
31.623477935791016,-4.3976502418518075,0.30050164461135864,2.7076525688171387,-3.748387336730957,-1.021285653114319
30.320360183715824,1.434641242027283,1.5351160764694216,3.0204644203186035,-4.136766910552979,-1.343621015548706
43.054351806640625,3.3964948654174805,15.672313690185547,2.1729307174682617,-3.6186616420745854,-1.3923684358596804
27.760416030883793,3.6194334030151367,14.129494667053224,0.9915058612823486,-2.397058725357056,-1.2017579078674316
23.622438430786136,3.0992231369018555,13.060297012329102,-0.30380609631538397,-2.0835597515106206,-1.1163110733032227
19.745008468627933,2.135164260864258,12.557245254516602,-1.3642817735672,-1.7867469787597656,-1.1184798479080202
15.844377517700195,-0.33411130309104925,11.92616081237793,-2.115540742874146,-1.5301504135131836,-1.231358528137207
12.920214653015138,-3.914699077606201,11.629432678222656,-2.2488901615142827,-1.2309770584106445,-1.425375819206238
9.83201313018799,-7.356117725372315,11.235903739929201,-1.5277013778686523,-0.8953649997711182,-1.6123555898666384
6.184047222137452,-7.254293441772461,10.852218627929688,-0.33995896577835083,-0.5948472619056703,-1.8401000499725342
3.4296207427978516,-4.32672119140625,11.219902038574219,0.4462372064590454,-0.3113431036472321,-1.9744299650192263
0.9717420339584351,-1.9285876750946045,11.185287475585938,0.6433069705963135,0.008234986104071142,-1.925428867340088
-1.678837537765503,-1.2380584478378298,9.947426795959474,0.4766866862773896,0.33814349770545965,-1.8427214622497559
-4.01023817062378,-1.4137661457061768,8.500271797180178,0.1837984025478363,0.6266351342201234,-1.7500169277191162
-5.269155502319336,-2.99048399925232,8.4632043838501,-0.034255653619766235,0.8269420266151429,-1.6601744890213015
-3.7438430786132812,-4.272653579711914,10.126496315002443,-0.15501116216182712,1.1423864364624023,-1.4751113653182986
-2.994055032730103,-5.6149916648864755,10.13047504425049,-0.07357022166252136,1.6983616352081299,-1.1763082742691042
-5.412478446960449,-6.320784091949464,8.178877830505373,0.21148627996444702,2.1800544261932377,-0.9276094436645508
-7.504702091217042,-5.121715545654297,6.061368465423585,0.3766301572322846,2.358358383178711,-0.6647794246673584
-8.818455696105959,-3.398214817047119,4.208564758300781,0.23706142604351046,2.3550944328308105,-0.37525650858879095
-8.714574813842773,-2.430679082870484,3.6199038028717045,-0.16914843022823337,2.2905676364898686,-0.030051041394472122
-7.238142013549805,-2.883576631546021,4.228202819824219,-0.5789445638656616,2.339093923568726,0.3542591333389282
-5.501241683959961,-3.823777675628662,4.746371269226074,-0.7604295611381532,2.596231460571289,0.7310442924499512
-4.761962890625,-3.8034460544586186,4.493343353271484,-0.7092621922492982,2.9250411987304688,1.0826724767684939
-4.049001693725586,-2.628712892532349,3.9330613613128667,-0.652911901473999,3.266624927520752,1.4411920309066775
-4.276430606842042,-1.4255088567733767,2.4465239048004155,-0.6508390307426454,3.5569796562194824,1.7582541704177859
-4.253143310546875,-0.1786327362060547,1.0369204282760622,-0.7122397422790527,3.6979625225067143,2.0402786731719975
-3.850327968597412,1.1515520811080935,0.344957172870636,-0.8088579773902894,3.721992015838623,2.2613852024078374
-2.044306755065918,2.61603331565857,1.0584962368011475,-0.9324480295181274,3.717297077178955,2.3676922321319585
0.5590935349464418,4.262807846069336,2.0232236385345463,-1.0462002754211426,3.8046057224273686,2.3096470832824707
3.524609804153443,5.066455364227296,2.539343118667603,-1.138557553291321,3.9669175148010254,2.0326128005981445
6.149056911468507,5.123473644256593,2.6015279293060307,-1.0996623039245605,4.11739206314087,1.5359923839569092
8.955615997314453,5.4081788063049325,2.1742758750915527,-0.956303894519806,4.196424007415772,0.9127323627471924
12.041036605834961,5.626726150512695,1.2343599796295166,-0.8701992630958558,4.185126304626465,0.29848900437355047
14.53174686431885,4.615562915802003,-0.2148917317390442,-0.7614461183547974,4.019012928009034,-0.22927753627300265
16.487571716308594,3.27924656867981,-1.6899888515472412,-0.6707987189292909,3.741093635559082,-0.5803619027137757
17.243255615234375,1.3043373823165896,-2.9104995727539062,-0.48757779598236084,3.289466381072998,-0.7505138516426088
17.29241752624512,-0.016645334661006927,-3.6179933547973633,-0.29662978649139404,2.6896669864654545,-0.6373568773269653
16.602716445922855,-0.11407801508903503,-3.759889602661133,-0.2631793320178986,2.048494338989258,-0.21933892369270325
14.674262046813967,-0.48797303438186646,-4.335241317749023,-0.3588113486766816,1.3799307346343994,0.3622554242610932
10.447083473205568,-1.0680485963821413,-6.476330757141113,-0.46602085232734686,0.6411641240119935,1.0311877727508545
5.142169475555421,-1.7497334480285645,-8.716890335083008,-0.418736606836319,-0.3525505065917969,1.626430153846741
71.10536956787111,26.094261169433594,23.220569610595703,-3.6212904453277592,-2.473123073577881,2.979400634765625
52.97532272338868,29.8326587677002,20.03369140625,0.0027487282641232014,4.493879795074464,0.5420790910720825
10.988162040710451,-11.111444473266602,7.149455547332765,-2.2313079833984375,3.1835451126098633,0.9294562935829164
-7.068412303924561,0.48877382278442383,14.782105445861818,-0.251523643732071,3.414595603942871,0.8213815093040467
-10.979956626892092,-9.191006660461428,15.479488372802734,0.3331007957458496,1.385881543159485,0.08090896159410478
-6.021255016326905,-11.079147338867188,14.000532150268555,0.5791586637496948,0.023285971954464916,-0.5751974582672119
2.4926893711090092,-2.548947334289551,12.859354019165039,0.5561265349388124,-0.7503948807716371,-0.9709243774414062
9.538818359375,4.6723432540893555,7.672838687896729,0.33316922187805176,-0.6826681494712831,-0.7138645648956299
10.300025939941406,3.9441518783569336,6.763436317443848,0.026332711800932888,-0.23612180352210999,-0.30408525466918945
8.319956779479982,1.1520258188247683,7.827147960662843,-0.18242910504341125,0.2737277448177338,0.0919715017080307
5.107475757598878,-1.2312626838684082,8.831763267517092,-0.2889994680881501,0.532195270061493,0.11998488008975983
3.9823451042175293,-2.0492148399353027,9.66082286834717,-0.02906436659395695,0.3530585765838623,0.0458144135773182
4.250320911407472,-0.9589595794677734,9.816945075988771,0.017118480056524277,0.2406120151281357,-0.06978973001241685
4.582937717437745,0.9769840836524964,9.915092468261719,-0.028349880129098892,0.12655223906040194,0.015430834144353867
5.057100772857667,1.0237014293670654,9.959483146667482,-0.18971401453018188,0.07370631396770477,0.16709499061107638
4.710635662078858,-0.81175696849823,9.665069580078125,-0.25297725200653076,0.04460792616009713,0.23374012112617493
4.002297401428223,-1.610806941986084,9.783271789550781,-0.20494186878204346,-0.03545958176255227,0.15043626725673678
4.141212463378906,-1.215996861457825,9.842913627624513,-0.127210795879364,-0.16446356475353244,0.05481980741024017
4.837757587432862,-0.46587061882019043,9.612503051757812,-0.11583126336336137,-0.24646718800067904,0.027927465736865997
5.349556922912598,-0.1312195062637329,9.408073425292969,-0.15392357110977173,-0.2642055451869965,0.06123426556587219
5.400881290435792,-0.516155481338501,9.208899497985842,-0.1882870048284531,-0.23962700366973877,0.09961074590682983
5.157399654388429,-0.984697997570038,9.180158615112305,-0.19042240083217624,-0.21623915433883667,0.11412539333105089
4.830839157104492,-1.1148178577423096,9.333943367004396,-0.16699907183647156,-0.223567932844162,0.09972044080495836
4.855871200561523,-1.045985221862793,9.32127094268799,-0.15882547199726108,-0.2475142478942871,0.07646555453538896
4.971414566040039,-1.2600641250610352,9.142244338989258,-0.14248135685920715,-0.2401758283376694,0.0573316551744938
5.240891933441163,-1.2468189001083376,8.907855987548828,-0.10468085855245592,-0.19309329986572266,0.048388678580522544
5.509825706481934,-0.9573200941085815,8.861673355102539,-0.07931054383516313,-0.12512548267841342,0.040539905428886414
5.53614091873169,-0.6442334651947021,8.928887367248537,-0.06846193224191667,-0.058672577142715454,0.05088877305388451
5.378750801086426,-0.7816613316535951,9.013652801513672,-0.06592443585395813,0.0012800326803699138,0.06272097676992418
5.196934700012207,-1.1670820713043213,8.980460166931154,-0.04203107953071594,0.05251044407486916,0.058232858777046204
5.066290855407715,-1.381401538848877,9.001310348510742,0.002245243871584535,0.09437895566225053,0.035511404275894165
5.179179668426515,-1.0809415578842165,8.988964080810547,0.03323060646653176,0.12671980261802673,0.018535135313868526
5.02995491027832,-0.9873816967010498,8.912554740905763,0.03971433266997338,0.1619640290737152,0.018575362861156464
4.828187942504883,-0.6473480463027954,9.196874618530273,0.021470535546541214,0.17026595771312716,0.0301046259701252
4.696511745452882,-0.9104866981506348,9.241591453552248,0.006686383858323097,0.1677832305431366,0.03781044855713845
4.471120357513429,-1.0708609819412234,9.229346275329592,0.016960049048066143,0.15310341119766235,0.020191343501210216
4.730055809020996,-1.1167167425155642,9.204670906066896,0.037139907479286194,0.13243444263935092,-0.007643795106559993
4.706487178802491,-0.4785673320293427,9.125385284423828,0.042772650718688965,0.12298827618360521,-0.021520130336284637
4.333696365356445,-0.26472651958465576,9.433856964111328,-0.00611343327909708,0.09322938323020935,-0.0020960222464054827
4.026677608489991,-1.183349609375,9.533706665039062,-0.005411917343735695,0.031354319304227836,-0.01734408736228943
4.142265796661378,-1.3732928037643435,9.396809577941896,0.04524429142475128,-0.04910197481513024,-0.07726023346185686
4.265381813049316,-0.8301538228988647,9.391314506530763,0.05674653127789498,-0.10903869569301605,-0.13276796042919162
4.055408477783203,-0.5019994974136353,9.719894409179688,0.03333050757646561,-0.1873689889907837,-0.16322447359561923
4.413167953491211,-0.6476415395736694,9.950370788574219,0.0155028747394681,-0.29469096660614014,-0.18716470897197726
4.240074634552003,-0.8430450558662416,9.912353515625,0.015962196514010433,-0.423576295375824,-0.22289937734603882
4.96900749206543,-0.5976710319519043,9.705778121948242,0.023318447172641754,-0.5603129267692567,-0.2382027506828308
4.845658779144288,-0.703235387802124,9.68487071990967,0.0330846831202507,-0.6677846908569336,-0.24360017478466037
4.696598529815675,-0.28347063064575195,9.892767906188967,0.06465923041105272,-0.8157773017883301,-0.22925288975238803
4.4708051681518555,-0.490323543548584,9.984227180480959,0.06449983268976213,-1.0113334655761719,-0.2114165723323822
4.0265469551086435,-0.00466485321521759,10.334024429321289,-0.006478922441601753,-1.2993818521499636,-0.20012563467025757
3.8212084770202637,-0.36326509714126587,10.121832847595217,-0.044650934636592865,-1.6319804191589355,-0.148157075047493
4.836723327636719,0.614569127559662,10.37069606781006,-0.15588411688804626,-1.9747127294540407,-0.09941104054450989
3.68770170211792,-0.07715381681919098,10.415010452270508,-0.28499966859817505,-2.3228828907012944,-0.09288810938596727
4.6740479469299325,-2.113723516464234,10.794769287109375,-0.238880529999733,-2.5484213829040527,-0.13187442719936374
4.522280216217042,-0.9133418202400209,9.680652618408203,-0.019167911261320114,-2.9153637886047363,-0.17371867597103122
5.383578777313233,-0.3132914900779724,10.20408344268799,0.008180426433682442,-3.162662267684937,-0.2766062021255493
5.4665727615356445,0.024121642112731934,10.667911529541016,-0.075564906001091,-3.4870655536651616,-0.2078083008527756
3.9837572574615483,-2.351386070251465,9.773681640625,0.10440891981124878,-3.912441492080689,-0.3139905333518982
4.299868106842042,-3.93677306175232,9.25121593475342,0.6475652456283569,-4.626147270202637,-0.5968913435935975
7.406164169311523,-3.0521895885467534,10.954493522644045,0.9734847545623779,-5.239887714385987,-0.7152489423751831
11.31739616394043,-3.009499311447144,13.196160316467287,1.0547829866409304,-5.503384590148926,-0.7058868408203125
15.339800834655763,-3.778048515319824,14.672140121459961,1.1417046785354616,-5.41957950592041,-0.7410126328468324
21.13647270202637,-4.275650501251222,13.10901737213135,1.6246302127838135,-5.286755561828613,-1.108255982398987
29.20443153381348,-3.2061052322387695,10.248595237731935,2.076996326446533,-5.167996883392335,-1.3383705615997314
33.95856094360352,-3.2702808380126953,6.145349502563477,2.088001251220703,-4.900733470916749,-1.2640687227249148
33.28823471069337,-5.457523345947266,3.3581085205078125,3.1366536617279057,-4.619307518005371,-1.478920102119446
29.77969551086426,-1.8405003547668457,0.8056624531745912,3.916661977767945,-4.361546993255616,-1.1690969467163086
36.5904884338379,7.445345401763917,5.890864849090577,3.288280248641968,-4.784156799316406,-1.01113498210907
37.24071502685547,5.98203182220459,15.505816459655763,1.6789890527725222,-3.3975143432617188,-0.7319481372833252
26.171951293945312,4.856950283050538,13.088113784790039,0.11200997233390808,-2.512410402297974,-0.2421835958957672
23.097919464111328,3.37000060081482,12.729711532592773,-1.1324630975723269,-1.9669800996780398,-0.06438389420509338
17.25149154663086,1.223698377609253,11.337045669555664,-1.9851844310760498,-1.5359500646591189,-0.052492156624794006
12.137914657592773,-1.3620615005493164,10.852184295654297,-2.3858506679534917,-1.254258155822754,-0.17837080359458923
9.58267593383789,-4.510347843170167,11.676292419433594,-2.1054832935333256,-0.9555283784866333,-0.4438213407993317
6.997772693634034,-6.176447391510011,12.2876672744751,-1.1746134757995605,-0.46692347526550293,-0.7591539025306703
3.75496768951416,-4.913984298706055,12.37693500518799,-0.14947070181369784,0.11110548675060272,-1.068988919258118
1.1273446083068848,-2.2318239212036133,12.099291801452638,0.37874799966812134,0.7099987864494325,-1.2564483880996706
-2.109468936920166,-0.4498063921928406,11.301863670349123,0.40560695528984075,1.263152837753296,-1.3266471624374392
-4.765375137329102,0.17581488192081454,10.109133720397951,0.0856442376971245,1.7260898351669314,-1.3113865852355957
-6.660989284515382,-1.217740774154663,8.3584680557251,-0.208913654088974,2.0869939327239995,-1.2765812873840332
-8.08709716796875,-3.057324647903443,7.126230716705323,-0.21068368852138522,2.301429271697998,-1.2367734909057617
-7.22181510925293,-3.473129034042359,7.269436836242676,-0.12606565654277804,2.5439186096191406,-1.0711294412612917
-7.492074489593507,-3.6739013195037846,6.157377243041992,-0.005691074766218662,2.872128486633301,-0.8103886246681214
-9.395303726196289,-3.121021986007691,4.06973934173584,0.013294588774442673,3.0541055202484135,-0.5219330787658691
-9.334278106689453,-2.457615852355957,3.2908189296722417,-0.15366707742214206,3.0747714042663574,-0.16451120376586914
-8.712316513061523,-2.5814793109893803,2.8561213016510014,-0.36799135804176336,3.151827335357666,0.21467156708240512
-7.874529361724854,-2.858211040496826,2.6842503547668457,-0.5128078460693359,3.2788562774658203,0.5782151818275453
-7.663324356079102,-2.6932497024536133,1.7291270494461062,-0.5610011219978334,3.4094972610473633,0.8944767117500306
-7.429871559143066,-2.2481303215026855,0.41534206271171575,-0.577945351600647,3.4378049373626713,1.1617733240127566
-6.031998157501222,-1.2818599939346316,0.7556084394454956,-0.6731064319610596,3.3842823505401616,1.416977882385254
-2.8145616054534917,-0.2810439765453339,2.8031857013702397,-0.8942824006080629,3.5586621761322026,1.693894624710083
-1.0364092588424685,0.387317419052124,3.2934751510620117,-1.0692594051361084,3.923683881759644,1.8824176788330078
-0.5417076349258423,1.5583319664001465,1.957940220832825,-1.1702642440795898,4.173804759979249,1.9314316511154177
0.7115464806556703,3.562303066253662,0.4913822412490845,-1.2703886032104492,4.179411411285401,1.8385963439941406
3.5360949039459233,4.254975318908691,-0.00611385703086853,-1.4086079597473145,4.061857223510742,1.594137787818909
6.892372608184815,4.363225460052491,0.7784005403518677,-1.3764408826828005,3.9416847229003906,1.204891085624695
10.862947463989258,4.530499935150147,1.6093949079513552,-1.2718570232391357,3.945203065872193,0.724521577358246
13.023274421691896,4.3865323066711435,0.41529729962348944,-1.0727674961090088,3.907486200332642,0.22867345809936523
14.509705543518068,5.545213222503663,-1.6135632991790771,-0.9740998148918153,3.6059291362762456,-0.16042879223823547
16.488077163696293,3.9991931915283203,-3.520298957824707,-0.9010200500488281,3.0486266613006596,-0.4664660692214966
17.038343429565433,1.4644708633422852,-4.864149570465089,-0.6325788497924805,2.3405034542083745,-0.5921671986579896
15.430298805236818,-0.23121976852416992,-6.410358905792237,-0.19802831113338473,1.547196388244629,-0.4729746878147126
11.404321670532227,-1.5302580595016482,-10.056829452514648,0.056610092520713806,0.6028438806533813,0.008835784159600736
50.474884033203125,13.394591331481935,-4.142352104187012,-1.7899357080459597,-1.7174222469329834,1.4074062108993532
82.24436187744142,31.833786010742188,33.24468231201172,-1.2555515766143799,2.217833757400513,1.1819895505905154
1.5771223306655886,6.403861999511719,-1.755369544029236,-1.5830608606338503,2.467754364013672,0.3911418020725251
6.274893760681152,-3.1244971752166752,16.2895679473877,-0.8020278811454774,2.895156621932984,0.9827651977539062
-5.158100605010987,5.237551689147949,13.483422279357912,-0.04960554465651513,1.9794914722442627,0.3151871263980866
-1.5227625370025635,-20.694042205810547,12.19966220855713,0.3767325282096863,1.4557403326034548,-0.008037020452320577
-3.0855817794799805,-7.0958251953125,13.221348762512209,0.4326388537883759,0.28428328037261963,-0.43830755352973944
4.2499451637268075,0.35236617922782904,11.496960639953615,0.6427009105682373,-0.19564518332481384,-0.9508042931556703
7.083311557769776,2.3547353744506836,8.920687675476076,0.3814641237258911,-0.18633101880550387,-0.7331559658050537
8.032739639282227,4.14118528366089,8.462263107299805,0.08491139113903046,-0.016244480386376384,-0.25910922884941107
7.082417011260987,1.8230836391448975,8.484171867370607,-0.15134777128696444,0.280178964138031,0.06104992702603341
5.771299362182617,-2.073971748352051,8.376060485839844,-0.028784060850739483,0.41396149992942816,0.08009424805641174
4.686378479003906,-2.3816506862640385,9.133819580078125,0.13745589554309848,0.4569546580314636,-0.10659094899892808
4.380997657775879,-0.0010731667280197144,9.87150764465332,0.15138964354991916,0.42701321840286255,-0.17559215426445007
4.407397270202637,1.4972286224365234,10.200204849243164,0.031219335272908214,0.3422122001647949,-0.04793960228562356
4.369057655334473,0.8967976570129395,9.992518424987795,-0.11012540757656097,0.2508813738822937,0.11934002488851549
3.887363910675049,-0.38036653399467474,10.085011482238771,-0.1489521563053131,0.13611076772212985,0.15824168920516968
3.731345891952515,-0.8181588649749756,10.121668815612795,-0.12708361446857455,-0.02165720984339714,0.10747748613357544
4.040266036987305,-0.6090184450149536,9.909841537475586,-0.12175946682691575,-0.14775261282920837,0.059323806315660484
4.53797483444214,0.08372564613819122,9.818452835083008,-0.1524416953325272,-0.23379899561405185,0.07002434134483337
4.655312061309815,0.2571307420730591,9.785104751586914,-0.2366432696580887,-0.28925687074661255,0.11986771970987321
4.69942569732666,-0.22702020406723022,9.564656257629396,-0.27123284339904785,-0.3400904834270478,0.1440270692110062
4.716298580169679,-0.49596261978149414,9.543794631958008,-0.2749440670013428,-0.38165548443794256,0.14678913354873657
4.740460872650147,-0.5128404498100282,9.467905998229982,-0.28500410914421087,-0.42256698012351995,0.14475193619728088
4.938593387603761,-0.8832652568817139,9.230924606323242,-0.2746469974517822,-0.4293906390666962,0.12779897451400757
5.274303436279297,-0.7245103120803833,9.024916648864748,-0.2632523775100708,-0.391549438238144,0.12462572008371355
5.133052825927734,-0.4779070019721985,9.065293312072756,-0.2795115113258362,-0.3513328135013581,0.13346174359321594
5.175928592681886,-0.6935368180274964,9.198091506958008,-0.2858270704746247,-0.33206418156623846,0.13954588770866394
5.065164566040039,-0.9001425504684448,9.14901351928711,-0.2751383483409882,-0.30966711044311523,0.14259354770183566
4.830352783203125,-0.9370921850204468,9.17817497253418,-0.26994597911834717,-0.29975894093513494,0.13426230847835544
4.833163261413574,-1.2052990198135378,9.253955841064453,-0.2530698478221894,-0.294090211391449,0.12244411557912828
5.103776454925538,-1.2480372190475466,9.098073959350586,-0.22277870774269104,-0.2848530411720276,0.10103771835565568
5.169981479644776,-1.1155462265014648,8.980598449707031,-0.18372355401515963,-0.24794811010360718,0.07739754766225816
5.174836158752441,-1.0261743068695068,8.77539920806885,-0.14778050780296326,-0.1967345625162125,0.06373254209756853
5.054192543029785,-1.0668439865112305,8.905657768249513,-0.11096628755331041,-0.154395192861557,0.048146303743124015
5.0361294746398935,-1.2109694480895996,8.90242099761963,-0.0745920166373253,-0.12218486517667772,0.023722995072603226
5.034572124481202,-1.3631386756896973,8.882410049438477,-0.030930228531360626,-0.0933365896344185,-0.0112534798681736
5.2068586349487305,-0.9370434880256654,9.029086112976076,0.003040445735678077,-0.07314276695251465,-0.03549577295780182
5.028310775756836,-0.5956286191940308,9.030450820922852,-0.005379889626055957,-0.055264875292778015,-0.0379241593182087
4.616777420043945,-1.2654999494552615,9.117220878601076,-0.0018854049267247321,-0.06666842848062517,-0.0525783896446228
4.844374656677246,-0.9594254493713379,9.328004837036133,0.025609014555811885,-0.11768332123756409,-0.08262542635202409
4.372438907623292,-0.936836063861847,9.528007507324219,0.03410280123353005,-0.17389926314353943,-0.11718328297138214
4.434824466705323,-1.2577393054962158,9.556313514709474,0.05797998607158661,-0.2731675803661347,-0.1800774335861206
4.769456386566163,-0.5312422513961792,9.451666831970217,0.07497584819793701,-0.370943546295166,-0.21601690351963046
4.8323974609375,-0.3345348536968232,9.45572280883789,0.06785634160041809,-0.45978459715843206,-0.21285539865493774
4.614947319030762,-0.5522598624229432,9.672675132751467,0.07399912923574449,-0.5800462961196899,-0.20893633365631104
4.683516502380371,-0.8799570202827455,9.626706123352053,0.07266920804977417,-0.7497755885124208,-0.2251589000225067
4.4737915992736825,-0.37547653913497925,9.96994400024414,0.04637515917420388,-0.9469687342643739,-0.22186604142189026
4.624785900115968,-0.40912389755249023,9.900253295898438,0.01755325682461262,-1.1671721935272217,-0.1839467138051987
4.3738465309143075,-0.36344510316848755,9.873967170715334,-0.026713747531175613,-1.435489058494568,-0.13486395776271823
4.401935577392578,-0.14437687397003174,9.974112510681154,-0.06001663953065872,-1.7314707040786745,-0.09478053450584412
4.517560482025147,0.19937582314014438,10.006882667541506,-0.17660517990589145,-2.021709203720093,-0.07794252038002014
4.590094566345215,-0.3746728301048279,9.9076623916626,-0.2804351747035981,-2.3254404067993164,-0.12476796656847002
5.185619831085206,-0.5613929033279419,9.782298088073732,-0.3035045862197876,-2.5543377399444585,-0.08176051825284959
6.06498670578003,-1.5130479335784912,9.904123306274414,-0.21134230494499207,-2.7716400623321538,-0.1668870449066162
5.591009140014648,-2.26964545249939,9.480802536010742,-0.013846796937286856,-2.9047005176544194,-0.2346857786178589
5.048612594604492,-1.2558075189590456,9.437479972839357,0.04275333136320114,-3.235939264297486,-0.32082146406173706
4.721822738647461,-2.251399040222168,8.459547996520998,0.3396124243736267,-3.633496522903443,-0.4976595342159272
5.865627288818359,-2.229668617248535,9.47561550140381,0.6690883636474609,-4.159356594085694,-0.6330623626708984
7.286495208740234,-3.3976094722747807,10.201818466186523,0.9287660717964173,-4.569547176361085,-0.7283097505569458
9.617606163024904,-3.7346200942993164,11.247992515563967,1.1608241796493532,-4.781251907348633,-0.7963206171989442
13.621033668518068,-3.0726583003997807,12.846725463867188,1.275996446609497,-4.809155941009522,-0.8462226986885072
15.308157920837404,-3.5475580692291264,12.382070541381836,1.598823428153992,-4.63072395324707,-1.0873602628707888
22.071847915649418,-3.9058356285095215,13.729405403137209,2.134277820587158,-4.402779579162598,-1.3647366762161257
27.28655052185059,-3.093766212463379,11.532773971557617,2.6035704612731934,-4.026031017303468,-1.476759433746338
26.941164016723636,-2.411845445632935,7.507842540740968,2.9519073963165288,-3.8011388778686523,-1.4701850414276123
27.156173706054688,-0.1225586086511612,3.6264872550964355,3.3773944377899174,-3.8185229301452637,-1.5675133466720583
27.25923347473145,3.3963088989257812,4.0918073654174805,3.360459327697754,-3.592350959777832,-1.4496906995773318
34.77134704589844,12.097288131713867,8.231760025024414,1.8775860071182253,-3.7887139320373535,-1.192134499549866
34.14593887329102,6.754788398742676,15.746138572692873,-0.1399979293346405,-2.30182957649231,-0.7464681267738343
23.78955078125,3.056670665740967,11.25591564178467,-1.409742832183838,-1.5139809846878054,-0.31827569007873535
18.81878471374512,-0.8982993960380555,7.636736869812012,-1.8863829374313357,-1.4024513959884646,-0.3040328025817871
14.053298950195312,-3.327405691146851,5.106556415557862,-1.6038000583648682,-1.6420418024063113,-0.48987507820129395
11.687786102294922,-4.623170852661133,4.698746204376222,-0.9347100257873535,-1.9730352163314822,-0.7456533312797547
11.248743057250977,-4.742003917694093,6.090727329254151,-0.11300671845674516,-2.117227077484131,-1.0116645097732546
10.60612678527832,-3.5500340461730957,8.549450874328615,0.5463021397590638,-1.9586943387985232,-1.1406574249267578
9.934630393981935,-2.2127370834350586,10.778466224670412,0.7516555190086366,-1.484544277191162,-1.0439254045486452
7.620044708251953,-1.4540033340454102,11.507065773010256,0.6726655364036561,-0.7887523174285889,-0.8170326948165894
4.805569648742676,-1.0329689979553223,10.876222610473633,0.4311314821243286,-0.08145781606435777,-0.5630468130111694
2.2897377014160156,-1.0536186695098877,10.032107353210451,0.15766413509845736,0.5054180026054383,-0.36281484365463257
-0.3431764841079712,-1.6093571186065674,8.449660301208498,0.012555738911032677,0.9771223664283754,-0.21036779880523682
-2.5013005733489995,-1.7105684280395508,6.933165073394776,0.020812565460801128,1.2966642379760742,-0.10649047791957855
-3.329499483108521,-1.1910948753356934,5.93284797668457,0.01831203140318394,1.5435149669647217,-0.016450090333819393
-4.000567913055421,-1.2176320552825928,5.229986190795898,0.0294895563274622,1.7043467760086062,0.037974223494529724
-3.5522685050964355,-1.4694279432296755,5.740022659301758,0.01017692591995001,1.8695189952850342,0.09153998643159868
-3.129368305206299,-1.7490390539169314,5.866066932678223,0.010381066240370275,2.1548361778259277,0.16767841577529907
-4.580195426940918,-2.0496127605438237,4.843625068664551,0.07043033838272095,2.450560808181763,0.22615763545036316
-5.502845764160156,-1.6036761999130251,3.950493812561035,0.03290017321705819,2.618789434432984,0.3087759017944336
-5.823520183563233,-1.2398793697357178,2.9430932998657227,-0.11159421503543854,2.748817682266236,0.4243062138557434
-6.209157943725586,-1.3329726457595827,1.9979684352874756,-0.26233348250389105,2.8225879669189453,0.5516443252563477
-5.86221981048584,-1.2021554708480837,1.7487154006958008,-0.40233919024467474,2.862356185913086,0.6909342408180238
-4.630399703979492,-0.8211948275566102,2.228672504425049,-0.5411100983619691,3.0057728290557866,0.8379472494125366
-3.285664796829224,-0.669722318649292,2.789968490600586,-0.6834430098533631,3.265504837036133,0.9514562487602235
-2.7513849735260014,-0.6705016493797303,2.35472846031189,-0.7677404880523682,3.601612806320191,1.039919972419739
-2.9669981002807617,-0.36904221773147583,1.077399492263794,-0.7903751134872437,3.827644586563111,1.1070141792297363
-2.433571577072144,0.2944034934043884,0.30766126513481146,-0.8264952301979066,3.8784058094024663,1.172863245010376
-0.8356366753578187,0.7125557065010072,0.4277666211128235,-0.925538718700409,3.885857582092285,1.228037476539612
1.5644847154617312,0.3627054393291474,1.472292184829712,-1.0038713216781618,3.936844825744629,1.2380359172821045
3.810366630554199,0.3142659962177277,2.323376893997193,-0.9853383302688599,4.083652019500733,1.234706163406372
5.349663257598878,0.7973581552505493,1.9605070352554324,-0.9444761276245117,4.20440673828125,1.2107888460159304
7.40828800201416,1.428615212440491,1.426804780960083,-0.9554424881935121,4.171791076660156,1.1994851827621462
10.413199424743654,1.8538172245025635,0.9540800452232362,-0.9947022199630737,4.028892993927003,1.20598042011261
12.87289810180664,0.8601807355880737,0.014865212142467499,-0.901360273361206,3.793312788009644,1.1511423587799072
14.36312770843506,0.7905210852622987,-0.6691575646400453,-0.6849794983863832,3.4323375225067143,1.1052765846252441
15.552019119262695,0.5257956981658936,-0.9187555313110352,-0.5085610747337342,3.0025668144226074,1.1081634759902956
14.905696868896484,0.6227200031280518,-2.0428662300109863,-0.3679272830486298,2.5309853553771973,1.180783748626709
13.350218772888185,1.1546566486358643,-3.2712428569793706,-0.31473907828331,1.9188182353973389,1.2939163446426394
10.819766044616701,1.6192106008529665,-4.710196018218995,-0.3179244697093964,1.2815726995468142,1.33695387840271
11.126548767089844,5.981196880340577,-10.46034049987793,-0.5529143810272217,0.3826554119586945,1.3309102058410645
113.89453887939455,24.674825668334964,62.07721328735352,-2.315858840942383,-0.13076920807361606,2.1282465457916264
-8.118143081665039,23.873950958251953,-23.736810684204105,1.0209100246429443,4.480098247528077,-1.1750705242156982
13.459580421447756,-6.324768543243409,21.59563446044922,-1.1256145238876345,2.655554533004761,0.9440885782241821
-20.17458724975586,4.183392047882081,13.973762512207031,-0.13441754877567294,1.6940760612487793,0.2997389137744904
-4.426197052001953,-8.240243911743164,13.415528297424318,0.32858327031135565,0.09654863178730011,-0.3297770619392395
1.872315049171448,-15.489175796508789,11.835271835327148,0.5913892984390259,-0.6749278903007508,-0.680401086807251
7.230247497558594,1.099523186683655,10.10313606262207,0.5381770133972168,-0.823650598526001,-0.8606701493263246
10.614241600036623,0.5428783297538758,6.111870765686035,0.5034188628196717,-0.3635842800140381,-0.8362951874732972
9.302807807922365,3.5200371742248535,7.290228843688965,0.23508647084236145,0.14838977158069613,-0.401200145483017
6.561858177185059,2.7975549697875977,8.936596870422365,-0.05503004416823388,0.5297075510025024,0.003909167367964984
4.665057182312012,0.2956760227680207,9.798474311828615,-0.35196581482887274,0.6522464156150819,0.17712920904159546
4.073313236236573,-3.5620574951171875,8.908631324768068,-0.18962143361568454,0.4828808903694153,0.12593866884708407
4.36973524093628,-1.981006145477295,9.463130950927734,0.10881137102842332,0.28243422508239746,-0.0230710431933403
4.69999647140503,0.7267400026321411,10.063743591308594,0.1258663833141327,0.17183689773082736,-0.0490308478474617
4.934635162353516,0.9452239274978638,9.804949760437013,-0.014173890464007856,0.1518281847238541,0.08278048038482666
4.350038528442383,-0.5637763738632202,9.88045883178711,-0.11365582048892975,0.11693591624498369,0.15579655766487122
4.093027591705323,-1.0740677118301394,9.980467796325685,-0.14500184357166293,0.0034712213091552258,0.12752974033355713
4.357599735260011,-0.9084032773971558,9.779114723205568,-0.13048893213272095,-0.12580500543117526,0.07372184097766876
4.942625522613526,-0.39929425716400146,9.51104736328125,-0.1178230494260788,-0.20423626899719238,0.05105200782418252
5.256220340728761,-0.23589263856410983,9.337087631225586,-0.13266424834728244,-0.22439104318618774,0.08245196193456651
5.112007141113281,-0.4361952543258667,9.363587379455568,-0.1800673454999924,-0.2307758927345276,0.13407129049301147
4.9245877265930185,-0.9727739095687866,9.328501701354982,-0.19673614203929904,-0.23635756969451904,0.145732656121254
4.710300445556641,-1.0874443054199219,9.334417343139648,-0.19890862703323364,-0.26338279247283936,0.1292303949594498
4.770135402679444,-0.9070924520492554,9.298149108886719,-0.18734058737754822,-0.28648665547370916,0.09787426888942719
5.031472206115723,-0.989521086215973,9.21719741821289,-0.18241754174232483,-0.3001640737056733,0.0793411359190941
5.252972126007081,-0.951800286769867,9.107629776000977,-0.17139548063278198,-0.2951498925685883,0.07910192012786865
5.338983058929444,-1.126772403717041,8.914004325866701,-0.16260503232479098,-0.2662059366703034,0.0838579386472702
5.139897823333741,-0.9284054636955262,9.022356033325195,-0.1477251946926117,-0.2364154011011124,0.09058855473995209
4.928528785705566,-0.9047616124153138,9.172870635986328,-0.14306125044822693,-0.2276338189840317,0.0868048593401909
4.930973052978516,-1.0140937566757204,9.268769264221193,-0.1529405862092972,-0.2516220808029175,0.07756414264440538
4.9241394996643075,-0.9680180549621582,9.347281455993654,-0.15537795424461365,-0.287805438041687,0.07016577571630479
4.899439334869386,-1.2664105892181396,9.056421279907227,-0.14237621426582336,-0.2977603375911713,0.05136723816394806
5.114945888519288,-0.8722422719001771,9.06520748138428,-0.13428281247615817,-0.30475014448165894,0.03586675971746445
5.0402569770813,-0.6305540204048158,9.153013229370117,-0.11913731694221497,-0.30406990647315985,0.027128994464874268
4.902647972106934,-1.1902364492416384,9.154303550720217,-0.10830210894346239,-0.3122669160366059,0.006358901038765907
5.273669719696046,-1.0428596735000613,9.022406578063967,-0.09932940453290941,-0.32493072748184204,-0.00028085664962418383
5.288298130035401,-1.0857768058776855,8.849959373474123,-0.10022834688425065,-0.3182021379470825,0.0017223116010427475
5.077871322631836,-1.5034004449844363,8.62721061706543,-0.1072588711977005,-0.30006632208824163,-0.027674712240695953
4.858349800109863,-1.7139505147933962,9.059921264648438,-0.07286807149648668,-0.32937797904014593,-0.07550078630447388
5.126877784729004,-1.746655344963074,9.1530237197876,-0.044236429035663605,-0.36958917975425726,-0.12895190715789795
5.245366096496582,-1.40171480178833,8.989659309387209,-0.019460026174783707,-0.4061309397220612,-0.15805079042911532
5.278171062469483,-0.8251844644546509,8.808516502380373,0.0009263323154300451,-0.4251407086849213,-0.16658177971839905
5.46731996536255,-0.39907872676849365,8.783583641052248,-0.008840848691761495,-0.45647057890892034,-0.13333094120025635
4.998937129974366,-0.34365344047546387,9.21207046508789,-0.04407589510083199,-0.520384669303894,-0.09106052666902544
4.635531425476074,-1.302655100822449,9.304515838623047,-0.06314045935869218,-0.6487250328063965,-0.1037789136171341
5.032642364501953,-1.0066893100738525,9.472084999084474,-0.06639471650123596,-0.8243016600608827,-0.11838160455226898
4.621660709381104,-0.9567583203315736,9.55377197265625,-0.0932123586535454,-1.0080722570419314,-0.1375274956226349
4.630490303039551,-0.15564160048961642,9.834437370300295,-0.23015671968460083,-1.2115830183029177,-0.11105571687221527
4.61311149597168,-0.4343157410621643,9.77793598175049,-0.3213573098182678,-1.4958287477493288,-0.11414019018411638
4.761996269226074,-0.7672076225280762,10.096020698547365,-0.38409689068794256,-1.7839977741241455,-0.16048093140125277
4.883979320526124,-2.165311813354492,10.222362518310547,-0.2752809822559357,-2.0240786075592045,-0.21067532896995544
5.644163131713867,-0.819503903388977,9.924139976501467,-0.09378615021705627,-2.313019990921021,-0.1940157115459442
5.435622692108155,-0.6349878907203675,9.403172492980959,-0.061416994780302055,-2.481904983520508,-0.21624615788459778
4.830848217010499,-1.2471934556961062,9.263182640075685,-0.03532157838344574,-2.910646200180054,-0.2497873306274414
4.616968154907227,-1.592524766921997,8.628067016601562,0.10303840786218645,-3.3248460292816167,-0.34969860315322876
5.253576278686523,-1.3603384494781494,8.536914825439453,0.25127124786376953,-3.825621843338013,-0.4131764769554138
6.264865875244141,-0.6980388164520264,9.099735260009766,0.3459301888942719,-4.259364128112793,-0.37377142906188965
6.869481563568116,-0.9973143339157104,10.243692398071289,0.4000532627105713,-4.694282054901124,-0.22100725769996643
8.98876476287842,-2.2289419174194336,11.089209556579592,0.42127946019172674,-5.065616130828858,-0.10431841015815735
11.233521461486818,-2.9671759605407715,12.604814529418945,0.35408022999763494,-5.233176231384277,-0.08181174844503404
13.653303146362305,-3.71375584602356,12.282092094421388,0.3924805521965027,-5.247782230377198,-0.1848884075880051
20.86318397521973,-3.866749525070191,14.968789100646974,0.49861276149749756,-5.1336026191711435,-0.351940393447876
25.160612106323246,-2.7913317680358887,12.563338279724123,0.5068923830986024,-4.700494289398194,-0.4811328053474426
27.427536010742188,-3.6901900768280034,6.328118324279785,0.4417321979999543,-4.41779899597168,-0.7489872574806214
26.05490493774414,-5.665777206420898,-0.3559480309486389,0.9773533344268799,-4.730103015899659,-1.1972905397415163
29.740066528320312,-4.370274543762207,0.3886355757713318,1.5548685789108279,-4.900931358337402,-1.3512457609176638
27.337804794311527,-1.856483578681946,-2.196818113327027,2.0518155097961426,-4.961121559143066,-1.5664237737655642
41.398963928222656,0.05055008828639984,6.009504795074464,1.703510642051697,-5.163487434387207,-1.6008933782577517
38.27027893066406,0.8529060482978822,15.747532844543459,0.9895719885826112,-3.4279422760009766,-1.4236645698547363
29.15740203857422,2.2562389373779297,13.714410781860352,-0.1386884301900864,-2.090395927429199,-1.1747742891311648
26.807533264160156,1.0546844005584717,14.146688461303711,-1.1658174991607666,-0.9230798482894897,-1.0058709383010866
19.348985671997074,-0.14852461218833923,11.674793243408203,-1.8702287673950195,-0.05048402771353722,-0.9663180112838745
12.591414451599123,-2.0313944816589355,9.34621810913086,-2.2373054027557377,0.36792051792144775,-1.0510179996490479
6.325919628143311,-4.799452781677246,6.9939069747924805,-2.01975154876709,0.40288820862770086,-1.2396678924560547
2.938075542449951,-6.3354034423828125,5.93935489654541,-1.2828991413116455,0.21844863891601562,-1.4575525522232058
1.6579514741897585,-6.361302375793457,7.035762310028077,-0.3189829289913178,0.12781530618667603,-1.5912758111953738
1.0216758251190186,-4.405794143676758,8.916619300842287,0.37844344973564154,0.3086724877357483,-1.5915257930755615
-0.07505121082067491,-2.871914863586426,9.91561508178711,0.6290764808654785,0.7509208321571351,-1.4311587810516357
