AccX,AccY,AccZ,GyrX,GyrY,GyrZ
4.740545409731567e-05,-1.635107400943525e-05,0.00010839918832061814,6.069838320854615e-08,-7.463223994363943e-08,-1.603956292228759e-07
4.185757637023926,-1.4331070184707644,9.56923580169678,0.0049413396045565605,-0.0027462833095341925,-0.013113167136907578
4.168365478515625,-1.4506736993789675,9.592562675476076,0.003676373977214098,-0.004469046834856273,-0.011563458479940893
4.181386947631836,-1.4840805530548096,9.606691360473633,0.002502172254025936,-0.005809976253658534,-0.012054994702339172
4.169217109680176,-1.448596715927124,9.58976459503174,0.0029530124738812447,-0.009928824380040169,-0.012633838690817358
4.176142692565918,-1.4454599618911745,9.617860794067383,0.00050926924450323,-0.012524653226137161,-0.011730204336345198
4.196671009063722,-1.3905097246170046,9.60157585144043,-0.003762981621548534,-0.011901507154107094,-0.011421406641602516
4.198533535003663,-1.443833351135254,9.612813949584961,-0.007023543119430542,-0.012218452058732511,-0.006995120085775852
4.174691200256348,-1.4679358005523682,9.602405548095703,-0.00970684364438057,-0.013479778543114662,-0.004466862883418799
4.215409278869629,-1.448753833770752,9.63922119140625,-0.009661913849413397,-0.011474914848804474,-0.005108978133648635
4.198387622833253,-1.4540212154388428,9.61037826538086,-0.010234842076897621,-0.006725555751472712,-0.003647073404863477
4.204808235168457,-1.4472838640213015,9.614150047302248,-0.008260343223810196,-0.005737343337386847,-0.0042589567601680756
4.181347370147706,-1.4549057483673096,9.603953361511232,-0.010049822740256788,-0.0011634678812697532,-0.0022372188977897167
4.154349803924561,-1.4596818685531618,9.588427543640138,-0.014415022917091848,-0.004042049869894981,-0.002487293211743236
4.1549391746521005,-1.469139575958252,9.61985969543457,-0.014526304788887502,-0.006462764926254749,-0.0032272925600409508
4.182054996490479,-1.4538656473159792,9.5895471572876,-0.014034490101039411,-0.008607184514403343,-0.0051313512958586225
4.1901001930236825,-1.48360812664032,9.60511875152588,-0.011967116035521032,-0.009907315485179426,-0.004264735616743565
4.160247325897218,-1.520937204360962,9.577948570251467,-0.006388950627297164,-0.011030681431293488,-0.0072911600582301625
4.191230297088624,-1.4618852138519287,9.599864006042482,-0.0038087195716798306,-0.008502637036144735,-0.00649120518937707
4.227053642272949,-1.4373825788497927,9.606682777404787,-0.005638140719383956,-0.007239591330289841,-0.0064135133288800725
4.182560443878175,-1.4673540592193604,9.566548347473146,-0.007737701293081046,-0.0029637783300131564,-0.004582123830914497
4.189033508300781,-1.4897761344909668,9.586795806884766,-0.006390924099832774,-0.002734303940087557,-0.005151081364601851
4.1773681640625,-1.5155916213989258,9.594887733459474,-0.003951115533709526,-0.0026813105214387183,-0.005598748568445445
4.1633973121643075,-1.5152063369750977,9.599829673767092,0.0018635836895555258,-0.0021523407194763426,-0.007817061617970467
4.15165662765503,-1.491908073425293,9.619033813476562,0.002860815497115255,-0.003809267887845636,-0.010869622230529785
4.169584274291992,-1.45182740688324,9.632081985473633,0.0007289275527000427,-0.007829849608242513,-0.01145922765135765
4.169577598571777,-1.479136109352112,9.60452651977539,-0.0007914783782325686,-0.009952090680599213,-0.0096866674721241
4.179713249206543,-1.4743075370788574,9.591925621032717,0.00048403325490653515,-0.010887152515351774,-0.01230352558195591
4.20154619216919,-1.4279545545578005,9.63355827331543,-0.0028693461790680885,-0.010721243917942047,-0.00917587708681822
4.1918654441833505,-1.499549746513367,9.599664688110352,-0.002600595820695162,-0.010696637444198133,-0.007771390490233898
4.185068607330323,-1.4840919971466064,9.631034851074219,-0.0008862125687301159,-0.00573562877252698,-0.007918872870504858
4.153297424316406,-1.4472723007202148,9.609747886657717,-0.0011035805800929668,-0.002895534038543701,-0.007907236926257612
4.179450511932374,-1.4860787391662598,9.62356948852539,-0.0012891795486211777,-0.0034361733123660088,-0.010036307387053968
4.180437564849854,-1.4710751771926882,9.621243476867678,-0.0032061096280813217,-0.005386308301240207,-0.0074558742344379425
4.166577816009522,-1.4434902667999268,9.592550277709961,-0.005785154644399882,-0.006303091533482075,-0.0074500879272818565
4.181082248687745,-1.4718016386032107,9.614004135131836,-0.004893451929092407,-0.006129231769591571,-0.005935706198215485
4.214022636413574,-1.4734437465667725,9.595925331115724,-0.004909769166260959,-0.0033330654259771113,-0.006137062795460224
4.202732086181641,-1.4648410081863406,9.603462219238281,-0.0057529653422534474,-0.000539817032404244,-0.006696511525660754
4.194048881530762,-1.4471570253372195,9.615142822265625,-0.007669824641197921,0.0019033676944673061,-0.004728175699710846
4.1708784103393555,-1.457409381866455,9.624109268188477,-0.008869265206158163,0.00098716770298779,-0.00241617881692946
4.1450467109680185,-1.4610058069229128,9.614331245422365,-0.01031135581433773,-0.000727384234778583,-0.001489169546402991
4.133508205413819,-1.5117672681808474,9.610845565795898,-0.008995763957500458,-0.003994223196059466,-0.0023322822526097298
4.13227653503418,-1.5351247787475586,9.616254806518555,-0.004005061928182841,-0.009769542142748833,-0.007180581800639629
4.185669898986816,-1.4691156148910525,9.604574203491211,-0.004047813825309277,-0.012633922509849073,-0.009060103446245193
4.202751159667969,-1.4623386859893799,9.612741470336914,-0.005236678291112185,-0.010466150008141996,-0.007412604056298733
4.208054065704347,-1.4784822463989258,9.616490364074709,-0.005203200504183769,-0.008440055884420873,-0.006445247679948807
4.214344024658203,-1.4833321571350098,9.587544441223146,-0.0036333447787910704,-0.004529211670160294,-0.005601695738732815
4.187067031860352,-1.4950047731399538,9.596072196960451,-0.004270412493497134,-0.0021783080883324146,-0.005989345256239177
4.202127456665039,-1.5004578828811648,9.62407112121582,-0.0009592300048097968,0.0005383616080507636,-0.005530064459890128
4.187474727630616,-1.4924845695495605,9.593343734741211,-0.0014780029887333514,0.004631808027625084,-0.002942137653008104
4.139806270599366,-1.5403388738632204,9.564519882202148,-3.283861587988213e-05,0.0054784449748694905,-0.005627692211419345
4.155429840087891,-1.5162891149520876,9.60044574737549,0.0026602488942444324,0.0016603729454800489,-0.007964305579662323
4.152212619781495,-1.5037859678268435,9.602783203125,0.004969564266502857,0.004083856008946896,-0.010057969950139524
4.159736156463624,-1.4616999626159668,9.608081817626953,0.005439578089863063,0.004400322213768959,-0.010479063726961614
4.157230377197266,-1.4845006465911865,9.639185905456545,0.004399464000016452,0.0021612406708300114,-0.010040204972028732
4.142909526824952,-1.4509427547454834,9.651013374328615,0.0021003962028771643,-0.002206909004598856,-0.008067800663411619
4.113561630249023,-1.5155174732208252,9.626642227172852,0.0013605257263407113,-0.003379771718755365,-0.0105059165507555
4.1245880126953125,-1.558228135108948,9.627046585083008,0.008502008393406868,-0.0049167885445058354,-0.01419161818921566
4.165912628173828,-1.445853114128113,9.622507095336914,0.010413640178740026,-0.004319269210100174,-0.01724269986152649
4.177505016326905,-1.5022804737091064,9.588420867919922,0.01531452126801014,-0.0009723455295898021,-0.01643882319331169
4.145596981048585,-1.5220022201538086,9.583847045898438,0.01734125800430775,-0.00196390668861568,-0.020144425332546234
4.14678716659546,-1.5083960294723513,9.641069412231445,0.016864495351910595,-0.0003186974208801985,-0.02093814127147198
4.146347999572754,-1.430722713470459,9.636351585388185,0.013101096265017988,-0.0017439601942896843,-0.020290423184633255
4.130362510681152,-1.4467934370040896,9.633585929870607,0.009317230433225632,-0.004799882415682078,-0.01555543951690197
4.150197982788086,-1.469881892204285,9.619688987731935,0.007797315716743469,-0.006136727519333363,-0.014887007884681227
4.145739078521729,-1.4515625238418581,9.645949363708498,0.005373593419790268,-0.010567515157163145,-0.014044316485524178
4.14568853378296,-1.4641951322555544,9.640192031860352,0.003960058558732272,-0.010831933468580246,-0.01368371956050396
4.164136409759522,-1.4403765201568604,9.639464378356935,0.0032218901906162505,-0.011633481830358505,-0.011708105914294721
4.140437602996827,-1.4770363569259646,9.607180595397951,0.0023906251881271605,-0.011910676024854185,-0.01228582113981247
4.124005794525147,-1.5021942853927615,9.624805450439453,0.009699146263301374,-0.010666301473975182,-0.01445479039102793
4.172781944274902,-1.5348551273345947,9.620348930358888,0.01497787330299616,-0.00960615649819374,-0.0181087888777256
4.168835639953613,-1.5427181720733643,9.622169494628906,0.02089505456387997,-0.006706243380904198,-0.02087669633328915
4.167075634002686,-1.4493521451950075,9.633646965026857,0.023801015689969066,-0.0039215325377881536,-0.022498678416013718
4.141400814056397,-1.4453413486480713,9.59595584869385,0.019785249605774883,-0.0018868690822273493,-0.02036395110189915
4.149101257324219,-1.47902250289917,9.602879524230959,0.018942425027489666,-0.002751914318650961,-0.022472109645605087
4.165996074676515,-1.4319214820861816,9.651991844177248,0.017910176888108257,-0.002849401906132698,-0.02085579745471478
4.169564723968507,-1.399616360664368,9.64688014984131,0.012238604016602041,-0.005843938793987037,-0.016088183969259262
4.143097877502441,-1.4205539226531982,9.674368858337404,0.0038332324475049973,-0.007492225151509047,-0.01404528133571148
4.135688781738281,-1.4430007934570312,9.6655969619751,0.0020682490430772305,-0.010108058340847494,-0.010927547700703146
4.155845165252686,-1.4570913314819336,9.60284423828125,-0.0006367360474541783,-0.011811976321041586,-0.010166175663471222
4.150203704833984,-1.457111954689026,9.6012659072876,0.0013910681009292603,-0.011019118130207062,-0.010133334435522558
4.130420684814453,-1.4698382616043093,9.63425064086914,0.0035952157340943813,-0.010024865157902242,-0.009955458343029022
4.1665968894958505,-1.5099931955337527,9.638641357421875,0.009122346527874471,-0.009157735854387283,-0.013634290546178818
4.164849281311035,-1.5022716522216797,9.580326080322266,0.014349560253322126,-0.006290785036981106,-0.017628939822316173
4.17420530319214,-1.4294785261154177,9.618348121643068,0.011728761717677116,-0.004924366250634193,-0.017960092052817348
4.132586956024171,-1.450012445449829,9.63675308227539,0.010342068038880827,-0.0033671059645712376,-0.014184384606778623
4.133533477783203,-1.4635654687881472,9.614889144897461,0.010266740806400778,-0.003908257931470871,-0.013833127915859222
4.154407024383546,-1.4158036708831787,9.644215583801271,0.006904626730829478,-0.005237000994384289,-0.013017886318266393
4.153923988342285,-1.4680074453353884,9.647072792053224,0.0032032285816967487,-0.007138668559491634,-0.008967018686234953
4.145668029785156,-1.4064452648162842,9.643915176391602,0.0026190958451479678,-0.005744185298681259,-0.008271235041320326
4.135333538055421,-1.413391709327698,9.668004989624023,0.004062209744006396,-0.004992540925741196,-0.007841043174266815
4.13360595703125,-1.4875617027282715,9.652389526367188,0.006120203994214535,-0.0075226505286991605,-0.007593146525323391
4.166344165802003,-1.4698621034622195,9.631832122802734,0.010171805508434774,-0.00916408095508814,-0.011739537119865417
4.151144027709961,-1.455083250999451,9.585381507873537,0.011370553635060789,-0.00434302631765604,-0.011865858919918539
4.12006711959839,-1.5015355348587038,9.603330612182617,0.01450354512780905,-0.0007490190910175443,-0.013668566942214966
4.1192898750305185,-1.5196033716201784,9.621889114379883,0.019637914374470714,-0.0012574668508023024,-0.016827052459120754
4.157954216003418,-1.428396224975586,9.62890148162842,0.020221561193466187,-0.0018356975633651018,-0.018517022952437404
4.166996002197266,-1.5533599853515625,9.594182968139648,0.03190113231539727,0.002270063851028681,-0.021766109392046932
4.18138313293457,-1.468660831451416,9.599052429199219,0.041251733899116516,0.007852462120354177,-0.024614682421088222
4.198639869689941,-1.301626443862915,9.620657920837404,0.039758231490850456,0.01492094062268734,-0.018826948478817943
4.212898254394531,-1.3434689044952393,9.603803634643555,0.03125707805156708,0.02370953932404518,-0.010301657952368261
4.151539325714112,-1.4601043462753298,9.594319343566896,0.033372867852449424,0.03075448051095009,-0.008129999972879888
4.1297607421875,-1.391963005065918,9.601018905639648,0.030496893450617794,0.03226923942565918,-0.006853776052594185
4.1515302658081055,-1.3873771429061892,9.6181116104126,0.02416804246604443,0.033607885241508484,-0.006825305055826903
4.100621700286866,-1.3741247653961182,9.568587303161623,0.021565319970250133,0.03866266086697579,-0.005729098804295063
4.11015510559082,-1.2001395225524902,9.689247131347656,0.008692936040461065,0.037430718541145325,0.0014323581708595159
4.0708279609680185,-1.268141508102417,9.73356342315674,-0.013592444360256195,0.027024107053875927,0.017133900895714763
4.073430061340332,-1.4007821083068848,9.691275596618654,-0.026282403618097305,0.012881229631602766,0.02115335687994957
4.118216514587402,-1.324286699295044,9.702718734741211,-0.038175880908966064,0.004647389054298401,0.025240356102585796
4.152876853942871,-1.356907606124878,9.65316390991211,-0.048139017075300224,0.005026482976973057,0.027996746823191646
4.122832298278809,-1.4768974781036377,9.60762691497803,-0.04098160937428475,0.010685544461011887,0.027086056768894196
4.161120891571046,-1.6010806560516357,9.562685966491701,-0.02854553982615471,0.02156847529113293,0.018693555146455765
4.145329952239991,-1.6103385686874392,9.578238487243654,-0.01653631031513214,0.03059706836938858,0.009842357598245146
4.182518005371094,-1.575620174407959,9.586502075195312,-0.004087131004780532,0.041225701570510864,0.007162275258451701
4.107359409332276,-1.5973973274230957,9.608557701110842,0.007383465766906738,0.04909596964716912,0.0036641347687691454
4.043304443359375,-1.539905905723572,9.677532196044922,0.01578774861991406,0.05061858892440796,-0.001381107489578426
3.9695167541503906,-1.4801061153411865,9.69583511352539,0.013913988135755064,0.04022559896111489,-0.0036545093171298504
3.9889085292816167,-1.3643883466720583,9.743470191955568,0.00713880779221654,0.023909423500299454,-0.0058066905476152906
4.024636745452882,-1.3222990036010742,9.77048110961914,-0.0012332473415881395,0.006293541286140681,-0.005145954433828593
4.068338871002198,-1.3014358282089236,9.75603771209717,-0.017126653343439102,-0.007324181031435729,0.000506547512486577
4.060464382171632,-1.3776109218597412,9.735158920288086,-0.03016398474574089,-0.015788648277521133,0.007356741931289435
4.054927825927734,-1.431096076965332,9.709717750549318,-0.03354234620928765,-0.020932737737894058,0.007246872875839473
4.063212871551515,-1.378040075302124,9.692832946777344,-0.03893840312957764,-0.024761980399489406,0.006704953033477069
4.073598861694336,-1.4303860664367676,9.689908981323242,-0.04461608827114105,-0.027229430153965953,0.006725612096488476
4.078223705291749,-1.5476138591766357,9.64549446105957,-0.040042050182819366,-0.02856462448835373,0.005510831717401744
4.093848705291749,-1.4023762941360476,9.67671012878418,-0.041784603148698814,-0.02917863428592682,0.0069349617697298535
4.080766677856445,-1.4344587326049805,9.68301296234131,-0.05007999762892724,-0.03453876078128815,0.012208394706249237
4.043412685394288,-1.5280532836914062,9.635725021362305,-0.05094647035002709,-0.03683358430862427,0.012274635024368765
4.059885025024414,-1.4949994087219238,9.688935279846193,-0.05391041561961175,-0.0413162223994732,0.010209454223513603
4.098715782165527,-1.4769726991653445,9.693799018859865,-0.05389675498008728,-0.04036932066082955,0.009419286623597145
4.136273384094238,-1.4260809421539307,9.645649909973146,-0.057799693197011955,-0.03940260410308838,0.013490952551364899
4.112937450408936,-1.5030306577682497,9.625044822692873,-0.056053284555673606,-0.03771025687456131,0.016961762681603435
4.114032268524171,-1.6048327684402468,9.615486145019531,-0.05229687690734863,-0.03326650708913803,0.015646582469344143
4.113731384277344,-1.6322886943817139,9.59474849700928,-0.04265457764267922,-0.02763655036687851,0.009512097574770452
4.135978221893311,-1.6210759878158572,9.589646339416506,-0.03155349940061569,-0.021723987534642223,0.003938566427677871
4.145249366760254,-1.4741822481155398,9.636370658874513,-0.02846401557326317,-0.013770214281976225,0.003950102254748344
4.170301914215089,-1.5297015905380251,9.569694519042969,-0.023815736174583435,-0.004379247315227985,0.005911910440772773
4.154793739318848,-1.6198368072509766,9.596599578857422,-0.01436238829046488,0.008841391652822495,0.005129943136125804
4.163541793823242,-1.5514202117919922,9.662432670593263,-0.006986428517848254,0.015353383496403694,0.0066175805404782295
4.18033266067505,-1.5477993488311768,9.664133071899414,-0.001586472266353667,0.02393360435962677,0.0060860016383230695
4.310164451599121,-1.4166152477264404,9.676995277404787,0.0017274313140660524,0.03432157635688782,0.01312768552452326
4.516223907470703,-1.2285306453704834,9.693846702575685,-0.004432267043739558,0.0554283931851387,0.03738206997513772
4.4574646949768075,-1.3513333797454834,9.66695785522461,-0.006315867882221938,0.08756546676158905,0.0671548843383789
4.31031084060669,-1.4580408334732058,9.599612236022951,0.000159763905685395,0.11685711890459062,0.08363735675811768
3.8281605243682866,-1.7693969011306765,9.4112024307251,0.012956423684954643,0.13096031546592712,0.08196600526571275
3.602762937545777,-1.8279590606689453,9.576841354370117,0.020351048558950424,0.1172509863972664,0.054424576461315155
3.515627861022949,-2.0710399150848393,9.63387966156006,0.044680751860141754,0.0983194336295128,0.010981303639709951
3.9078502655029297,-1.654281258583069,9.718022346496584,0.05613498389720917,0.06772667914628984,-0.017077907919883728
4.051354885101319,-1.431317448616028,9.715190887451172,0.05647799745202065,0.06775069981813432,-0.01919437199831009
3.985390901565552,-1.579803228378296,9.684869766235352,0.0637819916009903,0.06782092899084093,-0.017427794635295868
4.000532150268555,-1.5990896224975586,9.680079460144045,0.07826133817434312,0.07069253921508789,-0.023568131029605865
4.009866237640382,-1.636536478996277,9.624004364013672,0.0891881138086319,0.07554928213357927,-0.027626246213912964
3.9547140598297124,-1.4219257831573486,9.679811477661133,0.08436298370361328,0.07219171524047852,-0.02180128358304501
3.9473898410797124,-1.355193853378296,9.799929618835451,0.06332799047231676,0.06334535777568817,-0.010105642490088941
3.774973630905152,-1.4747586250305176,9.609227180480959,0.045969367027282715,0.050308544188737876,-0.0032651924993842845
3.4470474720001225,-1.631052374839783,9.705712318420412,0.03432063385844231,0.02083028480410576,-0.01308159623295069
3.826099395751953,-1.313526749610901,9.904492378234865,0.008313918486237526,-0.017553914338350296,-0.018497740849852565
3.780243396759033,-1.4826942682266238,9.772736549377443,-0.004295533522963524,-0.037358049303293235,-0.019841045141220093
3.745583772659302,-1.4069522619247439,9.709702491760256,-0.00922875851392746,-0.056721989065408714,-0.027469782158732418
3.9107973575592045,-1.3598744869232178,9.784590721130373,-0.02369346655905247,-0.07474653422832489,-0.0272767897695303
3.95176362991333,-1.4031963348388672,9.749775886535646,-0.03206207230687142,-0.08106599003076555,-0.025986328721046448
3.823346853256226,-1.3907903432846072,9.646707534790039,-0.03802813962101937,-0.09120036661624908,-0.02727047167718411
3.8053429126739506,-1.5490846633911133,9.681196212768555,-0.04715742915868759,-0.1052706614136696,-0.03231587633490563
3.9404869079589844,-1.6002771854400635,9.63960933685303,-0.045835856348276145,-0.11121797561645508,-0.042430024594068534
3.8857285976409917,-1.4051368236541748,9.661293029785156,-0.04937608167529107,-0.12115656584501268,-0.049227289855480194
3.7790536880493164,-1.3826378583908083,9.701983451843263,-0.06017640233039856,-0.13990850746631625,-0.05406167358160019
3.7276051044464116,-1.5200170278549197,9.745792388916016,-0.07214760035276414,-0.16906940937042236,-0.0714419037103653
3.862009048461914,-1.4552910327911377,9.732507705688477,-0.06461297720670701,-0.2026391625404358,-0.09014370292425157
3.6949949264526367,-1.6475908756256104,9.738727569580078,-0.03048653155565262,-0.23265093564987183,-0.1210187003016472
3.8832542896270756,-1.6073317527770996,9.795081138610842,-0.026451440528035167,-0.27526021003723145,-0.14399592578411105
3.856229782104492,-1.4850795269012451,9.823051452636719,-0.030573468655347824,-0.31676617264747625,-0.15763048827648166
3.8183765411376953,-1.3092131614685059,9.927490234375,-0.042898476123809814,-0.374946802854538,-0.16738936305046082
3.6825332641601562,-1.3792922496795654,9.961254119873047,-0.06655530631542206,-0.4522626996040344,-0.19079683721065524
3.8741841316223145,-1.3296716213226318,10.168937683105469,-0.11625760048627855,-0.5446021556854248,-0.21776919066905978
3.5892660617828374,-0.9001723527908325,10.489953041076662,-0.19516271352767944,-0.6741166710853578,-0.23193617165088656
3.0871770381927495,-1.0297119617462158,10.673325538635256,-0.3145113289356232,-0.8784253597259521,-0.23740421235561374
2.628808736801148,-1.4121373891830447,10.619915008544922,-0.3418228924274445,-1.1877034902572634,-0.2188691794872284
2.334190845489502,-0.9890623688697816,10.978160858154297,-0.3349896967411042,-1.5915467739105225,-0.19038017094135287
2.052082777023316,-1.3763588666915896,10.676362037658693,-0.3587173521518708,-1.9793925285339355,-0.1908561885356903
3.362794876098633,-1.2164132595062256,11.308102607727053,-0.3450866043567658,-2.3570313453674316,-0.2558772265911103
2.66777777671814,-1.9985421895980837,10.523262023925781,-0.2795607745647431,-2.6939179897308354,-0.3328138589859009
3.0124328136444096,-2.624468564987183,10.505223274230959,-0.15195135772228244,-3.118973731994629,-0.4197972118854523
3.7027723789215092,-3.3815591335296635,10.437369346618654,0.06488255411386491,-3.565154552459717,-0.5617170333862305
3.732485294342041,-3.2590544223785405,10.186286926269531,0.2793013155460358,-4.113743782043457,-0.6895620226860047
5.231589794158936,-3.3920643329620366,10.69636631011963,0.5045740008354188,-4.619554996490479,-0.8050802946090698
7.707775115966797,-3.0251717567443848,12.482120513916016,0.6988865733146669,-4.985939025878906,-0.8528987765312196
10.339468002319336,-2.0661163330078125,14.485823631286623,0.4305418133735657,-4.931156635284425,-0.7995617985725404
13.128223419189453,-4.113781452178956,15.166131973266602,0.20432583987712863,-4.685766220092773,-0.8704382777214051
19.04028129577637,-4.267055034637452,15.608141899108888,0.17851646244525912,-4.349769115447999,-0.932492733001709
23.857906341552734,-2.114753246307373,12.70733165740967,-0.06157449632883072,-3.9633066654205327,-1.032362461090088
25.047777175903324,-2.8317239284515385,10.268792152404787,-0.09468621015548706,-3.4919741153717045,-1.2181297540664675
25.1624755859375,-6.825566768646241,8.984158515930178,0.7342312335968018,-3.1760909557342534,-1.4600465297698975
26.276260375976562,-2.426487922668457,10.375419616699219,1.1755287647247314,-2.9050235748291016,-1.5261107683181765
35.66838836669922,-2.5696353912353516,18.164112091064453,1.236374855041504,-2.18523383140564,-1.7564771175384521
25.670232772827152,-1.9932928085327148,16.90290069580078,0.852921724319458,-1.02218234539032,-1.5829421281814577
18.98532485961914,-0.3487900793552399,12.762316703796388,-0.09550065547227861,-0.89683997631073,-1.520083785057068
16.26732444763184,-2.2495958805084233,11.848455429077148,-0.9473546743392944,-1.0078010559082031,-1.418070435523987
13.331033706665039,-5.057420253753663,10.828665733337404,-1.1843482255935671,-1.2224984169006348,-1.4333699941635134
12.767697334289553,-7.363343238830566,11.886406898498537,-0.9213324785232544,-1.3693517446517947,-1.5162185430526736
12.058312416076662,-7.939817428588867,12.705465316772461,-0.3664911091327668,-1.3013501167297363,-1.5191360712051394
10.010075569152834,-7.301576614379883,12.728160858154297,0.21811038255691528,-1.1356472969055176,-1.4343475103378298
7.471929550170898,-5.418542861938477,12.641294479370117,0.510853946208954,-0.9402248859405518,-1.2542904615402224
5.628809928894043,-3.735135078430176,12.520103454589844,0.45715367794036865,-0.7264485955238343,-0.9915452599525453
3.703999757766724,-3.0346324443817143,11.616506576538086,0.26670399308204656,-0.4305545687675476,-0.7228938937187196
1.9054958820343018,-3.1323394775390625,11.115472793579102,0.09766051173210144,-0.1338222622871399,-0.48980692028999334
1.2285380363464355,-3.3525218963623047,10.829350471496584,0.012977449223399162,0.2115820497274399,-0.21531379222869873
-0.6398537755012513,-3.2809906005859375,9.32399654388428,0.12038804590702057,0.6105545163154603,0.05255458131432534
-2.3503906726837163,-2.491939783096314,7.728096961975098,0.2762734293937683,0.8846487402915956,0.2959595322608948
-3.6711349487304688,-1.1916813850402832,6.212749481201172,0.3540487289428711,1.0762417316436768,0.49288436770439154
-4.5532851219177255,-0.2832355499267578,5.14726448059082,0.3153445422649384,1.2241158485412598,0.6156153082847596
-4.949031829833984,-0.12716360390186313,4.701088428497315,0.2142292857170105,1.3442629575729372,0.6944883465766908
-4.40436601638794,-0.42300945520401,4.988083362579347,0.092248372733593,1.5200564861297607,0.7899391055107118
-4.19654417037964,-0.9103724956512451,4.581044673919679,0.06307986378669739,1.8091695308685303,0.9007174372673036
-5.151546001434327,-0.6741771697998047,2.979244470596314,0.1278092861175537,2.086748838424683,0.9766294956207275
-6.0247602462768555,0.32767066359519964,1.4452307224273682,0.11614177376031877,2.189157485961914,0.9886950254440308
-5.451625347137452,0.8266115188598633,1.1934833526611328,-0.05087443813681603,2.2303223609924316,0.9893683791160585
-4.438660621643066,0.2661780118942261,1.5819529294967654,-0.22737938165664673,2.3564257621765137,1.0179203748703005
-3.6061906814575195,-0.5595544576644897,1.8967833518981934,-0.2902382910251618,2.5573883056640625,1.0762044191360476
-2.6218192577362065,-0.753919243812561,2.2061352729797363,-0.29597222805023193,2.7943866252899174,1.1954871416091921
-2.0879063606262207,-0.23389787971973422,1.9691363573074343,-0.30852696299552923,3.045271873474121,1.3335291147232058
-1.8774888515472412,0.5822563171386719,0.8306193947792054,-0.3438555300235749,3.216310262680054,1.4443743228912354
-1.6112885475158691,1.4952075481414795,-0.09351661056280137,-0.42862501740455633,3.2307753562927246,1.501648783683777
-0.48800796270370483,1.8575308322906494,0.3558858931064606,-0.531475603580475,3.15626859664917,1.504856824874878
1.6021109819412234,1.782120943069458,1.6590548753738406,-0.5725153684616089,3.148434400558472,1.4689857959747314
3.0700051784515385,1.9511878490447998,2.0513947010040288,-0.49037078022956854,3.2181613445281987,1.3919107913970947
4.292311191558839,2.5768795013427734,2.0845220088958745,-0.4011395871639252,3.2317051887512207,1.2531646490097048
5.738507270812988,2.510444164276123,2.010679244995117,-0.30029237270355225,3.218931913375855,1.046514391899109
7.019560813903809,1.9300242662429812,2.3358917236328125,-0.14223267138004306,3.144047737121582,0.8219586014747621
8.815845489501953,1.4503575563430788,3.376220703125,-0.031799428164958954,3.062347888946533,0.6879621148109437
10.371871948242188,0.9328458309173584,3.9399654865264897,0.052453234791755676,3.024642705917359,0.6631704568862915
11.645309448242188,1.0415035486221316,3.876601934432984,0.07548400014638902,2.9106855392456055,0.7060533761978149
13.014653205871584,0.8014229536056519,3.6124095916748047,0.05300292745232583,2.6645631790161133,0.7425052523612977
13.976567268371584,0.8995966315269471,3.184667825698853,0.0720789358019829,2.333783388137818,0.7450789213180542
14.349555969238281,0.9196072816848755,2.6246910095214844,0.08811874687671661,1.9223655462265017,0.6921160221099854
14.473461151123047,0.262276291847229,1.9738484621047976,0.1990184932947159,1.4530458450317383,0.61021888256073
13.436119079589844,0.43874391913414007,0.6985292434692383,0.4250560402870178,0.9192857146263124,0.5133082866668701
11.448371887207031,1.3540526628494265,-0.8645613193511963,0.6108999848365785,0.267855316400528,0.35644716024398804
10.32100009918213,1.5510991811752322,-1.3195012807846072,0.763465166091919,-0.4830760061740876,0.15153974294662476
8.486188888549805,0.6162779331207275,-2.276416778564453,0.9952507615089418,-1.2310919761657715,-0.08270707726478577
76.88180541992188,10.726022720336914,49.87302780151368,-2.4757156372070312,-3.4180276393890385,0.9676774740219116
24.43061065673828,10.203864097595217,8.378037452697756,0.190937340259552,4.716213226318359,-0.1779773980379105
0.7904536724090576,-5.80049991607666,11.527429580688477,-0.23278427124023438,0.9170567393302919,0.6478374004364014
0.75187486410141,-5.865915775299073,14.944416046142578,0.10634173452854156,1.513486981391907,0.550859034061432
-11.535223007202148,-2.5391945838928223,5.6158204078674325,-0.14746035635471347,-0.06966337561607361,0.2672919929027558
4.7279725074768075,-2.508590459823609,13.939498901367188,-0.2484135925769806,-0.3684089779853821,-0.37851074337959295
1.3815613985061648,-8.904910087585451,8.820987701416016,-0.04257287085056305,-0.6448282599449159,-0.6159696578979492
7.257052421569824,2.1906142234802246,10.181167602539062,-0.03058668784797192,-0.6187952756881714,-0.566123366355896
9.11712646484375,4.618391513824464,9.364120483398438,-0.2010515481233597,-0.22255489230155945,-0.15494595468044284
7.386467456817628,-1.7190022468566895,8.570384025573732,-0.23036229610443115,0.15687569975852966,0.03321677818894387
5.359766006469727,-0.6850057244300843,9.45988178253174,-0.18593142926692965,0.3336679935455322,0.14752481877803805
3.8384652137756348,-2.9817638397216797,9.661079406738281,-0.1172166094183922,0.34261131286621094,0.13517332077026367
3.57393741607666,-2.7176182270050053,9.736311912536623,-0.07597607374191284,0.27703031897544866,0.06653329730033875
3.704312324523926,-1.1913855075836182,10.292831420898438,-0.1101657897233963,0.19642874598503113,0.05166286602616311
3.764462947845459,-0.48158228397369385,10.32908821105957,-0.16973562538623813,0.09776569902896881,0.09044208377599718
3.868804216384888,-1.072007417678833,10.073692321777344,-0.21865613758563998,0.015659522265195847,0.1342690885066986
3.7669525146484375,-2.058781623840332,9.845662117004396,-0.21648791432380676,-0.05188648775219918,0.11727416515350342
4.054004669189453,-2.2118222713470463,9.68986225128174,-0.19026030600070956,-0.08127816766500474,0.0787876695394516
4.33266305923462,-1.7985594272613525,9.647741317749023,-0.15674206614494324,-0.0841277912259102,0.052533820271492004
4.312160491943359,-1.4736748933792116,9.621898651123047,-0.14158916473388672,-0.10529889911413194,0.03862616792321206
4.645036697387695,-1.2213549613952637,9.74105739593506,-0.17158490419387817,-0.062300164252519614,0.09881225228309631
4.413394451141358,-2.0296885967254643,9.432541847229006,-0.1349267065525055,-0.04214739054441452,0.11653474718332292
4.461517333984375,-1.6894359588623047,9.51225471496582,-0.12829580903053284,-0.014382361434400083,0.12256430089473724
4.035422325134277,-1.6587830781936648,9.557444572448732,-0.10993652045726776,-0.0463973917067051,0.10290019959211351
3.619625329971314,-1.7035404443740847,9.599348068237305,-0.1065114662051201,-0.11804479360580444,0.05616870149970055
4.276235580444336,-1.2715013027191162,9.96957302093506,-0.15614506602287292,-0.10223542153835297,0.10533808916807176
3.708320856094361,-1.8137812614440918,9.67391872406006,-0.15335041284561157,-0.15799717605113986,0.11209893226623535
3.624845504760742,-1.3550889492034912,9.869909286499023,-0.20070095360279086,-0.20729005336761475,0.10323314368724823
4.224561214447022,-1.6635801792144775,9.822311401367188,-0.20308643579483032,-0.355574518442154,0.008711844682693481
4.286508560180664,-0.9730559587478638,9.660272598266602,-0.24305118620395663,-0.26496431231498724,0.14651569724082947
3.974277257919312,-1.5797417163848877,9.700839042663576,-0.24835306406021118,-0.34166976809501654,0.12468257546424866
3.1437709331512456,-1.906381964683533,8.73434066772461,-0.31561893224716187,-0.3713254034519196,0.10197434574365617
5.849116802215577,-0.729375958442688,10.82618522644043,-0.3296772837638855,-0.4739574491977692,0.07565826177597046
2.9846727848052983,-1.8983173370361328,8.665416717529297,-0.3341719210147858,-0.5450521111488343,0.0625869631767273
5.266635894775391,-0.9814977645874023,10.173940658569336,-0.434143602848053,-0.43456694483757025,0.14655166864395142
4.413639068603516,-2.736316680908203,9.148834228515625,-0.40772169828414917,-0.4570042192935944,0.1735043674707413
3.10248875617981,-3.8224742412567143,7.69272518157959,-0.32143473625183105,-0.6060579419136048,0.011078601703047752
6.658822059631348,-0.907983660697937,10.806532859802248,-0.3559664189815522,-0.45344200730323797,0.12505954504013062
2.896866798400879,-3.0629603862762456,7.56217098236084,-0.26293617486953735,-0.5960187315940858,0.03550758957862854
6.105134010314941,-1.3612388372421267,10.509827613830568,-0.33458560705184937,-0.4534591734409333,0.12009672075510026
3.9230384826660156,-2.4693121910095215,8.755955696105959,-0.3209989070892334,-0.4756536781787873,0.1492609977722168
4.385294437408448,-3.1843719482421875,8.920763969421388,-0.2942263782024384,-0.5295011401176454,0.05889514088630676
4.806450843811035,-2.6942238807678223,8.792488098144531,-0.26725852489471436,-0.5252367854118348,0.023493822664022446
4.960933208465577,-2.571578741073609,9.019001007080078,-0.17089684307575229,-0.7169979810714722,-0.10967433452606201
4.587183952331543,-2.098821878433228,8.476739883422852,-0.2275330126285553,-0.5004668831825257,-0.014006910845637321
5.554371356964112,-1.7010843753814697,9.453941345214844,-0.1890881359577179,-0.5419435501098633,0.002279937500134111
4.735445022583008,-2.0853824615478516,9.028130531311037,-0.24026609957218173,-0.49735504388809204,0.06655246764421464
4.89036750793457,-2.134221076965332,8.960936546325685,-0.2599876821041108,-0.5361673831939697,0.051197417080402374
4.742450714111328,-2.382437229156494,8.91485118865967,-0.24922674894332886,-0.63055557012558,-0.0066685983911156654
5.192962646484375,-2.0805234909057617,8.94556999206543,-0.30796438455581665,-0.5766236782073975,0.06570420414209367
5.237543582916261,-2.646045207977295,8.717349052429201,-0.2616094648838044,-0.581829309463501,0.050438147038221366
5.260449886322022,-2.719027519226074,8.708252906799318,-0.28055763244628906,-0.5325208306312562,0.0431206338107586
5.083463191986085,-2.9288547039031987,8.4592981338501,-0.24675026535987854,-0.5161028504371644,0.027216017246246338
5.117835521697999,-2.9172587394714355,8.642764091491701,-0.17955079674720764,-0.5457146167755127,-0.05668643489480019
5.399731636047363,-2.5552868843078613,8.763978958129883,-0.19296026229858398,-0.48415848612785345,-0.04705432057380676
4.839532375335694,-3.078132867813111,8.54200839996338,-0.1460602581501007,-0.4741778671741486,-0.07694251090288164
5.063179016113281,-2.8125343322753906,8.708006858825685,-0.1368380039930344,-0.5136164426803589,-0.11918542534112932
5.260061264038086,-2.314150333404541,8.675750732421875,-0.12090673297643663,-0.5563464760780336,-0.12633845210075378
5.388574600219727,-2.5455708503723145,8.509878158569336,-0.10534160584211351,-0.5866498947143555,-0.1277929097414017
5.547139644622804,-2.896896600723267,8.46692752838135,-0.06670922040939331,-0.5949307084083558,-0.15318293869495395
5.609624862670898,-2.626965761184693,8.537954330444336,-0.05013742670416833,-0.595356822013855,-0.17973907291889193
5.501727104187012,-2.3012626171112065,8.604737281799318,-0.068183034658432,-0.6036428213119507,-0.18858437240123752
5.494722366333008,-2.3786313533782963,8.56639289855957,-0.08061457425355913,-0.6308028697967529,-0.18311588466167453
5.358839988708496,-2.547887563705445,8.334717750549318,-0.062058564275503166,-0.6697355508804321,-0.19744566082954407
5.386807441711426,-2.718335390090943,8.419529914855959,-0.011941498145461082,-0.7241322398185731,-0.23774874210357666
5.671857357025147,-2.7071399688720703,8.407381057739258,0.015041720122098923,-0.7552242279052734,-0.27638104557991033
5.909364700317383,-2.4468343257904057,8.249197006225586,0.037635009735822685,-0.7791882753372192,-0.3105600774288178
5.650221347808839,-2.832493305206299,8.371870040893555,0.08145882934331895,-0.7940951585769653,-0.3698754906654358
5.262199401855469,-3.684406280517578,8.697927474975586,0.18735431134700778,-0.8737010955810547,-0.47049680352211004
4.728140354156495,-3.131965160369873,8.454339981079102,0.310966044664383,-1.0183755159378054,-0.5635110139846802
5.257226467132569,-3.0606179237365723,8.410679817199709,0.36753603816032415,-1.1804900169372559,-0.6551678776741029
5.531599044799805,-2.3149750232696538,8.812880516052248,0.3960052728652954,-1.3452025651931765,-0.7056487202644349
5.847755432128906,-2.6051008701324467,8.40247440338135,0.41523343324661255,-1.4734040498733523,-0.7491698265075684
6.135517597198487,-2.35277533531189,8.181619644165039,0.45286825299263006,-1.5879067182540896,-0.7783234119415283
6.331024646759034,-1.880533218383789,8.28216075897217,0.4715395867824555,-1.7022027969360352,-0.7916542887687684
5.995641231536866,-1.5055651664733887,8.070295333862305,0.4907916188240051,-1.8678470849990847,-0.7716191411018373
6.297913074493409,-0.7732381820678711,8.733218193054201,0.4701885282993317,-2.076185703277588,-0.7138312458992006
6.099163532257081,-1.318369269371033,8.954305648803711,0.4868816435337067,-2.372299432754517,-0.7060940265655518
5.994937896728516,-1.6465542316436768,8.223522186279297,0.4873040616512299,-2.69748592376709,-0.6936931014060975
5.962916374206543,-1.097631335258484,8.638404846191406,0.5062907934188843,-3.295547246932984,-0.6687164902687074
6.550881862640382,-0.9891084432601929,8.677446365356445,0.49758449196815496,-3.829721450805664,-0.6597535014152528
7.390832901000977,-0.9409617185592651,9.16094493865967,0.4302560985088349,-4.326477527618409,-0.612420916557312
8.598613739013672,-0.7828418612480165,9.271855354309084,0.2991798520088196,-4.722851276397706,-0.5327043533325195
10.749916076660156,-1.0675188302993777,9.948347091674805,0.12062601000070573,-4.9363813400268555,-0.41031068563461304
12.635826110839844,-1.47217333316803,10.679766654968263,-0.03808018937706948,-4.836742401123047,-0.2810223996639252
14.667224884033203,-2.6702513694763184,10.681037902832031,0.00774594210088253,-4.532223701477051,-0.22127653658390048
17.557750701904297,-3.205456972122193,10.181521415710451,0.15142373740673068,-4.124210357666016,-0.22761441767215732
18.865093231201172,-3.0833251476287846,9.59731197357178,0.0009802201529964807,-3.5704898834228516,-0.11630168557167053
21.769489288330078,-2.4720485210418706,8.860044479370117,-0.651214897632599,-3.0245490074157715,0.09252578765153886
20.991373062133793,0.24867294728755954,2.1037020683288574,-1.7191063165664675,-2.4327256679534917,0.06507010757923126
22.069635391235355,-1.7027771472930908,-4.49596929550171,-2.1117353439331055,-2.693691492080689,-0.5367705821990967
24.33831787109375,-2.488035202026367,-6.784422874450684,-1.8879181146621706,-2.9334144592285156,-1.2593979835510254
21.96628189086914,-3.234258890151978,-7.778841018676758,-1.1715105772018435,-3.4422550201416016,-2.162838220596314
19.335983276367188,-1.992246150970459,-9.798355102539062,-0.17480319738388062,-4.454571723937988,-3.2208020687103276
31.888467788696293,-2.5912740230560307,3.018615007400513,0.7169054746627808,-5.290393352508546,-4.105306625366211
28.052024841308594,-0.15700531005859375,7.493996620178223,0.7381292581558228,-4.577799320220948,-4.329278469085694
25.093849182128906,1.0241411924362185,7.850625991821289,0.1984289735555649,-4.177491188049316,-4.368753910064698
22.373802185058594,-0.07029382884502411,9.652149200439453,-0.5104911923408509,-3.5791351795196538,-4.274558067321777
17.94979476928711,-2.479012966156006,9.404294967651367,-1.1420071125030518,-3.113367319107056,-4.055642127990723
14.413644790649414,-7.103225231170655,9.708602905273438,-1.171098589897156,-2.804932117462158,-3.8001928329467773
10.74586582183838,-10.147229194641115,9.592637062072756,-0.45079991221427923,-2.609821319580078,-3.490639925003052
7.885167598724366,-10.56055545806885,10.364639282226562,0.6018116474151611,-2.538794994354248,-3.1943075656890874
6.407867431640625,-8.477537155151367,11.900513648986818,1.4191347360610964,-2.3442468643188477,-2.7803766727447514
5.03437089920044,-6.115021705627441,13.375407218933107,1.7177822589874268,-1.906194090843201,-2.2749516963958745
3.326913833618164,-4.185767650604249,14.620001792907717,1.6007403135299685,-1.2760860919952393,-1.7923275232315066
2.8648583889007573,-2.9982519149780273,15.82950210571289,1.1178083419799805,-0.4544469118118286,-1.2879918813705447
2.213228225708008,-3.3051903247833256,16.39291763305664,0.5483689308166504,0.5345515608787538,-0.8075183629989624
1.3358474969863894,-4.7268338203430185,16.03899383544922,0.16315770149230957,1.5074626207351687,-0.4247638285160065
-0.3689622581005097,-6.15234375,14.397742271423342,0.09554093331098558,2.365081310272217,-0.09306011348962785
-3.103603601455689,-6.746804237365723,11.928795814514162,0.29977089166641235,2.954678535461426,0.1936893314123154
-5.6258697509765625,-5.975520610809327,9.381734848022461,0.5412209033966064,3.23774266242981,0.4402592182159424
-6.617850303649902,-4.3215837478637695,7.71529245376587,0.5673792958259584,3.277377128601074,0.731181263923645
-6.211969852447511,-2.9752781391143803,7.36469602584839,0.3224859535694123,3.2587075233459473,1.0889183282852175
-4.808241844177246,-2.257606029510498,7.823775291442871,-0.06385347247123718,3.3309526443481445,1.4561177492141726
-3.8896708488464355,-2.3729579448699956,8.121731758117678,-0.40900632739067083,3.5105948448181152,1.7763403654098513
-2.941014289855957,-2.4996538162231445,8.71916389465332,-0.6163396239280702,3.7441258430480957,2.0118765830993652
-1.5980383157730105,-2.2011990547180176,9.108813285827638,-0.6980565190315248,4.073639869689941,2.1604263782501225
-0.9435687661170961,-1.7158766984939577,9.029717445373537,-0.6969259381294252,4.447453975677491,2.2040796279907227
-0.3002202212810517,-0.7673277258872987,8.768622398376467,-0.7274928689002992,4.782806396484375,2.167272806167603
0.6447257399559022,0.28863671422004705,8.657654762268068,-0.8509376049041748,5.059294223785401,2.10845160484314
1.3317545652389529,1.1549100875854492,8.625281333923342,-1.0654652118682861,5.308108806610108,2.059645175933838
2.171676397323609,1.7195163965225222,8.814467430114748,-1.2973271608352663,5.528605937957765,1.9790010452270508
2.5986294746398926,1.8952910900115967,8.614871978759766,-1.4217007160186768,5.70148801803589,1.8252413272857666
3.6439623832702637,2.4578106403350835,8.779197692871094,-1.5248756408691406,5.776128292083741,1.5980576276779177
4.726958274841309,2.730866670608521,9.190213203430178,-1.5997066497802734,5.795598506927491,1.3501415252685547
6.526216983795167,3.0616440773010254,10.130407333374023,-1.6417485475540163,5.8045716285705575,1.078155279159546
8.59745979309082,3.7684581279754643,11.363823890686037,-1.7219195365905762,5.855189800262452,0.8068536520004272
10.220822334289553,4.199657917022706,12.295608520507812,-1.8355669975280762,5.967396259307862,0.5236977934837342
11.570838928222656,5.033974647521973,12.57199478149414,-1.9875646829605105,6.047618865966797,0.1987956911325455
13.120394706726076,5.351593971252441,12.261913299560547,-2.2235398292541504,6.0205888748168945,-0.1558337360620499
14.775613784790039,4.845566272735597,11.973219871520998,-2.4342145919799805,5.879516124725343,-0.5063608884811401
15.801706314086914,4.712939739227296,11.68929195404053,-2.5531539916992188,5.64826250076294,-0.837244212627411
15.873120307922365,6.157488346099854,10.9132776260376,-2.63399076461792,5.28486204147339,-1.190455436706543
16.359075546264652,8.859786987304688,11.180442810058594,-2.888730525970459,4.797891616821289,-1.6334363222122195
18.107049942016605,11.005261421203615,12.374202728271484,-3.429282903671265,4.406130790710449,-2.1426346302032475
19.807571411132812,11.119590759277344,12.292728424072266,-4.06110429763794,4.194188117980957,-2.604924201965332
19.475980758666996,10.137709617614748,10.675697326660156,-4.461588382720948,3.9473209381103516,-2.9210212230682377
18.915699005126953,9.722375869750977,9.308569908142092,-4.52408504486084,3.5479469299316406,-3.1605103015899663
18.497238159179688,11.539343833923342,7.856032848358155,-4.536673069000245,3.076752185821533,-3.3075439929962163
18.051586151123047,12.711764335632326,6.377638816833496,-4.6552796363830575,2.5838351249694824,-3.333183765411377
18.88530731201172,12.13172721862793,6.202496528625488,-4.590388774871827,2.1597728729248047,-3.288524389266968
18.764249801635746,10.278707504272461,5.480154037475586,-4.085541248321534,1.9115432500839236,-3.2543725967407227
17.40698051452637,8.541387557983398,3.4494674205780034,-3.22745943069458,1.6575351953506472,-3.204333782196045
16.076160430908203,7.811712265014648,0.9105934500694276,-2.370118856430054,1.2817590236663818,-3.1093735694885254
15.257374763488771,7.539737701416016,-1.2738777399063113,-1.750044822692871,0.8158705830574037,-2.96292781829834
14.485294342041016,6.459335803985597,-2.512063503265381,-1.3240257501602175,0.28617158532142645,-2.7327184677124023
14.022615432739258,5.004049301147461,-2.074066638946533,-0.9403108358383179,-0.2437476068735123,-2.4309115409851074
8.886510848999023,-16.100357055664062,0.3455902040004731,1.887022137641907,-0.9174524545669556,-2.098524570465088
7.712790966033936,4.247966289520265,11.160716056823732,4.003389358520508,-1.2346273660659792,-2.1971564292907715
17.842603683471683,-24.957054138183594,23.46845245361328,4.6884260177612305,-0.8242462873458862,-2.017067193984986
7.831568241119386,-1.8843178749084473,17.47677993774414,2.4354100227355957,-0.19089154899120334,-0.6827356815338135
0.8373495936393739,5.086273670196534,9.535431861877443,1.5818593502044678,-0.38372656702995306,-0.5539663434028627
10.610641479492188,12.378313064575195,16.842813491821293,1.0402740240097048,-0.40414637327194214,-0.5654852986335756
7.008885860443116,8.380055427551271,12.213632583618164,0.6201887726783754,0.05575890466570855,-0.39554983377456665
3.7000861167907715,1.434580206871033,11.074536323547365,0.45023995637893677,-0.03784590587019921,-0.18558546900749207
3.9566256999969487,2.2697272300720215,11.49844264984131,0.21911239624023438,-0.16230158507823947,-0.12397015839815141
4.049445629119874,-0.40841299295425415,9.673005104064943,0.06917262822389604,-0.1340930163860321,-0.11246157437562944
4.913383960723878,-0.02332983911037445,10.043642044067383,0.012840494513511658,-0.09566038846969604,-0.07248299568891527
4.442043304443359,-0.9198529720306396,9.749438285827638,0.012857740744948387,-0.01952754892408848,-0.05006987601518631
4.316186428070069,-2.103163242340088,9.63394069671631,0.021337050944566727,0.00205446663312614,-0.037384036928415305
3.9791147708892827,-1.8115622997283936,9.59880256652832,0.04255146905779839,0.014203052967786789,-0.03944272920489312
4.137425899505616,-1.5835919380187988,9.838691711425781,0.06710794568061829,-0.002380268182605505,-0.06388115137815477
3.6140871047973633,-1.4708462953567507,9.526160240173342,0.08231581002473833,-0.003305230289697647,-0.07667805999517442
3.7285332679748535,-1.3195254802703857,10.056127548217773,0.055915094912052155,-0.06430519372224809,-0.10592790693044664
4.664546012878418,-1.6799871921539307,9.929767608642578,0.06077956035733224,-0.05184966325759888,-0.11500816792249681
4.461111545562745,-1.4338529109954834,9.895924568176271,0.08532723039388658,-0.03341633453965188,-0.09871113300323486
4.293286323547363,-1.3619686365127566,9.806681632995607,0.11128461360931396,-0.022897796705365184,-0.10247980058193207
4.380131244659425,-1.1622140407562256,9.876692771911623,0.1048050969839096,-0.027028804644942287,-0.08178625255823137
4.289059638977051,-0.8975908756256104,9.942224502563477,0.07732484489679338,-0.023959487676620483,-0.05249439552426339
4.165231704711914,-0.6515123844146729,9.999815940856935,0.030613023787736893,-0.0344187393784523,-0.0246777068823576
4.15678596496582,-0.8305599689483643,9.924152374267578,-0.012753610499203207,-0.03685656189918518,-0.0015932334354147317
4.10855531692505,-0.9024630784988403,9.802281379699709,-0.05051422864198685,-0.0471971444785595,0.0170703548938036
4.121377944946289,-0.9165207147598267,9.796166419982912,-0.08017501980066301,-0.05399544537067413,0.033746730536222465
4.06742811203003,-1.09369170665741,9.74898433685303,-0.10478299111127855,-0.0695794001221657,0.048257119953632355
4.112577915191651,-1.390395164489746,9.600194931030273,-0.12858709692955017,-0.08232130855321886,0.05905849486589432
4.035687923431397,-1.5550836324691775,9.543313980102539,-0.14950230717658997,-0.0935012772679329,0.061845187097787864
4.055854797363281,-1.497507691383362,9.537739753723146,-0.14732857048511508,-0.09237414598464966,0.053057234734296806
4.072722434997559,-1.6559834480285645,9.508756637573242,-0.13252675533294678,-0.09360453486442566,0.04500387236475945
4.241395950317383,-1.546664595603943,9.516847610473633,-0.11886665970087053,-0.08693782985210419,0.03775115683674813
4.21025037765503,-1.4325509071350098,9.557924270629883,-0.11119944602251054,-0.07053163647651672,0.04059525579214096
4.191240787506104,-1.5789829492568972,9.515225410461428,-0.1043829470872879,-0.05620203539729119,0.04016982764005661
3.9595389366149902,-1.5657405853271484,9.466285705566406,-0.04458419606089593,-0.04531374946236611,0.009069057181477547
3.8666107654571538,-1.8120217323303223,9.523124694824219,-0.012010651640594007,-0.05513139069080353,-0.024523684754967693
3.980436325073242,-1.7526935338974001,9.472886085510256,0.0010034407023340464,-0.06410259753465654,-0.0510738529264927
4.091577053070069,-1.4706209897994997,9.564227104187013,-0.004584517329931259,-0.06790075451135637,-0.05712953209877014
3.932147979736328,-1.5509366989135742,9.58988666534424,-0.0180786456912756,-0.0717955306172371,-0.05843205749988556
4.095114707946777,-1.4945389032363894,9.737112998962404,-0.032687194645404816,-0.09155305474996568,-0.06760585308074951
4.1965298652648935,-1.3943207263946533,9.690549850463867,-0.026876190677285198,-0.09259495139122009,-0.07897381484508514
4.2499098777771005,-1.3977404832839968,9.68438243865967,-0.020853590220212936,-0.0930413380265236,-0.08827346563339233
4.249922752380371,-1.4621400833129883,9.674184799194336,-0.030041862279176712,-0.10032868385314941,-0.07837904244661333
4.178960323333741,-1.510408639907837,9.525767326354982,-0.030070971697568893,-0.09844485670328142,-0.082821324467659
4.02315616607666,-1.544309377670288,9.527810096740724,-0.0307996328920126,-0.10726580023765564,-0.09426954388618469
4.039574146270753,-1.366984009742737,9.737921714782717,-0.050590090453624725,-0.12869937717914584,-0.1054830253124237
4.2507033348083505,-1.4933605194091797,9.650315284729006,-0.06362003833055498,-0.13892205059528354,-0.11570729315280914
4.00612735748291,-1.2379117012023926,9.607488632202148,-0.07788169384002686,-0.16328276693820956,-0.11193373799324036
4.196523189544679,-1.265811324119568,9.732023239135742,-0.10187305510044098,-0.1902619153261185,-0.09960957616567613
4.281391143798828,-1.1637879610061648,9.71028232574463,-0.1236890032887459,-0.22057127952575684,-0.097052700817585
3.9037251472473145,-1.5164766311645508,9.689497947692873,-0.11798501014709473,-0.25770413875579834,-0.10508640855550767
4.09122371673584,-1.720874309539795,9.701724052429201,-0.11632245779037476,-0.3106821477413178,-0.13473275303840637
4.364428997039796,-1.6894556283950808,9.674151420593263,-0.12216076254844666,-0.3454167544841767,-0.16124270856380465
4.1037917137146005,-1.4027328491210938,9.58132839202881,-0.13846443593502047,-0.37940818071365356,-0.17247278988361361
4.485293388366699,-1.2772852182388308,9.699650764465334,-0.1628636568784714,-0.422515481710434,-0.1769694685935974
4.107343673706055,-1.273236393928528,9.726397514343263,-0.20612141489982605,-0.47662183642387396,-0.16168731451034546
3.8925831317901616,-1.607802391052246,9.776659965515138,-0.2618710994720459,-0.5652062296867372,-0.1916417628526688
3.773730754852295,-1.2236177921295166,9.957612037658693,-0.3151978552341462,-0.6975588798522949,-0.2052678614854813
3.5175216197967534,-1.1815969944000244,9.781207084655763,-0.3664166629314423,-0.874944031238556,-0.20430806279182434
3.4362988471984863,-1.1086907386779785,9.941935539245607,-0.4185074865818024,-1.0951526165008545,-0.18094091117382052
3.4017763137817383,-0.9952352046966553,9.995385169982912,-0.46934986114501953,-1.3428002595901491,-0.1911568492650986
3.544626951217652,-0.7343574166297914,10.175270080566406,-0.5518782138824463,-1.59125292301178,-0.18314644694328308
3.5716991424560547,-0.5667065382003784,10.2332763671875,-0.6479556560516357,-1.8543481826782227,-0.17185367643833163
3.709553956985474,-0.47695618867874146,10.218475341796875,-0.7523231506347656,-2.125459432601929,-0.1336466372013092
3.6702110767364506,-0.32520514726638794,10.170028686523438,-0.9045817255973817,-2.4359564781188965,-0.09181751310825348
3.6542840003967285,-0.5026310682296753,10.391442298889162,-1.0377717018127441,-2.834330320358277,-0.059033893048763275
2.911317586898804,-1.23134446144104,10.183706283569336,-0.9992688894271851,-3.5640382766723633,-0.19770883023738864
2.703132152557373,-0.8603149652481079,10.545612335205078,-1.0710147619247439,-4.047650337219238,0.05326465144753457
4.240670204162598,-2.0930676460266113,12.40437984466553,-0.7964409589767456,-5.296725749969483,-0.14039902389049533
1.0439311265945437,-2.8554413318634038,11.464888572692873,-0.9124287366867065,-6.203084468841554,-0.2012307047843933
6.223634719848633,-1.8437817096710205,15.49472427368164,-1.088398337364197,-7.237454891204835,-0.10554513335227966
5.713113784790039,-3.8065247535705566,17.194139480590824,-1.6502109766006472,-7.993219375610352,-0.1261103302240372
12.799104690551758,-2.2561905384063725,17.70104026794434,-2.505824565887451,-8.360295295715334,-0.11561112850904466
18.079828262329105,-4.895127773284913,18.58206367492676,-3.3451428413391113,-8.377892494201662,-0.23852086067199707
20.399969100952152,-7.250080108642578,18.20812034606934,-3.774890422821045,-8.10737419128418,-0.5495648980140687
20.652000427246094,-8.118802070617678,18.109979629516605,-4.262736797332765,-7.585293769836426,-0.7995461821556092
20.76518058776856,-8.175040245056154,16.757608413696293,-4.989776611328125,-7.0767579078674325,-0.9093434214591981
25.91661834716797,-7.1417951583862305,17.864671707153324,-6.242246627807617,-5.996564388275147,-0.603318452835083
18.14495086669922,-3.814576387405396,17.791898727416996,-8.466278076171875,-4.406627655029297,0.07286464422941209
15.982318878173828,-6.137450218200684,15.243823051452638,-9.062124252319336,-2.571719884872437,-0.3827472925186157
28.535167694091797,-13.960156440734865,18.025575637817386,-6.980657100677491,-0.8522002696990967,-1.9784221649169922
27.36043930053711,-21.87813949584961,26.12747573852539,-3.665616512298584,2.7105147838592534,-2.211575984954834
9.611742973327638,-12.329373359680178,13.654324531555178,-1.2767533063888552,4.289055347442628,-1.8577907085418701
6.011654853820801,-4.57210636138916,7.483857154846191,-0.1437843143939972,4.644297122955323,-1.8025860786437988
3.9318957328796387,0.9778256416320801,5.141887664794922,-0.02127073518931866,4.617832183837891,-1.744053840637207
2.5311288833618164,3.820943832397461,3.5904610157012944,-0.4674029648303986,4.537405967712402,-1.5883103609085085
0.9206451177597046,3.7816865444183354,2.576859951019287,-1.0871741771697998,4.397658348083496,-1.4000068902969363
-0.7171515226364136,2.1246519088745117,2.0014045238494877,-1.3284997940063477,4.23661756515503,-1.2075159549713135
-1.8720300197601318,1.496736764907837,2.2904694080352788,-1.2726364135742188,4.0163283348083505,-0.985383450984955
-1.4389477968215945,1.152261734008789,3.8450081348419194,-1.0804822444915771,3.8844587802886967,-0.6835507154464722
-0.06483471393585205,1.2639898061752322,5.751066207885742,-0.8264724016189575,3.995199203491211,-0.3233493864536286
0.44930750131607056,1.858496904373169,6.184254169464112,-0.5731038451194764,4.321860313415527,0.02680705673992634
-0.38212835788726807,3.0881602764129643,4.900496482849121,-0.42814409732818604,4.620959758758546,0.3321076929569245
-1.4167733192443848,4.025789737701417,3.2626178264617924,-0.41651526093482977,4.738048553466797,0.5469653010368348
-1.2097246646881104,3.9766855239868164,2.936236143112183,-0.4064596593379975,4.706604480743409,0.6439223289489746
0.3540593981742859,4.0808472633361825,3.6614389419555664,-0.3685366809368134,4.731745719909668,0.6626129746437074
1.715567469596863,4.209876537322999,4.082229137420655,-0.3055042624473572,4.889845371246339,0.5926066040992738
2.4461925029754643,4.044836044311523,3.8684551715850835,-0.23326830565929416,5.081755638122559,0.42928621172904974
3.397122859954834,4.0990614891052255,3.09366512298584,-0.164776548743248,5.244145870208741,0.22605571150779724
3.925637483596802,4.065697193145753,1.3888264894485476,-0.12644509971141818,5.327150344848633,0.022890450432896618
4.009276866912843,3.879950523376465,-0.4605367183685303,-0.11374495923519135,5.2218995094299325,-0.152948871254921
4.778475761413574,3.771529197692871,-0.875348687171936,-0.1340891420841217,4.961381435394288,-0.25116801261901855
6.341249465942383,3.0705168247222905,-0.32116466760635376,-0.17204174399375916,4.707575798034668,-0.26969513297081
8.101099967956545,1.8533289432525635,0.3017918169498444,-0.10427539795637132,4.458301544189453,-0.252618819475174
10.109100341796875,1.7342242002487185,0.6557523012161255,0.03654879704117776,4.147884368896484,-0.17255350947380066
12.203947067260742,1.834477424621582,0.8084453344345093,0.1152004599571228,3.7621223926544194,-0.09717702865600586
14.863405227661133,0.25029897689819336,0.7898964881896973,0.27478837966918945,3.323629379272461,-0.043771538883447654
16.751527786254886,-1.1220810413360596,0.176641121506691,0.6633117794990541,2.7867679595947266,0.044327054172754295
17.70430183410645,-0.5550734400749208,-0.9009747505187988,1.060868501663208,2.113150835037232,0.20040492713451388
18.58358955383301,0.4202812612056733,-1.6967068910598757,1.255878806114197,1.3521296977996826,0.3903057277202607
19.065755844116214,0.500079870223999,-1.787701725959778,1.3386874198913574,0.6211516857147217,0.5282399058341981
19.24813461303711,0.1660905331373215,-1.335677742958069,1.4259169101715088,-0.003154483856633306,0.5388177633285522
19.085050582885746,0.2114769369363785,-1.156933903694153,1.4898152351379395,-0.5124195218086244,0.4713352024555207
17.064552307128906,0.7588447332382202,-2.22149658203125,1.4158117771148682,-0.9408492445945741,0.4183248281478882
34.95146942138672,3.7992579936981206,-2.5459084510803223,0.3731211125850678,-2.0752379894256596,0.8411604166030884
71.87258148193361,26.441864013671875,32.48714828491212,-2.4904477596282963,-1.9623382091522217,1.2150074243545534
15.100631713867188,2.9260096549987793,10.574635505676271,-0.6960291266441346,2.2778472900390625,-0.3852688670158386
0.7180084586143495,-6.624288558959961,7.216108798980714,-0.4090175926685334,1.3850634098052979,0.16674952208995822
-1.6623784303665163,-7.938567161560059,10.615694999694826,0.24966068565845492,0.9844943881034852,0.46858930587768555
-3.797579288482666,3.0891432762145996,12.483605384826662,0.09201865643262865,0.2650895118713379,-0.2021373361349106
0.4314239025115967,-8.555743217468263,9.719100952148438,0.05003809556365014,0.21888256072998047,-0.833629846572876
1.3229544162750244,-7.960453033447266,10.986335754394531,0.16849334537982943,-0.26205021142959595,-0.850063979625702
5.888883590698242,4.79251766204834,10.91009521484375,0.1330602467060089,-0.29590344429016113,-0.6560104489326478
8.178155899047852,3.647922277450562,9.738210678100586,-0.08399853110313416,-0.2495583146810532,-0.3962603807449341
7.853452682495117,0.3628537654876709,8.808470726013185,-0.1353862136602402,-0.08479492366313934,-0.050452470779418945
6.280080318450929,-0.8244890570640565,8.871923446655273,-0.08821319043636322,0.1289145201444626,0.09388020634651184
4.794421195983887,-2.801934957504273,9.284672737121584,-0.04060681164264679,0.2776944637298584,0.0746990814805031
4.439862251281738,-2.454174041748047,9.680728912353516,0.051043514162302024,0.326532781124115,-0.021026322618126873
4.087131023406983,-0.5968719720840454,10.048555374145508,0.06553009897470476,0.3011435866355896,-0.0269891656935215
4.266374111175538,0.5962158441543579,10.289155006408693,-0.03756313771009445,0.23656298220157626,0.05881454050540924
4.002124309539796,-0.35730838775634766,9.927711486816406,-0.1079986020922661,0.1627149730920792,0.13827726244926453
3.3708691596984863,-0.9508001804351807,10.1995849609375,-0.13711689412593844,0.059443794190883636,0.15172313153743747
3.6013305187225346,-1.6788426637649538,10.171211242675781,-0.145338773727417,-0.04069336876273156,0.10718821734189989
3.9318180084228516,-1.0596585273742676,10.039259910583498,-0.14861659705638888,-0.12435169517993927,0.06603022664785387
4.2935638427734375,-0.5599279403686523,9.911660194396974,-0.1685808748006821,-0.1703082472085953,0.07178561389446259
4.496340751647949,-0.5802210569381714,9.82666015625,-0.2133387476205826,-0.1751822829246521,0.10076119750738145
4.424489974975586,-0.6907214522361756,9.858577728271484,-0.24905519187450412,-0.1642964482307434,0.12689080834388733
4.220978736877441,-0.8912032842636108,9.845690727233888,-0.27623620629310613,-0.17678815126419067,0.13383750617504123
4.244762897491456,-1.1016238927841189,9.738882064819336,-0.2934062778949738,-0.20472897589206698,0.12543395161628723
4.415221691131593,-1.413377046585083,9.622378349304201,-0.29121956229209905,-0.21367761492729187,0.1197771802544594
4.313602924346925,-1.3062384128570557,9.523632049560547,-0.30183771252632147,-0.21504735946655273,0.1088952124118805
4.398423671722413,-1.2485244274139404,9.583475112915039,-0.31031715869903564,-0.22112892568111422,0.10894390940666199
4.336347103118897,-1.6937971115112305,9.514208793640138,-0.30200394988060003,-0.2181898504495621,0.10818466544151306
4.48957633972168,-1.7727204561233523,9.413393974304201,-0.27297788858413696,-0.2110114246606827,0.10722410678863525
4.497450828552246,-1.7463167905807497,9.353940963745117,-0.2412046939134598,-0.1699141263961792,0.11464069783687592
4.269756793975831,-1.5654739141464236,9.558097839355469,-0.22569772601127625,-0.15683974325656894,0.11672817170619965
4.233888626098633,-1.5138589143753054,9.580549240112305,-0.22171334922313693,-0.168786033987999,0.10701155662536621
4.400156497955323,-1.8143571615219118,9.285951614379883,-0.19866910576820374,-0.16003127396106723,0.08985674381256104
4.638653755187988,-1.5447077751159668,9.178942680358888,-0.1774309277534485,-0.12680564820766452,0.08292167633771898
4.57550859451294,-1.4518218040466309,9.326108932495117,-0.16684119403362277,-0.09656435251235962,0.09062691777944566
4.516552448272706,-1.7865660190582275,9.192281723022461,-0.15754801034927368,-0.07264485955238342,0.0929078832268715
4.322203636169434,-1.989373326301575,9.191858291625977,-0.13673396408557895,-0.05896409600973129,0.07781546562910081
4.283442020416261,-2.2884883880615234,9.220688819885256,-0.10606379806995392,-0.051378745585680015,0.05054119601845742
4.327700138092042,-2.3685562610626225,9.185720443725586,-0.05916639417409897,-0.03738348558545113,0.01899491250514984
4.3180036544799805,-1.9206433296203613,9.227293968200685,-0.026331055909395218,-0.03296906501054764,-0.001321001327596605
4.379932880401612,-1.709040880203247,9.337371826171875,-0.006906401365995407,-0.02475382946431637,-0.012417221441864967
4.572249412536621,-1.4357324838638308,9.233035087585451,-0.006682349368929863,-0.009024390019476415,-0.010470927692949774
4.159423351287843,-1.1115100383758545,9.429078102111818,-0.03542250394821167,-0.009093240834772589,0.006071129813790321
3.9988753795623784,-1.405790686607361,9.641914367675781,-0.06449667364358903,-0.048408996313810355,0.015514841303229332
4.041326522827148,-1.4923998117446902,9.360585212707521,-0.08510638773441315,-0.08734004944562913,0.007030215114355087
3.8442206382751465,-1.3795115947723389,9.603317260742188,-0.10524675995111467,-0.1452588438987732,-0.0007141815731301904
3.7684874534606934,-1.9162049293518066,9.750950813293459,-0.10185065120458604,-0.22682416439056396,-0.02798106335103512
3.9559886455535893,-2.1111924648284917,9.542287826538086,-0.07421351969242096,-0.31440871953964233,-0.08003378659486772
4.01188611984253,-1.503798007965088,9.592345237731935,-0.053425133228302,-0.38296875357627874,-0.11284692585468292
4.035440921783448,-1.4011149406433105,9.729917526245117,-0.05361618474125863,-0.45435917377471924,-0.12649866938591003
3.928480625152588,-1.7421582937240603,9.757632255554201,-0.05440139025449753,-0.5511860251426698,-0.15003183484077454
4.135920524597168,-1.2836140394210818,10.05718517303467,-0.06900689750909807,-0.6799767613410951,-0.17309865355491638
3.8948624134063725,-0.9318055510520936,9.890033721923828,-0.11983912438154222,-0.8046817779541016,-0.1778926104307175
3.965822696685791,-1.087308406829834,9.869412422180178,-0.16718934476375583,-0.991913914680481,-0.16237816214561462
3.4309191703796387,-1.4363540410995486,9.714288711547852,-0.1853153854608536,-1.2190792560577393,-0.15487523376941684
3.6933398246765137,-1.0414534807205202,10.05514144897461,-0.19051995873451233,-1.482163906097412,-0.14303828775882724
3.1091833114624023,-0.9841622114181519,10.012598991394045,-0.19875210523605347,-1.7884298563003542,-0.1555420160293579
4.108067512512207,-1.0074450969696045,10.083171844482422,-0.2501955032348633,-2.1068189144134526,-0.16960097849369052
4.013272285461426,-1.3194143772125244,9.522349357604982,-0.2689208984375,-2.3959228992462163,-0.17517095804214478
4.73359489440918,-1.1656372547149658,9.525798797607422,-0.3312670290470124,-2.6897022724151616,-0.19754618406295776
5.080658912658691,-1.4773716926574707,9.455258369445803,-0.36923885345458984,-2.9320914745330815,-0.22972634434700012
4.832500457763672,-1.5397005081176758,9.094367980957031,-0.3775627017021179,-3.2641861438751225,-0.26370939612388616
4.9404921531677255,-1.2734606266021729,9.741427421569826,-0.33911895751953125,-3.609094381332398,-0.3109479546546936
5.683040142059327,-4.532272815704347,10.612904548645021,-0.10638558864593506,-4.054509162902832,-0.3339602649211884
6.129086494445801,-3.156102180480957,10.340513229370117,0.07384683191776276,-4.480059146881104,-0.3130785822868347
7.742649078369141,-4.312225341796875,11.69219970703125,0.07348770648241044,-4.664732933044434,-0.34685665369033813
11.026196479797365,-4.27205514907837,13.14402961730957,0.017747486010193828,-4.647059440612793,-0.3219285905361176
12.044546127319336,-6.537912845611573,12.35821533203125,0.2884612381458283,-4.569735050201417,-0.40195852518081665
16.581192016601562,-6.279234409332276,13.259384155273438,0.7618520855903627,-4.423648834228516,-0.5620846152305604
22.291105270385746,-5.034063339233398,13.669331550598146,1.2047631740570068,-4.125028133392335,-0.7151165604591371
28.13675117492676,-2.1692309379577637,9.630210876464844,1.1528241634368896,-3.65670657157898,-0.9096829891204834
27.3251953125,-3.7042071819305424,3.6492762565612793,1.1537555456161501,-3.766884565353394,-1.3605635166168213
29.810535430908203,-3.7770173549652104,6.4555864334106445,1.4806672334671023,-3.6536617279052734,-1.649154305458069
28.43820381164551,-0.8293495178222656,4.385717391967773,1.4371354579925537,-3.76337742805481,-1.8111940622329714
41.01019668579102,-1.3386988639831543,17.704010009765625,0.6531805396080018,-3.267026901245117,-1.8973296880722048
29.786972045898438,-3.187847137451172,17.899503707885746,-0.032131548970937736,-1.6657706499099734,-1.6476378440856934
22.958505630493168,-3.4382321834564213,14.09858512878418,-0.7545682787895204,-1.051375150680542,-1.3332427740097048
18.414556503295902,-5.404804229736328,12.461864471435547,-0.9781093001365663,-0.7449018955230713,-1.2341008186340332
13.49068355560303,-6.849019527435304,10.892112731933594,-0.890750527381897,-0.7060222029685975,-1.1576807498931885
11.200321197509766,-8.005151748657227,11.505789756774904,-0.40063449740409857,-0.6752842068672181,-1.1664364337921143
7.974012851715089,-7.657686710357667,12.564815521240234,0.29310217499732977,-0.5098252296447754,-1.1698268651962282
6.165998935699464,-6.134234428405762,14.776622772216797,0.736349642276764,-0.23707503080368042,-1.113133192062378
4.448154449462891,-4.157584190368652,15.717371940612795,0.82000070810318,0.4108898639678955,-0.9514780640602113
0.3356905281543732,-3.15499210357666,13.404191970825195,0.8171027302742006,1.2140430212020876,-0.8716955184936523
-3.983184099197388,-2.5554840564727788,10.977551460266115,0.7357542514801025,1.7709149122238161,-0.8480303287506104
-6.084572792053223,-1.867962121963501,8.762544631958008,0.5356428623199463,2.1228573322296147,-0.7729728817939759
-8.276183128356935,-2.1535682678222656,5.723978519439698,0.3904057741165161,2.306158781051636,-0.6843264102935791
-9.476421356201172,-2.342774629592896,3.718114614486695,0.3006085753440857,2.3112916946411133,-0.5712017416954042
-9.73233413696289,-1.9599967002868652,2.8696107864379883,0.14552186429500583,2.21986722946167,-0.3611999452114106
-8.855142593383789,-1.7609186172485352,3.3718209266662598,-0.09079714119434357,2.1783893108367924,-0.11306893080472948
-7.462673187255859,-1.8422473669052126,4.432567596435547,-0.36588200926780706,2.3665170669555664,0.15787608921527865
-7.089937210083008,-2.0277981758117676,4.0766096115112305,-0.5256885290145874,2.703054428100586,0.4150590002536774
-7.464694976806641,-2.259170293807984,2.9265439510345463,-0.5809065699577333,2.9601383209228516,0.6596795916557313
-7.416849613189698,-1.833989977836609,1.6482697725296023,-0.581927239894867,3.0915255546569824,0.9052520990371704
-7.427942752838136,-1.1469495296478271,0.5466067194938661,-0.5768721103668213,3.113221406936646,1.1016569137573242
-6.511950492858887,-0.6620139479637147,0.7023904323577881,-0.6304003596305848,3.083443880081177,1.266167163848877
-4.784076690673828,-0.5810962915420532,1.722043752670288,-0.7008250355720521,3.1216697692871094,1.4250642061233523
-2.880210638046265,-0.0489969328045845,2.7277679443359375,-0.7560738325119019,3.285645723342896,1.5899602174758913
-1.4989553689956667,1.2204084396362305,2.5362606048583984,-0.8457282185554506,3.499962329864502,1.71582305431366
-0.11680345237255096,1.7867847681045534,1.885111451148987,-0.9311768412590028,3.6169950962066655,1.7136907577514648
1.983191728591919,2.502561569213867,2.293488025665283,-0.951424539089203,3.6425118446350098,1.6123229265213015
4.656650066375733,3.376301527023316,2.7888097763061523,-0.9715381860733032,3.6984531879425053,1.4409545660018923
7.094076156616211,2.7642569541931152,2.2534704208374023,-0.8828297257423402,3.749363422393799,1.17474901676178
8.442112922668459,2.2184042930603027,0.9278922080993652,-0.5975680351257324,3.6513586044311523,0.8721776604652406
9.97617816925049,2.7317733764648438,0.3716041743755341,-0.3591355979442597,3.369518756866455,0.5952702164649964
12.158555030822756,1.3470194339752197,0.4955776333808899,-0.23582693934440613,3.009386777877808,0.3971919715404511
14.73287868499756,-0.24290242791175842,1.3097467422485352,-0.008912454359233381,2.6232786178588867,0.3643998801708222
16.98929023742676,0.046862050890922546,1.6946040391922,0.1490031331777573,2.3057248592376713,0.47982287406921387
17.710792541503906,-0.1322508454322815,0.8702611923217773,0.21468698978424072,1.9928275346755984,0.6291811466217041
16.94695281982422,0.15040987730026245,-0.8151193857192993,0.3083066046237946,1.5578455924987793,0.7599656581878662
15.642506599426271,0.6185905933380127,-2.6681017875671387,0.41659116744995117,0.99457985162735,0.8116871118545532
14.284976005554201,0.8839463591575624,-4.152740955352784,0.5607510209083558,0.31013688445091253,0.8072201013565063
50.337745666503906,9.316154479980469,-7.117024898529054,-0.3251703381538391,-1.127491593360901,0.9171258211135864
65.37645721435548,24.294321060180668,44.854644775390625,-1.385602116584778,2.0763492584228516,-0.012503020465373993
3.0667943954467773,-5.898552417755128,7.515031814575195,-0.09286712855100633,2.364841938018799,-0.0436704345047474
-2.469155073165894,-3.734470844268799,12.247029304504396,-0.10728570818901062,2.2023744583129883,0.6846154332160951
-11.913890838623047,1.9314481019973757,12.915225982666016,0.013201137073338034,0.5209215879440308,0.24666966497898105
0.37815409898757935,-9.423081398010256,13.725224494934084,-0.12313824146986009,-0.1829548180103302,-0.5472120046615601
1.4975364208221436,-8.933427810668945,10.138844490051271,0.18172630667686462,-0.621866285800934,-0.7038130760192871
8.926783561706545,3.4980938434600835,9.601943969726562,0.14591190218925476,-0.6113190650939941,-0.5669553875923158
8.589860916137695,0.6013736724853516,7.63007688522339,0.1481961160898209,-0.18468257784843445,-0.3804678022861481
7.857156753540039,1.0558661222457888,8.665117263793945,0.06783232092857361,0.19816417992115024,-0.07320822030305864
4.772865772247315,-0.33225485682487493,9.75364398956299,0.014128572307527067,0.34735333919525146,0.06867890805006029
3.0235719680786133,-3.1465461254119877,10.090466499328615,0.04221052303910256,0.2638674676418305,0.026193324476480484
3.7515518665313725,-1.235733985900879,10.102349281311037,0.05203861370682717,0.13225752115249634,-0.03916698321700097
4.302669525146484,0.03066885471343994,10.098301887512209,-0.02316503413021565,0.05764830857515335,-0.019138097763061523
4.728960514068604,-0.2981070876121521,9.984476089477539,-0.11774564534425737,0.04956585913896561,0.07397743314504625
4.004552364349366,-1.0887281894683838,9.921692848205568,-0.1477397829294205,0.003864420345053077,0.10844217240810394
3.6602416038513184,-1.403506398200989,10.116700172424318,-0.16904619336128235,-0.07896780222654344,0.08617071807384491
3.865597009658814,-1.2976295948028564,10.048370361328125,-0.1860949993133545,-0.17474414408206942,0.050388764590024955
4.22991943359375,-1.252951264381409,9.599770545959474,-0.1904575973749161,-0.2189714014530182,0.0415748916566372
4.782832145690918,-1.0383799076080322,9.573478698730469,-0.19022473692893982,-0.24846616387367249,0.030620457604527477
4.643243789672852,-1.0000050067901611,9.587106704711914,-0.22671958804130554,-0.17661295831203463,0.1084132045507431
4.221841812133789,-1.5537409782409668,9.46688461303711,-0.21737352013587952,-0.21261613070964816,0.09099131077528001
4.39825439453125,-1.7561622858047488,9.595835685729982,-0.21268954873085022,-0.2636688649654389,0.03791004419326782
4.898539066314698,-1.278764009475708,9.756650924682617,-0.23458674550056458,-0.19629815220832825,0.10022439807653429
4.19571352005005,-2.0753273963928223,9.158411026000977,-0.16660527884960177,-0.2806937098503113,0.02292370237410069
4.795292377471925,-1.4937473535537722,9.559521675109865,-0.2076644152402878,-0.19530415534973145,0.0571758970618248
3.8430867195129395,-1.745528817176819,9.05586338043213,-0.18607290089130404,-0.17631939053535461,0.09064108878374101
4.935318470001222,-1.5226858854293825,9.873208045959474,-0.15348637104034424,-0.24775105714797974,0.03965652361512185
4.895362377166749,-1.4835577011108398,9.472768783569336,-0.19710965454578402,-0.15391823649406433,0.1116931661963463
4.065564632415772,-2.204095602035523,8.805912017822266,-0.09083011746406555,-0.19835276901721957,0.0345044992864132
5.214534282684327,-1.411811351776123,9.446146011352539,-0.12450741976499559,-0.127037912607193,0.04447311535477639
3.991406679153443,-1.749531388282776,8.722689628601076,-0.08539929986000061,-0.08144521713256836,0.07055719941854478
4.858246803283691,-1.7943514585494997,9.645357131958008,-0.05497543141245843,-0.1257602572441101,0.011920197866857054
4.912233829498292,-1.819124460220337,9.203022003173828,-0.07375200092792511,-0.025632200762629512,0.04681078717112542
4.0618863105773935,-2.1665725708007812,8.717697143554688,0.0009730711462907494,-0.027736779302358627,0.012893130071461202
4.8608136177063,-1.8409415483474734,9.30245590209961,0.005283596459776164,-0.014839173294603826,-0.01200203225016594
4.709869861602784,-1.4807482957839968,9.376047134399414,0.01601965539157391,0.025704707950353622,0.008010924793779852
4.289337635040284,-2.0953419208526616,9.175450325012209,0.03498656302690506,0.04098519310355187,0.0006930622621439398
4.285329341888429,-2.0623035430908203,9.312872886657717,0.05136096477508545,0.0073499851860106,-0.047426097095012665
4.509369850158691,-1.59055495262146,9.305717468261719,0.05098045244812966,0.03239628300070763,-0.044576019048690796
4.183868885040284,-1.7247512340545654,9.244275093078615,0.07110745459795,0.008608702570199966,-0.05668029561638833
4.142367362976074,-1.7630871534347536,9.605309486389162,0.0771501734852791,-0.019168153405189514,-0.08083146810531616
3.999031782150269,-1.7300620079040527,9.428117752075195,0.09804374724626543,-0.0799424797296524,-0.12804220616817477
4.033876419067383,-1.1923232078552246,9.71278190612793,0.09644272923469543,-0.14774668216705322,-0.15996356308460238
4.184937000274659,-1.0619122982025146,9.881981849670412,0.047695707529783256,-0.21608415246009827,-0.1513471752405167
4.214746475219727,-1.4364032745361328,9.576060295104982,0.012832607142627241,-0.283023476600647,-0.15129581093788147
4.2736921310424805,-1.0189671516418457,9.679283142089844,-0.0069019352085888394,-0.3556860089302063,-0.1598116308450699
4.293884754180909,-0.7252914309501649,9.935673713684084,-0.05104998871684075,-0.4416688978672028,-0.1177637130022049
3.64860200881958,-1.5437586307525635,9.516622543334961,-0.0557883344590664,-0.5868861675262451,-0.13826350867748263
3.7748911380767827,-1.9422991275787354,9.867061614990234,-0.05601554363965988,-0.7359784245491029,-0.17508719861507419
3.809432029724121,-1.7640066146850586,9.875053405761719,-0.02802667208015919,-0.9958338737487793,-0.24794508516788485
3.831000089645386,-1.1862114667892458,9.792579650878906,-0.11341486871242523,-1.1464595794677734,-0.2619772851467133
4.029589653015137,-1.1092264652252197,10.255328178405763,-0.16956481337547302,-1.3613556623458865,-0.27661222219467163
4.105874061584473,-2.0612471103668217,10.494108200073242,-0.15399704873561862,-1.5550899505615234,-0.2707236409187317
3.497743368148804,-1.6428896188735964,9.684329032897951,-0.041068766266107566,-1.8219094276428223,-0.27426293492317205
4.6904921531677255,-1.2294331789016726,10.186530113220217,-0.07461591809988023,-2.0398695468902592,-0.3021300435066223
4.649352550506593,-1.1473896503448486,9.847078323364258,-0.09537819027900696,-2.277526140213013,-0.31137025356292725
4.590045452117921,-1.1068228483200075,9.653297424316406,-0.0990361049771309,-2.563563823699951,-0.35089731216430664
4.694842815399171,-1.0461748838424685,9.582264900207521,-0.04342770576477051,-2.89665961265564,-0.40173137187957764
4.845882415771484,-0.4697615802288056,10.242808341979982,0.010853318497538567,-3.320859432220459,-0.39715674519538885
4.671603679656983,-1.0887452363967898,10.354126930236818,0.14413668215274814,-3.873067855834961,-0.36806818842887884
6.132677555084229,-2.3107309341430664,10.86665153503418,0.29069840908050537,-4.388784885406495,-0.3559199273586274
8.465382575988771,-2.466580390930176,12.525863647460938,0.2472306489944458,-4.675438404083253,-0.28618234395980835
11.446204185485842,-2.6722989082336426,13.573765754699709,-0.054151099175214774,-4.65418577194214,-0.13149142265319824
13.597463607788086,-4.979928493499757,13.553211212158203,-0.12540365755558017,-4.478699684143066,-0.116039015352726
19.244083404541016,-4.060258388519288,14.011144638061523,0.09726773202419281,-4.2018094062805185,-0.3145157396793366
24.13855743408203,-2.61457371711731,9.661951065063477,-0.13946436345577243,-3.946775436401367,-0.4380094707012177
26.298442840576172,-4.386212825775147,4.846679210662843,-0.2667652070522309,-3.781025648117066,-0.6829737424850464
27.66659736633301,-5.6560940742492685,3.1816635131835938,0.29348862171173096,-3.9289906024932866,-1.1136150360107422
26.31689453125,-4.09011173248291,2.3390607833862305,1.0220983028411865,-3.9823520183563237,-1.518583655357361
31.778156280517578,-0.17547905445098877,6.218317031860352,1.2087706327438357,-4.456335067749023,-1.967663645744324
34.15290069580078,-0.9881652593612671,16.40286445617676,0.7162214517593384,-3.573784828186035,-2.073752641677857
26.394899368286136,0.5088693499565126,14.665484428405763,-0.25392374396324163,-2.6452293395996094,-1.9052563905715945
24.334552764892578,-0.46990954875946045,15.428438186645508,-1.1249220371246338,-1.8963919878005984,-1.8989223241806032
20.456212997436527,-1.687692642211914,14.346597671508789,-1.8541635274887087,-1.1652030944824219,-1.829259753227234
15.72010135650635,-4.748538494110108,12.87240505218506,-2.2379016876220703,-0.5843604803085327,-1.7946826219558718
10.413995742797852,-9.77907466888428,10.953948974609375,-1.6675050258636475,-0.2771997153759003,-1.8445582389831543
6.432246208190918,-11.409333229064943,9.504144668579102,-0.2958727478981018,-0.25183346867561346,-1.8224600553512575
3.5168185234069824,-8.23811149597168,9.84544563293457,0.9651616811752319,-0.3517006933689118,-1.746553897857666
3.462369441986084,-4.337682723999023,11.557316780090334,1.32588529586792,-0.2346668541431427,-1.4805883169174197
2.4943892955780034,-2.139075756072998,12.232744216918945,1.031154274940491,0.1837485134601593,-1.1000384092330935
-0.35992610454559326,-2.4466836452484135,10.87655544281006,0.6116933226585389,0.7576866149902344,-0.7591508626937866
-3.8053250312805176,-3.417073488235474,8.737850189208984,0.4576902985572815,1.1470242738723757,-0.5534507036209106
-5.0560102462768555,-3.843230724334717,7.870879650115968,0.44662138819694525,1.3332611322402956,-0.3893239498138428
-5.134343147277832,-3.3309237957000737,7.712000846862793,0.473246842622757,1.5575201511383057,-0.18089948594570163
-5.509711742401124,-2.7715013027191167,7.742177486419679,0.3923413157463074,1.850640416145325,0.03660936281085015
-5.720278739929199,-2.041207551956177,7.91568660736084,0.133079931139946,2.197321891784668,0.3240844309329987
-6.24914312362671,-2.5777752399444585,6.971608638763429,-0.07305552810430528,2.610246896743775,0.6314862966537476
-8.100457191467287,-2.8282377719879155,4.564711093902589,-0.05216004699468613,2.9004042148590092,0.8747400045394897
-9.292963027954102,-1.718226671218872,2.2537426948547363,-0.007966590113937857,2.9216136932373047,1.0690999031066895
-9.23756217956543,-0.5880434513092041,1.6539604663848877,-0.08088932931423187,2.8120234012603764,1.225606918334961
-7.234027862548828,-0.2572390735149384,3.1683473587036133,-0.2956334948539734,2.824272632598877,1.388736128807068
-5.831804275512695,-0.7147300839424134,4.074599266052246,-0.4212650358676911,3.0739426612854004,1.5241349935531618
-5.675900459289551,-0.7765721082687378,3.5303955078125,-0.38565257191658026,3.348299503326416,1.5898799896240234
-4.745271682739258,0.3170165121555329,3.3883922100067143,-0.40193763375282293,3.516305923461914,1.638557553291321
-3.0996396541595463,1.5195729732513428,3.722957849502564,-0.5584056377410889,3.7130112648010254,1.6765104532241824
-1.540111780166626,2.1391503810882573,3.6913442611694336,-0.7299049496650697,3.9433884620666504,1.6485425233840945
-0.06095734238624573,2.0264585018157963,3.255424976348877,-0.7892806529998779,4.113408565521241,1.503228545188904
1.4454169273376465,2.458020925521851,2.8451001644134526,-0.7313501834869385,4.174425601959229,1.2703275680541992
3.2208225727081303,2.9923923015594487,2.4267418384552006,-0.6688384413719178,4.144357204437257,1.0306191444396973
5.042242050170898,3.1417365074157715,1.9476079940795898,-0.5944747328758241,4.032162666320801,0.8127487301826478
7.570013046264648,3.2317705154418945,2.152798652648926,-0.4986964464187622,3.8176243305206303,0.6256596446037294
11.59299087524414,2.2516410350799565,3.374451875686646,-0.4013822674751282,3.620313405990601,0.4699747562408447
14.286400794982912,0.9517042636871338,3.7055518627166752,-0.1869940161705017,3.4916234016418457,0.398412436246872
15.454382896423342,0.6189426183700562,3.0297110080719,0.03063729777932167,3.254914522171021,0.4332088232040405
16.638626098632812,-0.13084861636161804,2.507387161254883,0.15982893109321594,2.8827044963836674,0.5317052006721498
17.486932754516605,-0.6128001809120179,2.2407002449035645,0.2822529673576355,2.4893190860748295,0.6858009099960327
16.857715606689453,-0.4266872704029084,0.7035453915596009,0.30899801850318914,2.0877497196197514,0.8916664123535156
15.233438491821289,-0.5794292688369751,-1.1476479768753054,0.16852535307407382,1.5821309089660645,1.2021526098251345
12.094339370727539,-0.4649147391319275,-4.715845584869386,-0.018698018044233322,0.9555602669715882,1.5392538309097292
59.5287208557129,4.807477474212647,4.039330005645753,-1.8087409734725954,-1.2717835903167725,1.9870980978012087
59.43379211425781,29.12343788146973,30.4361743927002,-0.7551518082618714,2.192102193832398,0.25149524211883545
-1.7413424253463747,-10.95277214050293,12.262278556823732,0.19868458807468417,1.460831642150879,0.19768162071704867
-3.9984164237976074,-11.309105873107912,9.08950710296631,-0.044776514172554016,1.212095618247986,0.7306507229804994
-9.284505844116211,4.847506046295167,9.186398506164553,-0.16915835440158847,-0.158023864030838,0.2865756452083588
6.1279873847961435,-4.5163068771362305,15.542156219482422,-0.3062596917152405,-0.33122336864471436,-0.4351769387722016
0.946403980255127,-9.317089080810547,6.900376796722413,-0.013972297310829163,-0.7606660723686219,-0.4337695240974426
10.066878318786623,4.451918601989746,10.557456970214844,-0.005901052616536617,-0.5156015753746034,-0.3875694572925568
8.62112808227539,0.6337207555770874,8.088746070861818,-0.09352741390466691,0.009625514969229698,-0.08555648475885393
5.7801527976989755,-1.9978402853012087,8.71690082550049,-0.04523176699876785,0.3267251253128052,0.10183583945035936
4.110430240631104,-1.0290375947952273,10.067650794982912,-0.06722994148731232,0.40615382790565496,0.14153781533241272
3.0184125900268555,-2.2667610645294194,10.064529418945312,-0.03908677399158478,0.2930453717708588,0.10909386724233629
4.115975856781007,-1.9232808351516726,10.033872604370117,-0.040392782539129264,0.21843650937080383,0.07612461596727373
4.625520706176758,-1.5411320924758913,9.627275466918945,-0.03406504541635513,0.22152864933013916,0.09693659096956254
4.436896324157715,-1.255422830581665,9.708505630493164,-0.031041296198964122,0.23897889256477356,0.11477730423212053
3.789095401763916,-1.4111084938049316,9.86431884765625,-0.048709470778703697,0.22261345386505127,0.12553930282592773
3.038169622421265,-1.7543785572052002,10.191915512084961,-0.06316439807415009,0.13813872635364535,0.10200384259223938
3.2298755645751953,-1.7822421789169314,10.12578010559082,-0.08309710025787354,0.02874334156513214,0.049150843173265464
3.805551528930664,-1.6712447404861452,9.7988977432251,-0.08275058120489122,-0.02739190310239792,0.009690529666841032
4.5135560035705575,-1.3798506259918213,9.71805191040039,-0.08336349576711656,-0.03236500918865204,0.02405770868062973
4.125870704650879,-1.3566040992736816,9.453470230102539,-0.10580041259527208,-0.010931847617030144,0.06505476683378221
4.712893486022949,-1.2126500606536865,9.94406032562256,-0.11898189783096313,-0.03354758024215698,0.06696254760026933
4.078461647033691,-1.3702867031097412,9.834245681762695,-0.1510206311941147,0.011509006842970848,0.15780560672283175
3.7252976894378667,-1.5962988138198855,9.826578140258789,-0.15776665508747104,-0.030662845820188522,0.15295109152793884
3.92475438117981,-1.7978836297988894,9.749382019042969,-0.1632892340421677,-0.11972129344940186,0.05968884751200677
4.3066558837890625,-1.0276765823364258,9.784327507019045,-0.20147579908370972,-0.04742071032524109,0.13949142396450046
4.088767051696777,-1.4528937339782715,9.80840587615967,-0.17963032424449923,-0.05697488784790039,0.16073073446750644
3.466221809387207,-2.114953756332398,9.431131362915039,-0.19071735441684726,-0.12515601515769958,0.06692841649055481
4.5927324295043945,-1.4817000627517702,10.025975227355959,-0.23560218513011935,-0.06323206424713135,0.11855796724557878
3.9371042251586914,-2.2032737731933594,9.377419471740724,-0.1470240354537964,-0.136677086353302,0.06166412308812142
4.381936550140382,-1.8176237344741824,9.62286376953125,-0.1685824692249298,-0.05434055998921395,0.10573598742485046
3.1720333099365234,-2.715827465057373,8.565362930297852,-0.11304101347923279,-0.029885163530707363,0.07523325830698015
5.120424747467042,-1.9460315704345703,9.96520519256592,-0.08989300578832628,-0.04087449610233307,0.0340760461986065
3.9955422878265385,-1.9817053079605105,9.019171714782717,-0.04585294052958489,0.043559629470109947,0.06692405045032501
4.589523792266847,-2.048363208770752,9.640583038330078,-0.0014341992791742086,0.00556069938465953,0.021901383996009827
4.302707672119141,-2.0463438034057617,9.319613456726076,-0.029962070286273956,0.11689043790102006,0.09284358471632005
3.9979052543640137,-2.308316707611084,9.300020217895508,0.01987610571086407,0.08578038215637207,0.0427326150238514
4.152068138122559,-2.04896092414856,9.316385269165039,0.04997781291604043,0.09860593825578691,0.014065824449062347
4.26088809967041,-1.5640196800231934,9.543555259704592,0.02424030378460884,0.145847961306572,0.07306428253650665
3.6325562000274663,-2.1894097328186035,9.45383930206299,0.039501942694187164,0.14145468175411227,0.06756951659917833
3.535044431686402,-2.048123836517334,9.492084503173828,0.0426887832581997,0.09698237478733063,0.020718837156891826
3.789297103881836,-1.6894893646240234,9.806368827819826,0.034252263605594635,0.09635265171527863,0.03334860131144524
3.6093070507049565,-2.1826388835906987,9.540101051330568,0.07164574414491655,0.01854054629802704,-0.02362638153135777
4.331089973449707,-1.5037815570831299,9.78805923461914,0.04130059853196145,0.044603750109672546,-0.01291385293006897
4.299728870391847,-1.4336013793945312,9.704240798950195,0.03335161507129669,0.06662768870592119,0.009258529171347618
4.05860185623169,-1.6182911396026611,9.644432067871094,0.010950629599392416,0.09185085445642473,0.03873318433761597
4.103870868682862,-1.8149652481079102,9.591807365417482,0.0004676538519561291,0.10857888311147691,0.03996625542640686
4.006178855895996,-1.8742100000381472,9.558475494384766,0.01303402427583933,0.11448481678962708,0.04932040721178055
3.93963623046875,-1.7787607908248904,9.447062492370607,0.016725568100810054,0.11328436434268951,0.03695892915129662
3.3217284679412846,-1.7805054187774658,9.418971061706545,0.00030802391120232647,0.08653791993856431,0.03423058241605759
3.0050082206726074,-1.7604345083236697,9.836610794067383,-0.03141810745000839,0.01491686422377825,0.02489752322435379
2.8033456802368164,-2.1495566368103027,9.517740249633789,-0.03974665701389313,-0.08504547923803331,-0.01238618139177561
2.5293743610382085,-2.2498207092285156,9.771100997924805,-0.044928744435310364,-0.22014306485652926,-0.057737767696380615
3.3629708290100098,-2.138321161270142,9.838382720947266,-0.03341431543231011,-0.33618262410163885,-0.11145879328250885
3.56610655784607,-1.6686381101608279,9.827260971069336,-0.04672925919294357,-0.3834901154041291,-0.13248339295387268
2.959287166595459,-1.8315469026565554,9.590557098388672,-0.05326535180211068,-0.45241421461105347,-0.16395193338394165
3.50519871711731,-2.084781885147095,10.127900123596193,-0.04771929234266281,-0.5555308461189271,-0.20302748680114746
4.039968967437745,-1.9780383110046387,9.994037628173828,-0.03946635127067566,-0.6027171611785889,-0.23283480107784274
4.137507915496827,-1.4595162868499756,9.643270492553711,-0.06266590207815172,-0.6288808584213257,-0.2359554320573807
4.228498935699464,-1.0688273906707764,9.750982284545898,-0.11077897995710374,-0.6684036254882812,-0.21075758337974548
4.319531440734863,-0.6815420985221864,10.210015296936037,-0.19200235605239868,-0.7558085322380067,-0.16083359718322754
4.0178422927856445,-0.8399997353553773,10.318548202514648,-0.28301090002059937,-0.8611446619033813,-0.12176553159952165
4.1331753730773935,-0.5526007413864136,10.548644065856935,-0.37508684396743774,-0.9976579546928407,-0.10617223381996155
4.0723843574523935,-0.8190603256225586,10.224024772644045,-0.49768340587615967,-1.1447631120681765,-0.0718657746911049
3.220885515213013,-1.4728966951370241,10.07340717315674,-0.5587369203567505,-1.4409712553024294,-0.09705615043640137
2.661404609680176,-1.645668148994446,10.037527084350586,-0.564353346824646,-1.7954115867614746,-0.034183133393526084
2.4972176551818848,-1.2302803993225098,10.281226158142092,-0.6167134642601014,-2.190225124359131,-0.09479793161153795
3.648481845855713,-1.8334259986877441,10.490784645080568,-0.533016562461853,-2.6455085277557377,-0.16366501152515414
2.8015143871307377,-2.5647225379943848,10.31039333343506,-0.4672800302505493,-3.037589311599732,-0.27365612983703613
3.108918428421021,-2.9047975540161133,10.128638267517092,-0.22652803361415866,-3.567241430282593,-0.3286516070365906
3.8508992195129395,-3.037718534469605,10.296714782714844,-0.1623445749282837,-4.149871349334718,-0.4226806163787842
4.958354473114015,-4.34144401550293,10.510378837585451,0.007833661511540413,-4.656157970428468,-0.5759460330009462
6.016138076782227,-4.874373435974121,11.029977798461914,0.19321265816688538,-5.051500797271729,-0.6656038761138916
7.764534950256348,-5.411585330963136,12.407106399536133,0.2070527970790863,-5.230775833129883,-0.6565950512886048
11.182138442993164,-5.2455902099609375,13.984582901000977,0.20874483883380893,-5.178112030029297,-0.61983460187912
14.903555870056154,-8.091723442077638,13.010141372680664,0.6092636585235596,-5.119493961334229,-0.7777604460716249
23.840528488159183,-6.428858280181886,13.891701698303224,1.3119497299194336,-4.823745250701905,-0.9600048065185547
27.644329071044922,-3.5641577243804936,7.848151206970215,1.3104101419448855,-4.468085765838624,-1.2461092472076416
27.49431419372559,-4.016919612884522,2.7463059425354004,1.0993196964263916,-4.5111145973205575,-1.5099327564239502
30.327842712402344,-6.569461822509766,3.7580714225769043,1.4542553424835205,-4.561431407928468,-1.8041185140609743
26.529258728027344,-4.654284000396729,0.8644610643386841,1.8105695247650146,-4.707056522369386,-1.9159975051879883
37.264606475830085,-0.935312330722809,8.468098640441896,1.569554686546326,-4.954086780548097,-2.1270394325256348
33.35242462158203,-1.677136540412903,15.413713455200195,0.9891690015792847,-3.5935642719268803,-2.042177200317383
26.684703826904297,0.3497577607631684,13.805151939392092,-0.16300469636917114,-2.758175134658814,-1.7083154916763308
24.231424331665043,-0.8563663363456727,14.476263046264648,-1.15910542011261,-1.9659826755523682,-1.5757611989974978
18.245697021484375,-2.2044105529785156,12.711062431335451,-1.8341253995895388,-1.3847316503524782,-1.5054171085357666
14.586026191711428,-4.371520519256593,11.885182380676271,-2.149364471435547,-1.004226088523865,-1.5168633460998535
10.673362731933594,-8.154126167297365,11.317814826965334,-1.8260356187820437,-0.6980056762695312,-1.475088357925415
7.207189559936523,-9.725591659545898,11.184149742126467,-0.8065097332000732,-0.48924669623374945,-1.3859589099884033
4.348929405212402,-7.8955960273742685,12.002469062805178,0.282977968454361,-0.27042886614799505,-1.24127197265625
2.773754596710205,-4.748226165771484,13.33894443511963,0.8625863194465638,0.07618622481822968,-1.0370343923568728
0.992106556892395,-1.8953241109848025,13.541980743408203,0.8473873734474183,0.695550799369812,-0.7596949338912964
-2.562233686447144,-0.8718457221984863,12.12828254699707,0.5892291069030762,1.3942111730575564,-0.5708637237548828
-5.498852252960206,-0.8330498337745668,10.143753051757812,0.3258219659328461,1.9176818132400515,-0.49901700019836426
-7.231684207916261,-1.5542291402816775,8.333921432495117,0.20744895935058594,2.2474691867828374,-0.5096249580383301
-8.490313529968263,-1.7586437463760378,6.579919338226319,0.23672768473625183,2.4664747714996342,-0.5167466998100282
-8.652052879333498,-1.8127020597457888,6.116947650909425,0.22797207534313205,2.5750575065612793,-0.48033413290977484
-7.820274829864503,-1.8526402711868288,6.933087825775147,0.0956389829516411,2.780488729476929,-0.2953929901123047
-8.835454940795898,-2.459116697311402,5.382275104522706,0.029946941882371902,3.15436339378357,-0.08124513924121857
-11.032278060913086,-2.251961946487427,2.580753564834595,0.030614856630563736,3.319654226303101,0.08834228664636613
-11.83760166168213,-1.1157214641571045,0.45611608028411865,-0.09738628566265106,3.212718725204468,0.2475648820400238
-10.784158706665039,-0.6635974049568177,0.6325750350952148,-0.3905877768993378,3.027328729629517,0.41967445611953735
-8.320650100708008,-1.6675705909729004,2.409295082092285,-0.6844511628150941,3.055542469024658,0.6348710656166078
-6.928745269775391,-2.2045435905456543,2.949535846710205,-0.7622227668762207,3.2974879741668706,0.8306941390037538
-6.216119766235352,-1.557213306427002,2.7719101905822754,-0.7936642765998841,3.5438551902770996,1.017226815223694
-5.161034107208253,-0.3940489590168,2.1682832241058354,-0.9187803864479066,3.7410166263580327,1.2170870304107666
-3.731340646743775,-0.07800249755382538,1.7312519550323486,-1.0570312738418581,3.8550949096679688,1.3951255083084109
-2.405227899551392,0.9259940385818481,1.5293447971343994,-1.1174453496932986,3.8811612129211426,1.5396544933319092
0.08300646394491197,2.414846420288086,2.367656707763672,-1.224959373474121,3.9016282558441167,1.593465805053711
3.023487806320191,3.041394948959351,3.2180819511413574,-1.3132160902023318,3.969013929367066,1.5454466342926025
6.594052314758301,3.5442872047424316,4.1009230613708505,-1.316234827041626,4.042625904083253,1.4194705486297607
10.484025955200195,2.86656403541565,4.170845985412598,-1.182593822479248,4.110478878021241,1.2336281538009646
13.437657356262209,2.2555084228515625,3.1083867549896245,-0.8530911803245546,4.048586845397949,1.0347450971603396
15.321611404418945,2.0154199600219727,1.5542843341827393,-0.498551219701767,3.7673523426055913,0.861907958984375
16.69652557373047,1.679107666015625,0.6618699431419374,-0.23289118707180026,3.2826123237609863,0.7855011820793153
18.484571456909183,1.592142701148987,0.41181033849716187,-0.05983946099877358,2.7272963523864746,0.8172862529754639
19.137943267822266,1.2697811126708984,-0.803377628326416,0.09870105981826782,2.1528198719024663,0.8763329982757568
17.628250122070312,1.3984445333480837,-2.9862573146820073,0.2665995657444001,1.4801551103591921,0.9199819564819336
14.363011360168459,1.4500524997711182,-5.922246932983398,0.3414245545864106,0.6400183439254761,1.0296789407730105
22.48016166687012,6.950830936431886,-13.264456748962404,-0.09447330236434937,-0.5645671486854554,1.3807767629623415
105.73528289794923,20.421609878540043,65.1413040161133,-2.6223099231719975,0.053612805902957916,0.7577205300331117
-10.156364440917969,1.3502875566482546,-15.228329658508303,-0.13342136144638062,3.4118242263793945,-0.2688125669956208
4.834269046783448,-12.800422668457031,15.469743728637695,0.2093407064676285,2.303223133087158,0.8893644213676454
-11.814532279968263,3.5520949363708496,12.198259353637695,0.13914294540882113,0.891039252281189,0.4052324891090393
-3.0535812377929688,-4.773191452026367,13.885404586791992,-0.08847639709711076,0.07396304607391357,-0.3810510337352753
0.7069043517112733,-9.179876327514648,11.075632095336914,0.018098656088113785,-0.5438312292098999,-0.600830376148224
7.714541912078858,2.958784580230713,10.655460357666016,0.10183724761009216,-0.7759744524955751,-0.62675940990448
8.499619483947756,0.8180967569351196,7.577646732330323,-0.027893628925085068,-0.3795961439609528,-0.34552535414695745
8.232544898986818,-0.9781793355941772,7.887849807739258,0.01590870134532452,0.022935248911380768,-0.08420900255441667
5.337400436401367,-0.7541846036911011,9.218635559082031,0.018491873517632488,0.3060008585453034,0.050344161689281464
3.504937887191773,-2.1620359420776367,9.835177421569826,0.05349716544151306,0.29482504725456243,0.038363538682460785
3.8080148696899414,-1.7058122158050537,10.022056579589844,0.04901382327079773,0.20242454111576083,0.0010213471250608566
4.313944339752198,-0.9372396469116211,9.822117805480959,0.01351155247539282,0.14283394813537598,0.0023149636108428244
4.629550933837891,-0.6339719891548158,9.853055000305178,-0.05464040860533715,0.1421923786401749,0.06649595499038696
4.158438205718995,-1.32723343372345,9.732583999633789,-0.08596265316009521,0.12760172784328463,0.09708936512470245
3.541070699691773,-1.6126228570938113,10.0194091796875,-0.10272962599992753,0.061513885855674744,0.0762951523065567
3.45039701461792,-1.4597533941268923,10.283684730529787,-0.12127167731523515,-0.05896933376789093,0.04801938310265542
3.828176498413086,-1.690930247306824,9.830461502075195,-0.13798861205577853,-0.13669876754283908,0.029898755252361298
4.4764204025268555,-1.2343506813049316,9.601278305053711,-0.1453596502542496,-0.15906605124473572,0.0285287369042635
4.091588497161866,-1.3203306198120117,9.253405570983888,-0.154328852891922,-0.16709224879741671,0.03373634442687035
4.539279460906983,-0.827134668827057,10.172854423522951,-0.20078787207603455,-0.18027181923389438,0.06893520057201385
4.196130752563477,-1.7586889266967773,9.846732139587404,-0.20248706638813022,-0.2094114571809769,0.09587040543556213
4.029934883117676,-1.7851501703262331,9.734753608703615,-0.17955854535102844,-0.2956285774707795,0.032119229435920715
4.574362754821777,-1.1979856491088867,9.665432929992678,-0.23693972826004028,-0.25313916802406317,0.09175515919923784
4.58480167388916,-1.627748727798462,9.38400173187256,-0.19708234071731567,-0.25890681147575384,0.09087611734867096
4.951241493225098,-1.6443490982055664,9.439171791076662,-0.2023078203201294,-0.24990499019622803,0.06632155925035478
4.200161933898926,-1.6009370088577273,9.074691772460938,-0.2165457308292389,-0.18802709877491,0.130687415599823
4.899757385253906,-1.3497345447540283,9.87924575805664,-0.1932231038808823,-0.21500256657600403,0.11424665153026581
4.495234489440918,-1.565394639968872,9.49323844909668,-0.23688408732414246,-0.15798167884349826,0.17976900935173035
4.216329097747804,-1.7697138786315918,9.388981819152834,-0.2047204822301865,-0.26688256859779363,0.07975161075592041
4.879487991333008,-1.7298154830932617,9.262917518615724,-0.273918092250824,-0.1322986036539078,0.19420066475868225
4.46920108795166,-2.158580541610718,8.98118305206299,-0.18470823764801025,-0.1344319134950638,0.16117228567600253
3.8351790904998784,-2.5118789672851562,8.723043441772461,-0.15277838706970215,-0.22545345127582553,0.03236066550016403
4.736402034759522,-1.7514286041259766,9.347628593444826,-0.1938615590333939,-0.1266218274831772,0.08427070081233978
4.941116809844972,-1.8005410432815554,9.53386116027832,-0.14612130820751193,-0.12797409296035767,0.09382600337266923
4.480552673339844,-2.596361875534058,9.005311012268068,-0.11055736988782884,-0.04894857108592987,0.08746686577796936
4.097797870635987,-2.6885936260223393,8.430549621582031,-0.0712205693125725,-0.017139606177806854,0.03442030772566796
5.2891554832458505,-1.6032975912094118,9.420842170715334,-0.03181731700897217,-0.022369053214788437,-0.0012485346524044873
4.395442962646484,-1.9648058414459229,8.964372634887695,-0.023978732526302338,0.05917854979634286,0.06312587857246399
3.9557311534881596,-2.2699995040893555,9.275933265686037,-0.009134810417890549,0.018943233415484432,0.03007244504988194
4.233976364135742,-2.1240255832672124,9.53082275390625,-0.032235145568847656,0.012584838084876539,0.008856944739818573
4.03514051437378,-1.7151243686676025,9.455581665039062,-0.01037623453885317,-0.04097783192992211,-0.013973331078886986
4.294895172119141,-1.5677416324615479,9.536109924316406,-0.03537318482995034,-0.08656343817710876,-0.011124487034976484
4.39613962173462,-1.6347342729568484,9.429166793823242,-0.05360379070043564,-0.11628810316324235,-0.013655212707817556
4.38014841079712,-1.6894943714141846,9.467719078063967,-0.06772790104150773,-0.1391165554523468,-0.018889328464865688
4.239974021911621,-1.7225613594055176,9.358980178833008,-0.08670483529567719,-0.16462507843971252,-0.024126583710312847
4.0937466621398935,-2.116343259811402,9.359209060668945,-0.06429380178451538,-0.22083891928195956,-0.07100881636142731
4.169994831085206,-2.243633031845093,9.325567245483398,-0.042903922498226166,-0.25814726948738104,-0.09629844874143602
4.029879093170167,-2.1732964515686035,9.278593063354492,-0.020355576649308208,-0.30333977937698364,-0.13128672540187838
4.146465778350831,-2.199640512466431,9.388962745666506,-0.01470838114619255,-0.3631103038787842,-0.17658619582653048
4.522984981536866,-1.9489474296569824,9.49633312225342,-0.015077857300639153,-0.42368212342262274,-0.19891178607940674
4.518702030181886,-1.5313557386398318,9.730902671813967,-0.03546411544084549,-0.48224899172782904,-0.19900454580783847
4.33487606048584,-1.3550521135330202,9.859092712402344,-0.061645563691854484,-0.5761721134185791,-0.17372615635395053
3.7799637317657475,-1.444956421852112,10.056652069091797,-0.10007418692111969,-0.7517935037612915,-0.16283236443996432
3.4701826572418217,-1.500688672065735,9.943546295166016,-0.12101031094789506,-1.0331544876098633,-0.17021976411342624
3.9827685356140137,-1.0285378694534304,10.382734298706055,-0.21214011311531067,-1.265210032463074,-0.17021150887012484
3.2606670856475835,-2.1566858291625977,9.638493537902834,-0.24223951995372775,-1.5358037948608398,-0.24022735655307773
3.5368325710296635,-1.4965720176696777,9.779518127441406,-0.25472322106361395,-1.8266903162002566,-0.26584166288375854
4.471505165100098,-1.0328668355941775,10.207831382751467,-0.32549932599067694,-2.137755870819092,-0.33606854081153875
4.010352611541749,-3.4476771354675293,9.782686233520508,-0.19836001098155978,-2.3779706954956055,-0.4136768579483032
4.265407085418702,-0.9949728846549989,9.932400703430178,-0.12173274159431458,-2.748275518417359,-0.40585774183273315
4.379888534545898,-1.8077067136764529,10.22252082824707,-0.06413831561803819,-3.1618845462799077,-0.44704341888427734
4.559190273284913,-2.3874180316925053,10.59876823425293,0.08055053651332855,-3.6260635852813725,-0.48032069206237793
4.895881652832031,-3.8275279998779297,10.225852966308594,0.23683406412601474,-4.107255935668945,-0.5872988700866699
6.120014667510987,-3.587288141250611,10.716843605041506,0.3073053061962128,-4.5194854736328125,-0.63256174325943
8.630382537841797,-3.640065431594849,12.128063201904297,0.2920618951320649,-4.713146686553956,-0.5791736841201782
10.848791122436523,-3.7227702140808105,12.693445205688477,0.2555777728557587,-4.62751579284668,-0.5471373200416566
13.408371925354006,-5.056728363037109,12.944267272949219,0.43052241206169134,-4.544525146484375,-0.6171473264694214
18.76183319091797,-5.659618377685547,14.562609672546388,0.7410261631011963,-4.261041164398194,-0.7636172771453857
23.11456108093262,-3.24454140663147,11.49325180053711,0.8538049459457397,-3.9157280921936035,-0.8769684433937074
24.34165763854981,-4.436899185180664,6.11257266998291,0.7945431470870972,-3.75202488899231,-1.095503330230713
25.300001144409183,-3.110246181488037,3.3976011276245117,1.1603368520736697,-3.9383463859558105,-1.4923269748687744
24.808423995971683,-1.387876033782959,3.74117922782898,1.209061622619629,-4.058632373809815,-1.6994884014129639
27.301815032958984,0.7820709347724916,3.7764205932617188,0.9741876125335693,-4.556962013244629,-1.9553333520889284
35.699291229248054,-1.2608419656753542,15.360052108764648,0.38473710417747503,-4.020295143127441,-2.0168321132659917
26.331031799316406,-1.2406203746795654,14.175338745117188,-0.3652692437171936,-2.9137294292449956,-1.77633011341095
24.38021469116211,-2.1678032875061035,14.66819477081299,-0.9997071027755737,-2.257606744766236,-1.7049295902252197
20.547487258911136,-3.259365797042847,14.510936737060547,-1.4446476697921755,-1.6333972215652468,-1.6410763263702393
17.637149810791016,-4.941835403442383,13.769142150878906,-1.6975311040878298,-1.0697181224822998,-1.5735448598861697
13.361941337585451,-7.959958076477051,12.154865264892578,-1.387319564819336,-0.5416619181632997,-1.4902592897415163
8.779930114746094,-8.889795303344727,10.571139335632326,-0.5815164446830751,-0.272047221660614,-1.4591673612594607
5.972354412078858,-8.01418972015381,10.040580749511719,0.21672338247299194,-0.14155441522598267,-1.3388050794601443
3.706226348876953,-5.910317897796632,10.072954177856445,0.7577254176139833,-0.008700279518961906,-1.1578589677810671
2.603207588195801,-3.827237606048584,10.651494026184084,0.8586129546165467,0.2681422233581543,-0.9331915378570557
1.2464147806167605,-2.7840912342071538,10.39415168762207,0.6552464365959169,0.7475583553314209,-0.661801040172577
-1.4509942531585693,-2.8249659538269043,8.901775360107422,0.480346143245697,1.2162723541259766,-0.4589249789714814
-3.539932489395142,-2.955106735229492,7.425417900085449,0.3920782804489136,1.4958826303482058,-0.32643699645996094
-3.9452211856842045,-2.938579320907593,6.996794223785401,0.3029457032680512,1.6975617408752441,-0.1868005394935608
-4.309453487396241,-2.9453999996185307,6.473820686340332,0.26695674657821655,1.960928559303284,0.0055566467344760895
-4.992892265319824,-3.283178567886353,5.883768081665039,0.23986224830150607,2.160115480422974,0.19735842943191528
-5.35936164855957,-2.987062215805054,5.405583381652832,0.23850393295288086,2.35789704322815,0.45698124170303345
-5.8056535720825195,-2.953076601028443,4.600128650665284,0.21345579624176025,2.569316148757935,0.7076694369316102
-5.672525405883789,-2.4811427593231206,4.196692943572999,0.13719485700130465,2.748223304748535,0.9397314190864564
-5.065204620361328,-1.761791706085205,3.9533143043518066,-0.05777233466506005,2.9676487445831303,1.1761465072631836
-5.216472148895265,-1.8110798597335818,2.959030389785767,-0.24962705373764038,3.200471162796021,1.3797943592071533
-5.608532905578613,-1.5806928873062136,1.598957657814026,-0.35667169094085693,3.298528909683228,1.5562368631362917
-5.508626937866211,-0.5876196026802064,0.8207710981369019,-0.4631089270114899,3.27797794342041,1.6780713796615603
-3.6303439140319824,-0.48212686181068426,2.0578148365020756,-0.6347290277481079,3.2683234214782715,1.756864666938782
-1.9303823709487917,-0.6991797685623169,2.9089658260345463,-0.7030370235443115,3.440592527389527,1.8159675598144531
-1.288678050041199,0.126427635550499,2.4614062309265137,-0.6905165910720825,3.6381556987762456,1.8339744806289675
-0.382152795791626,1.064856767654419,1.6236938238143923,-0.7480298876762391,3.7171568870544434,1.8000122308731081
1.016642212867737,1.4387826919555664,1.1583675146102907,-0.8046310544013978,3.7195904254913335,1.71038818359375
2.4633140563964844,1.373218894004822,1.171628475189209,-0.7829340696334839,3.6928174495697026,1.5851402282714844
4.278281211853027,1.3037109375,1.4546151161193848,-0.6809404492378236,3.6769895553588867,1.4515349864959717
6.214656829833984,1.7125983238220215,1.5912234783172607,-0.5423159599304199,3.6493270397186284,1.323258876800537
8.740737915039062,2.5535974502563477,1.6875896453857422,-0.4834741950035095,3.5674047470092773,1.1894379854202273
11.515757560729982,2.61799168586731,1.5773167610168457,-0.4694034457206726,3.4360349178314213,1.0119552612304688
14.095439910888672,1.8198043107986452,0.9438536167144775,-0.33101433515548706,3.2230150699615483,0.824640452861786
15.78709125518799,1.821491003036499,0.15995369851589206,-0.126850500702858,2.874634265899658,0.6983713507652284
16.618804931640625,1.8876150846481325,-0.3588148355484009,0.04584330692887307,2.4145157337188725,0.6235604286193848
16.40936279296875,1.9855670928955078,-0.7948440909385682,0.22259804606437683,1.9131115674972536,0.5607128143310547
15.312639236450195,2.3391337394714355,-1.5647865533828738,0.46978235244750977,1.4087630510330202,0.4707652628421784
12.687686920166016,3.236110210418701,-3.14242959022522,0.7102295756340028,0.8438448905944824,0.37527808547019964
7.395773887634277,4.608017444610597,-7.5941176414489755,0.7874092459678651,0.13240890204906466,0.3253195285797119
50.449596405029304,8.529248237609865,-3.7425966262817383,-0.06308468431234361,-1.879366397857666,0.02698701806366444
39.77479553222656,17.757577896118168,30.439613342285156,-1.8009854555130007,4.055814743041992,0.4641849994659424
10.835123062133789,-13.728225708007812,13.762673377990724,0.07194440811872484,2.5999679565429688,0.1331809610128403
-11.394906997680664,-1.5054489374160769,10.846399307250977,0.3668127357959748,2.638294935226441,1.135688304901123
-7.975393772125245,2.1781613826751713,19.306283950805668,-0.08552617579698564,0.8569289445877075,0.35296389460563665
-3.2941389083862305,-8.518003463745117,13.137488365173342,-0.11730755865573883,-0.5524819493293763,-0.41919019818305975
2.5368189811706543,-0.6503772735595703,10.42254638671875,-0.21240536868572238,-0.9379382133483887,-0.5787513852119447
12.257080078125,-0.05547180771827698,7.762837886810304,-0.11957381665706635,-0.7094733715057373,-0.48969545960426336
9.255447387695312,-1.0932377576828005,6.342232704162598,-0.019908782094717026,-0.09933217614889146,-0.06930458545684814
5.95074224472046,-2.169734477996826,8.329871177673342,0.06846004724502563,0.3945572674274445,0.10486973077058794
2.822500705718994,-1.6318063735961914,10.142209053039553,0.07978344708681108,0.378146231174469,0.0706503912806511
3.0120248794555664,-2.3871493339538574,10.309226989746094,0.06417761743068695,0.202427476644516,-0.01608969829976559
4.378918647766113,-1.3080177307128906,9.794898033142092,0.049331262707710266,0.10574207454919816,-0.033234432339668274
5.087402820587159,-0.11836021393537523,9.702159881591797,-0.013441324234008789,0.11523940414190294,0.051810275763273246
4.4064345359802255,-1.108140468597412,9.621078491210938,-0.0934511497616768,0.15482750535011292,0.13334597647190097
3.485681295394898,-1.590761423110962,10.264735221862795,-0.1257065236568451,0.07359275221824646,0.12428397685289384
3.178325414657593,-1.8672397136688232,10.321993827819826,-0.12775869667530063,-0.07448837161064148,0.07242513447999956
4.052011966705323,-1.6297338008880615,9.915794372558594,-0.14660629630088806,-0.16234503686428073,0.033737864345312125
4.804259777069093,-1.6298162937164307,9.388590812683107,-0.14993713796138766,-0.14201661944389343,0.051006574183702476
4.68120002746582,-1.4675003290176394,9.338394165039062,-0.14302602410316467,-0.09618429839611053,0.08341670781373979
4.44114875793457,-2.012043714523316,9.306310653686523,-0.09463071078062059,-0.035139746963977814,0.07894492894411088
4.19170904159546,-2.7922065258026127,9.191230773925781,-0.007593903224915267,-0.0007728138007223606,0.019074156880378723
4.435987949371339,-2.061283349990845,9.474187850952148,0.023859605193138123,0.01335283648222685,-0.00879000499844551
3.930097341537476,-2.2611696720123295,9.17458724975586,0.05692787095904351,-0.012193498201668264,-0.054468460381031036
5.032121658325195,-0.9777454733848573,9.952814102172852,0.020923875272274017,0.0008832128369249405,-0.002175522968173027
4.425204277038574,-1.852292776107788,9.511157035827638,0.0039535737596452245,0.032696112990379333,0.08034232258796692
4.181099891662598,-1.8066396713256836,9.669487953186037,0.0012456722324714067,0.012533489614725113,0.07463277131319047
3.8091979026794434,-2.084542512893677,9.453053474426271,0.0004013743600808084,-0.0660582184791565,-0.0018524798797443511
4.732577323913574,-0.8349859714508057,10.079950332641602,-0.057529568672180176,-0.0015321694081649186,0.11276644468307495
3.4672012329101562,-2.463431596755982,8.900325775146484,0.0061712078750133514,-0.1147100254893303,0.027517786249518398
4.777438163757324,-1.0682762861251833,10.099963188171388,-0.07781019061803819,-0.06196717172861099,0.06674756854772569
4.104734897613526,-1.695653557777405,9.393264770507812,-0.05627341568470001,-0.10399244725704193,0.0583297573029995
4.609628677368164,-1.4121221303939822,9.651449203491211,-0.0789918825030327,-0.0804629921913147,0.07927761226892473
4.461230754852296,-2.108552694320679,9.310667991638185,-0.07115136086940765,-0.03824697807431222,0.0888953134417534
4.094805240631104,-2.322552919387818,9.173848152160646,-0.03712170198559762,-0.044704362750053406,0.02489010058343411
4.43558406829834,-1.7332754135131836,9.313203811645508,-0.053556147962808616,0.013838869519531729,0.060580648481845856
4.582590103149414,-2.0099658966064453,9.383323669433594,-0.02766318991780281,0.048960495740175254,0.07005874812602997
4.123312950134277,-2.1238057613372807,9.151345252990724,-0.005662492476403713,0.03767343983054162,0.027965573593974117
4.399971008300781,-1.6018627882003786,9.5446252822876,-0.020831635221838955,0.06896762549877167,0.0554436780512333
3.7659716606140137,-2.1502101421356206,9.421344757080078,0.0014605200849473476,0.06200079619884491,0.05668648704886437
4.156746864318848,-2.221074104309082,9.434850692749023,-0.002237471984699369,0.037425316870212555,0.017949072644114498
3.8951952457427983,-2.187669277191162,9.18771266937256,0.013417667709290983,0.016861088573932648,-0.01048361323773861
4.12248182296753,-1.7360724210739138,9.609479904174805,-0.005665565375238658,0.006073951721191406,-0.0068165925331413755
4.070789813995362,-1.733245611190796,9.236146926879883,0.0009936803253367545,-0.017173619940876964,-0.026766769587993622
3.6996846199035645,-1.65910279750824,9.389924049377443,-0.03614050522446633,-0.03354454040527344,-0.019358383491635326
3.6829843521118164,-1.6255178451538086,9.92101573944092,-0.06117553636431695,-0.11489437520503998,-0.035225942730903625
3.7801849842071538,-1.8636362552642822,9.793899536132812,-0.06487534940242767,-0.17884628474712375,-0.061843499541282654
3.9005358219146733,-2.0386822223663335,9.406709671020508,-0.030640257522463802,-0.2326992601156235,-0.11272679269313812
4.319694042205811,-1.4038661718368532,9.65429210662842,-0.034052852541208274,-0.2651172876358032,-0.1283015161752701
4.296722888946534,-1.660512924194336,9.34231185913086,-0.05957845598459244,-0.2688633501529694,-0.12860144674777987
4.025075435638429,-1.9138351678848269,9.236830711364748,-0.04608695209026337,-0.2914545834064484,-0.14317795634269714
3.9693152904510502,-1.6152857542037966,9.801666259765625,-0.06911768019199371,-0.34495794773101807,-0.15924642980098727
3.6685483455657963,-1.820650577545166,9.763635635375977,-0.10860247164964677,-0.42188042402267456,-0.1672122031450272
3.5360255241394043,-2.046188116073609,9.77461051940918,-0.11100532114505768,-0.5489216446876527,-0.22237597405910495
4.384674549102784,-2.1687240600585938,9.443288803100586,-0.09339196234941484,-0.6398333311080933,-0.2721519768238068
4.668166160583496,-1.3140201568603516,9.716139793395998,-0.10654084384441376,-0.717860221862793,-0.24981926381587985
4.483549118041992,-0.9362145662307739,9.92069721221924,-0.16547012329101562,-0.8038282990455629,-0.19974100589752197
4.455698490142823,-0.6955791115760804,9.881103515625,-0.27411943674087524,-0.9104250073432923,-0.15643157064914706
3.6156990528106694,-1.7051991224288943,9.522206306457521,-0.3697939217090607,-1.092475175857544,-0.13238729536533358
2.8982660770416264,-2.0072681903839116,9.684990882873537,-0.38969323039054876,-1.3302556276321413,-0.18806886672973633
3.453014850616455,-2.4352564811706543,10.74650287628174,-0.32807230949401855,-1.6234551668167116,-0.2773978114128113
