AccX,AccY,AccZ,GyrX,GyrY,GyrZ
0.0009532117983326316,-0.0001502744999015704,0.0018791498150676489,-2.5579683438081707e-07,-2.129315362253692e-06,-2.422473016849836e-06
4.765883445739746,-0.7759242057800293,9.37318515777588,0.0020518812816590075,-0.010436353273689749,-0.011206056922674179
4.740669250488281,-0.7716903090476991,9.371241569519045,0.0020134078804403548,-0.008567661046981812,-0.012666107155382635
4.790230751037598,-0.7061200737953187,9.384623527526857,0.004343224689364433,-0.009384951554238798,-0.013229428790509703
4.764857292175293,-0.6955053806304932,9.378921508789062,0.0011918280506506564,-0.01009492576122284,-0.012329761870205404
4.757347106933594,-0.7232617139816284,9.405302047729492,-0.001158461906015873,-0.011160418391227722,-0.01311811711639166
4.752464771270753,-0.710728645324707,9.382674217224123,-0.0011260075261816385,-0.01353072002530098,-0.012071401812136175
4.771295070648194,-0.7200257778167725,9.377765655517578,-0.0011725104413926601,-0.0138430567458272,-0.010332635603845121
4.746031284332276,-0.7651704549789429,9.396137237548828,-0.0022553238086402416,-0.011955025605857374,-0.009979534894227982
4.738896846771241,-0.7764102220535278,9.37997341156006,0.0023209257051348686,-0.015320409089326859,-0.012660124339163305
4.761876106262207,-0.7515733838081361,9.37095832824707,0.003395022824406624,-0.013397478498518469,-0.0149422287940979
4.749277114868164,-0.6950343251228334,9.39778804779053,0.00622148159891367,-0.014065499417483808,-0.016720192506909374
4.763640880584718,-0.7053276300430298,9.39564609527588,0.003106322605162859,-0.015765881165862087,-0.015125438570976257
4.781802654266358,-0.706218183040619,9.380579948425295,0.00038390231202356523,-0.01578251458704472,-0.015936758369207382
4.778428077697754,-0.7063232660293579,9.38070583343506,9.129773388849573e-05,-0.015416737645864487,-0.013740734197199346
4.7793288230896005,-0.6944088935852051,9.405574798583984,-0.0026595229282975197,-0.013614821247756483,-0.011281813494861128
4.758178234100343,-0.7050408720970155,9.38345241546631,-0.003567040199413896,-0.014234472066164017,-0.01090142969042063
4.755491256713867,-0.7540847659111024,9.379179000854492,-0.0021493746899068356,-0.013245293870568275,-0.009749143384397032
4.763727188110352,-0.7377420067787172,9.391249656677248,-0.0019233230268582704,-0.014058070257306099,-0.010743933729827406
4.74591875076294,-0.711925745010376,9.381528854370117,-0.002586576854810119,-0.016551047563552856,-0.011939028277993202
4.763089179992676,-0.7485650777816772,9.391207695007326,-3.340148759889417e-05,-0.01608896628022194,-0.011178513057529928
4.767170429229737,-0.7297956347465516,9.362074851989748,-0.0011391716543585062,-0.015986483544111252,-0.013700765557587148
4.748255729675293,-0.7332503795623779,9.36237907409668,0.0002501197741366923,-0.01742527820169926,-0.014762239530682564
4.760732173919679,-0.7318521142005922,9.399267196655273,-0.00040983469807542866,-0.018716782331466675,-0.014364806935191154
4.75472354888916,-0.7465094327926636,9.379876136779787,0.0008842735551297665,-0.019012713804841045,-0.016516894102096558
4.75666093826294,-0.7413432002067567,9.369378089904787,0.0013202405534684658,-0.018312744796276093,-0.01713153533637524
4.764666080474854,-0.7342674136161805,9.405745506286623,0.004232227336615325,-0.01940985769033432,-0.017537435516715053
4.794534683227539,-0.6995046734809877,9.380797386169435,0.004221690353006125,-0.016920842230319977,-0.01933378353714943
4.7790021896362305,-0.7294947504997255,9.383975028991701,0.00355353532359004,-0.01422433275729418,-0.018367383629083633
4.782192230224609,-0.7088721990585327,9.38772487640381,0.005490310024470092,-0.010810961015522482,-0.016278695315122604
4.762192249298097,-0.7321690917015077,9.388726234436037,0.0072439974173903465,-0.007529872003942729,-0.01748048886656761
4.804740428924561,-0.7132062911987305,9.409491539001467,0.0059752436354756355,-0.005134772043675185,-0.01722134090960026
4.782875061035156,-0.6833080053329468,9.392166137695312,0.006462397985160351,-0.00047966351849026983,-0.016056369990110397
4.766981601715089,-0.7179925441741943,9.391231536865234,0.005073315929621459,-0.00260402518324554,-0.012232525274157524
4.760110855102539,-0.7286997437477113,9.395734786987305,0.0036282998044043784,-0.0019039560575038195,-0.013989333994686605
4.780740737915039,-0.7218605279922485,9.409334182739258,0.001905837096273899,-0.005039195995777846,-0.012324699200689794
4.743427753448487,-0.7019255757331849,9.395831108093263,0.0024843763094395403,-0.006417810916900635,-0.012311740778386595
4.753875255584718,-0.765733003616333,9.37034320831299,0.0019694301299750805,-0.006780353374779224,-0.012349470518529417
4.792232513427734,-0.6912614107131958,9.391829490661623,0.002097156131640077,-0.007518927566707134,-0.012819769792258741
4.77273988723755,-0.7085533142089844,9.36417007446289,0.0017882605316117408,-0.007127550430595875,-0.013025376945734024
4.781244277954102,-0.6969921588897705,9.404026985168459,0.0011748961405828597,-0.0074158646166324615,-0.011386475525796415
4.784361839294434,-0.682567834854126,9.409835815429688,-0.0010138639481738212,-0.006952087860554458,-0.008918792009353638
4.760720729827882,-0.7213010787963867,9.388316154479982,-0.0018766523571684959,-0.009214095771312714,-0.0083136847242713
4.768671035766602,-0.7215453386306763,9.391199111938477,-0.0010306485928595066,-0.007906115613877775,-0.010449566878378393
4.751068592071534,-0.7108976244926454,9.419973373413086,-0.0010815465357154608,-0.009506634436547758,-0.009005507454276085
4.723636627197266,-0.7397526502609253,9.388534545898438,-0.0003686072013806552,-0.008332676254212858,-0.008680855855345726
4.754406929016113,-0.7398625016212464,9.395237922668459,0.0008022978436201811,-0.012735976837575437,-0.013363920152187347
4.769804954528809,-0.7058525085449219,9.399907112121584,0.002961179707199335,-0.01077824551612139,-0.013307028450071813
4.79036569595337,-0.7010315060615541,9.390071868896484,0.002063908847048879,-0.010733149945735931,-0.010659809224307539
4.771415710449219,-0.7179153561592103,9.384905815124513,-0.00037769932532683015,-0.009529737755656242,-0.012643733061850073
4.764227867126465,-0.7004613876342773,9.385107040405273,0.0005278022144921125,-0.009454132989048958,-0.012220165692269804
4.757290840148926,-0.6945440769195557,9.376584053039553,0.001086542499251664,-0.008847076445817947,-0.00941113568842411
4.75932264328003,-0.6940525174140931,9.354493141174318,-0.0005668880767188967,-0.009792488068342209,-0.011109129525721075
4.756750106811523,-0.7005227208137513,9.391734123229982,0.00019834564591292295,-0.006941866595298053,-0.009966369718313217
4.748374938964844,-0.7553219795227051,9.346669197082521,0.0024377666413784027,-0.0077959499321877965,-0.010820839554071426
4.777870655059815,-0.7262705564498901,9.369227409362795,0.0037323948927223682,-0.005257620010524989,-0.010530718602240087
4.7752885818481445,-0.6881476640701294,9.417454719543459,0.0034221354871988297,-0.0035600496921688323,-0.010991213843226433
4.7704176902771005,-0.6966788172721864,9.395970344543459,0.0004646751913242042,-0.004985282197594643,-0.007731574121862651
4.763444423675538,-0.7082453966140747,9.403360366821289,0.00019011714903172108,-0.004752645269036293,-0.009408208541572096
4.753157615661621,-0.711172640323639,9.407230377197266,0.0010899121407419443,-0.006459776777774096,-0.010604388080537321
4.738201141357422,-0.7268355488777162,9.359407424926758,0.0010762561578303576,-0.005456381011754275,-0.009515749290585518
4.745751857757569,-0.7443568706512451,9.391950607299805,-2.4088039936032146e-05,-0.006693894974887371,-0.010450939647853376
4.733481884002686,-0.7375222444534302,9.381821632385256,0.002823177026584745,-0.008468212559819221,-0.013500598259270193
4.752021789550781,-0.715642273426056,9.382755279541016,0.002767621073871851,-0.006821604911237956,-0.012103197164833547
4.754011154174805,-0.733398735523224,9.387713432312013,0.0036493646912276745,-0.00487480452284217,-0.014986852183938026
4.759432315826417,-0.698868989944458,9.405097961425781,0.006981907878071071,-0.007069779094308616,-0.013476725667715073
4.75022840499878,-0.7054959535598755,9.381028175354006,0.008209993131458761,-0.0048000393435359,-0.014335694722831251
4.7589216232299805,-0.7029613852500917,9.408514976501467,0.004789746832102538,-0.0048090023919939995,-0.014938784763216972
4.739491939544679,-0.7243162393569946,9.404450416564943,0.00615164078772068,-0.008323439396917822,-0.014116296544671059
4.722651004791261,-0.7480292320251465,9.383523941040039,0.00752639677375555,-0.008739002048969269,-0.014422413893043997
4.754767417907715,-0.6974847316741943,9.381355285644531,0.008982366882264616,-0.009925877675414085,-0.018516657873988155
4.739930152893066,-0.7041569948196411,9.393574714660646,0.006796914618462325,-0.011621639132499695,-0.016620248556137085
4.7649197578430185,-0.6909438967704774,9.387522697448732,0.006501995027065277,-0.011509169824421408,-0.01683494821190834
4.761503696441651,-0.7075670957565308,9.394816398620607,0.004719625692814589,-0.012398066930472853,-0.018319327384233475
4.75260066986084,-0.6919665932655336,9.42237949371338,0.00489192781969905,-0.011098070070147514,-0.016557531431317333
4.753366470336914,-0.6963756084442139,9.391292572021484,0.0016542846569791438,-0.010973384603857994,-0.017457757145166397
4.736416816711426,-0.710537612438202,9.367141723632812,0.0040040574967861176,-0.010772568173706533,-0.014092577621340752
4.725556373596191,-0.7450448870658876,9.389543533325195,0.004063336644321681,-0.012495712377130987,-0.016292419284582138
4.748462677001953,-0.6926280856132508,9.394934654235842,0.006362148094922305,-0.013805681839585304,-0.017773935571312908
4.779714584350586,-0.6545548439025879,9.39964485168457,0.0027365821879357104,-0.013092201203107834,-0.01746354252099991
4.780871391296387,-0.6695691943168641,9.36971187591553,0.002259840024635196,-0.012324946001172066,-0.015401684679090978
4.765729904174805,-0.6987594962120057,9.393521308898928,0.003566565224900842,-0.01108351815491915,-0.014524521306157112
4.767761707305909,-0.7104777693748475,9.394428253173828,0.003018499817699194,-0.010227751918137075,-0.014578767120838165
4.767723083496094,-0.6881088614463807,9.397509574890138,0.004124629776924849,-0.009736496955156326,-0.013409838080406189
4.761987209320069,-0.7241055965423584,9.38366222381592,0.002817824948579073,-0.009824070148169996,-0.014346983283758163
4.743455410003663,-0.7198871970176698,9.384504318237305,0.0044528734870255,-0.007506864611059428,-0.015780363231897354
4.775674819946289,-0.6457694172859193,9.378897666931154,0.005967631004750729,-0.008152051828801634,-0.01571805030107498
4.781991004943848,-0.6536781787872314,9.36789321899414,0.004800369497388602,-0.0065833525732159615,-0.015003900974988937
4.764457225799561,-0.6830756664276123,9.37551021575928,0.002876329934224487,-0.006092279218137264,-0.011771935038268568
4.7446255683898935,-0.6965211629867554,9.417174339294435,0.0033573340624570847,-0.006971126422286034,-0.013583035208284857
4.752615451812745,-0.7177389264106752,9.377034187316896,0.002223174320533872,-0.007663065567612648,-0.01253598276525736
4.767411231994629,-0.6953173279762269,9.402873992919922,0.003032304346561432,-0.007839343510568144,-0.013010631315410139
4.75221872329712,-0.6789150238037109,9.391009330749513,0.005215628538280726,-0.006511038169264793,-0.012233597226440908
4.7514543533325195,-0.6972498893737793,9.403416633605959,0.005797968711704017,-0.008948412723839285,-0.012981856241822243
4.748245716094972,-0.6731424927711488,9.425376892089844,0.004977656528353691,-0.00722763640806079,-0.013832071796059608
4.759001731872559,-0.6778719425201416,9.381901741027834,0.005476187448948623,-0.008823998272418976,-0.011836348101496696
4.7595534324646005,-0.6790429949760438,9.401567459106445,0.0032080276869237423,-0.010525957681238653,-0.012122362852096558
4.754757881164551,-0.6857579946517944,9.409550666809084,0.0008180314907804132,-0.007687033154070377,-0.010225242935121061
4.7347259521484375,-0.6932824850082397,9.419485092163086,0.0007082860101945699,-0.008609799668192863,-0.009862118400633337
4.751031398773194,-0.6832232475280762,9.380185127258303,-0.0030251361895352606,-0.010445337742567062,-0.009047340601682663
4.694324970245362,-0.7522879242897035,9.386449813842773,-0.0006500463350676001,-0.01221269741654396,-0.01225062180310488
4.73063850402832,-0.7729189395904541,9.399225234985352,0.003086453536525369,-0.013860321603715422,-0.015747234225273132
4.783167362213136,-0.668128490447998,9.379649162292482,0.0048909494653344154,-0.014624021016061308,-0.01651323214173317
4.788732051849366,-0.6196948289871216,9.394555091857912,0.0024825318250805144,-0.013135746121406555,-0.01365416869521141
4.774315357208253,-0.6688578724861146,9.415889739990234,-0.0009571741684339942,-0.010067516937851906,-0.011453493498265745
4.764651775360108,-0.6777539253234863,9.391658782958984,0.00014893089246470484,-0.009694091044366361,-0.00938091054558754
4.727471828460694,-0.6989732980728149,9.392306327819826,-0.001513731316663325,-0.009130621328949928,-0.009190321899950506
4.73551893234253,-0.7341282963752748,9.415637969970703,-0.0004106771957594902,-0.010637925937771797,-0.009817251935601234
4.7464003562927255,-0.6784898042678833,9.424306869506836,0.000711410481017083,-0.012848667800426483,-0.012075173668563368
4.741167068481445,-0.7039515376091005,9.407261848449709,-0.0006522252806462349,-0.014098514802753927,-0.011370887979865074
4.741229534149171,-0.7196126580238343,9.398088455200195,0.00010358221334172414,-0.01579885557293892,-0.013088296167552473
4.759092807769776,-0.6779332756996156,9.372352600097656,0.00142527895513922,-0.012148343026638031,-0.014950383454561234
4.748024463653565,-0.678516447544098,9.390445709228516,0.0006751327309757471,-0.013203707523643972,-0.011858053505420685
4.777199268341065,-0.6675661206245423,9.380899429321289,0.0010988584253937006,-0.01191009022295475,-0.011742304079234602
4.754760265350343,-0.6803823709487915,9.366440773010256,0.000571949640288949,-0.011237158440053465,-0.010252105072140694
4.75572156906128,-0.734114706516266,9.36367416381836,-0.00012002043513348327,-0.009243346750736237,-0.01135518029332161
4.745316505432129,-0.6950510740280151,9.411791801452638,0.004004253074526787,-0.00885142106562853,-0.011993184685707092
4.740973472595215,-0.7021997570991517,9.39431381225586,0.003233454655855894,-0.009067468345165253,-0.013367910869419576
4.745582580566406,-0.6877920031547547,9.426886558532717,0.004551944788545371,-0.010457383468747139,-0.013151672668755056
4.753421306610108,-0.7050347924232484,9.3902063369751,0.004534865729510784,-0.011825417168438436,-0.013353862799704077
4.743105888366699,-0.6585812568664551,9.395802497863771,0.00325795728713274,-0.014213857240974905,-0.015816543251276016
4.746180057525636,-0.701433539390564,9.420858383178711,0.0017600131686776876,-0.015457183122634888,-0.013562905602157118
4.747854709625245,-0.677904784679413,9.41567134857178,0.002801156137138605,-0.015846798196434978,-0.014099527150392532
4.742092132568359,-0.6805840134620668,9.431092262268068,-0.0007666719029657544,-0.015059078112244606,-0.013052929192781448
4.751237392425538,-0.7145403623580933,9.388609886169435,-0.00158325070515275,-0.015753069892525676,-0.013417696580290794
4.746475696563722,-0.6918423175811768,9.395709037780763,0.0022960533387959003,-0.016454417258501053,-0.014185407198965551
4.758110046386719,-0.6698777675628662,9.364385604858398,0.0038612447679042816,-0.015390357933938505,-0.01579573005437851
4.739324092864991,-0.6912130713462831,9.386890411376953,0.0010582986287772655,-0.013546395115554334,-0.014519584365189077
4.760368347167969,-0.6890675425529481,9.402794837951662,0.0014310784172266722,-0.012577385641634466,-0.013503246009349823
4.738769054412843,-0.7107371091842651,9.409431457519531,0.0009034661925397814,-0.01285695191472769,-0.01574241742491722
4.762947082519531,-0.6704412698745728,9.373843193054201,0.0008248890517279506,-0.01213847938925028,-0.013930531218647957
4.784285545349121,-0.6627550721168519,9.388476371765138,0.0012259331997483969,-0.009340365417301657,-0.012674325145781042
4.775663852691651,-0.6563555598258973,9.408895492553711,-0.000976395735051483,-0.010312285274267197,-0.010736809112131597
4.75288200378418,-0.6666373014450073,9.410404205322266,-0.0014010948361828925,-0.008815682493150236,-0.009893778711557388
4.737309455871582,-0.7061581015586854,9.393479347229006,-0.0033659592736512427,-0.008012719452381134,-0.00816499348729849
4.724948406219483,-0.6910865306854248,9.41011142730713,-0.0029646966140717272,-0.00951964408159256,-0.010685311630368233
4.753119468688965,-0.7278566956520082,9.382115364074709,0.001037730253301561,-0.012399332597851753,-0.01165007892996073
4.739581108093262,-0.6788254380226136,9.386370658874513,5.117140244692564e-05,-0.012670416384935379,-0.013753640465438368
4.77311897277832,-0.6896026134490967,9.371768951416016,-0.000983543461188674,-0.013265260495245458,-0.012064915150403976
4.778003692626953,-0.6697115302085878,9.378135681152344,0.0009811640484258535,-0.013634130358695984,-0.014258667826652527
4.76470708847046,-0.6737661957740785,9.382558822631836,2.893178498197813e-05,-0.012464255094528198,-0.01259103696793318
4.76741647720337,-0.6689043045043945,9.3818359375,-0.0006794176297262311,-0.010529424995183945,-0.01062420289963484
4.763483047485352,-0.6904946565628052,9.390690803527834,-0.0008600343717262149,-0.009231395088136198,-0.00949995219707489
4.740779399871827,-0.7211244106292725,9.40444564819336,0.0015632797731086614,-0.009951706975698471,-0.010745570063591003
4.751409530639648,-0.6939026713371278,9.402620315551758,0.0012349515454843642,-0.01062641479074955,-0.013323533348739149
4.768317222595215,-0.6753811240196229,9.367603302001953,0.001061051734723151,-0.010424477048218252,-0.012105504050850868
4.743615627288819,-0.6940562725067139,9.42888927459717,0.0017203827155753972,-0.008003205060958862,-0.010882974602282049
4.752287864685059,-0.6665412783622743,9.404775619506836,0.00016042188508436084,-0.009691079147160055,-0.01205191481858492
4.74809217453003,-0.7167812585830688,9.374644279479982,0.0008425653795711697,-0.007931089028716087,-0.01263497304171324
4.742204666137695,-0.7057456970214844,9.416426658630373,0.004037250764667988,-0.00953666865825653,-0.012337227351963522
4.758984088897706,-0.6671838760375977,9.368060111999513,0.00534000201150775,-0.009771479293704033,-0.01354347448796034
4.755119323730469,-0.6727285981178285,9.407720565795898,0.001883696299046278,-0.008539008907973768,-0.012164671905338766
4.748839855194093,-0.6894927620887757,9.386991500854492,0.0010467285756021738,-0.01010339241474867,-0.01166594959795475
4.74298906326294,-0.6902568340301514,9.393861770629883,0.0015673782909289005,-0.008279695175588133,-0.011174701154232025
4.719987392425538,-0.6901456117630005,9.391586303710938,0.0014750324189662933,-0.008685843087732794,-0.012067258358001709
4.747014522552491,-0.6876218318939209,9.380411148071289,0.00148021976929158,-0.011123746633529663,-0.013206835836172104
4.759138584136964,-0.6761484742164613,9.400611877441406,0.001145422924309969,-0.014357489533722402,-0.01435491070151329
4.719609737396241,-0.7523379921913148,9.387248039245607,0.0019687388557940726,-0.012774703092873098,-0.015005452558398247
4.731570243835449,-0.725069522857666,9.408650398254396,0.004804040770977736,-0.012550193816423416,-0.020435942336916927
4.789320945739746,-0.627124547958374,9.386240959167482,0.0032674316316843033,-0.014593661762773992,-0.019801205024123195
4.795534133911133,-0.6234713792800903,9.366374015808107,0.003627866273745895,-0.012894093990325928,-0.013469983823597433
4.777088165283203,-0.6275902986526489,9.386198043823242,0.00018915026157628748,-0.010551388375461103,-0.010725336149334908
4.763237476348878,-0.6795137524604798,9.37940788269043,-0.002080617006868124,-0.008935290388762953,-0.009310079738497734
4.743816852569581,-0.6729786396026611,9.392768859863281,-0.0005726122763007879,-0.007734388578683139,-0.008074731566011907
4.752605915069581,-0.6806401014328003,9.396829605102539,0.00040799169801175594,-0.007674519438296557,-0.008480265736579895
4.744669437408448,-0.703680455684662,9.3731689453125,-0.0006113506969995798,-0.009741547517478468,-0.009454764425754547
4.735812664031983,-0.7228418588638306,9.402748107910156,0.0035583006683737044,-0.009336946532130241,-0.012755437754094602
4.742894649505616,-0.7093638181686401,9.41059684753418,0.005696341395378113,-0.010886617936193945,-0.014600344933569433
4.755422115325929,-0.6599751710891724,9.403919219970703,0.004207955207675696,-0.01075410470366478,-0.015543729998171331
4.768494129180909,-0.6423209309577943,9.39970588684082,0.004657492972910404,-0.0105204489082098,-0.014620563946664335
4.758338928222656,-0.6517345309257508,9.429214477539062,0.0038355551660060883,-0.010303013958036901,-0.012249814346432686
4.751568794250488,-0.6796385049819946,9.411867141723633,0.003000323660671711,-0.01065190974622965,-0.013007472269237043
4.760762691497804,-0.6666939854621888,9.39675521850586,0.00026360418996773666,-0.012348713353276253,-0.012221275828778745
4.761567115783691,-0.6754100322723389,9.39295768737793,-0.00027158917509950703,-0.011391843669116499,-0.012069446966052055
4.7522854804992685,-0.6913055777549745,9.398584365844727,0.0012409986229613426,-0.008998975157737732,-0.01449470315128565
4.745631217956543,-0.6830573081970215,9.373021125793459,0.001983802765607834,-0.009935165755450727,-0.01482019852846861
4.7818360328674325,-0.6246497631072998,9.402824401855469,0.0017437993083149195,-0.01084175053983927,-0.012509027495980263
4.7612152099609375,-0.6736067533493042,9.381026268005373,-0.001882751355879009,-0.0074689541943371305,-0.008096674457192421
4.753242492675781,-0.663537859916687,9.439931869506836,-0.000851526448968798,-0.009705502539873123,-0.008103755302727224
4.772926807403565,-0.6802109479904175,9.40825939178467,-0.002672069007530809,-0.007501293905079365,-0.0075441570952534676
4.749370098114015,-0.6940843462944032,9.405771255493164,-0.0012698173522949219,-0.0070561408065259465,-0.009104104712605476
4.760014533996582,-0.661785662174225,9.399890899658203,-0.0021256674081087112,-0.006894228979945183,-0.009345664642751219
4.756529331207276,-0.6741585135459901,9.393307685852053,-0.003305861027911306,-0.007881661877036095,-0.007357273716479541
4.744647026062012,-0.698761284351349,9.399283409118654,-0.0028799818828701973,-0.0063186245970428,-0.007693430874496699
4.7373929023742685,-0.7049734592437744,9.408059120178224,-0.0008748939144425095,-0.009573714807629585,-0.008247670717537405
4.76004457473755,-0.6867196559906006,9.382694244384766,-0.0017588726477697494,-0.011533475480973722,-0.009114120155572891
4.743620872497559,-0.6677809953689575,9.37637710571289,-0.0024359186645597224,-0.009507279843091965,-0.0090221269056201
4.726459026336671,-0.6847926974296571,9.37171268463135,-0.0011418992653489113,-0.00804042909294367,-0.008314720354974272
4.772922515869141,-0.7002694606781006,9.393482208251953,-2.548291377024725e-05,-0.00837423373013735,-0.008319208398461342
4.723596572875977,-0.6656737327575684,9.382940292358398,0.001840468030422926,-0.007299784570932388,-0.008358863182365896
4.776247501373292,-0.6640676856040956,9.385582923889162,0.0013682985445484521,-0.009323498234152794,-0.010788383893668653
4.763394355773926,-0.6323569416999818,9.403642654418945,-0.0020127913448959593,-0.007961533963680267,-0.008301982656121254
4.730993270874023,-0.7437934875488281,9.396311759948732,-0.0022895955480635166,-0.005951134953647853,-0.00753502082079649
4.719266414642335,-0.7242016196250917,9.384511947631836,0.000859896477777511,-0.0072539648972451696,-0.011804439127445221
4.747540950775147,-0.663173019886017,9.427836418151857,0.003168812021613121,-0.007073352579027415,-0.012947937473654747
4.730701446533203,-0.6428591609001161,9.375123023986818,0.0007335629779845476,-0.007824347354471685,-0.010312906466424467
4.699369430541992,-0.6883682012557983,9.42448139190674,-0.000880058272741735,-0.010501152835786344,-0.011174291372299194
4.736503124237061,-0.6933292150497437,9.417174339294435,-0.0014445674605667591,-0.013271864503622055,-0.01360051427036524
4.748594760894776,-0.6601913571357728,9.418279647827148,-0.0014284654753282668,-0.013963889330625534,-0.012831551022827627
4.7573957443237305,-0.66034996509552,9.384392738342287,-0.0010336069390177727,-0.01355456653982401,-0.0121649531647563
4.75225591659546,-0.6665776371955873,9.385437965393068,0.0005252003320492805,-0.01073153130710125,-0.010391416959464552
4.737977027893066,-0.7796040773391724,9.386438369750977,0.0012122959597036245,-0.009278505109250547,-0.012498952448368073
4.740147590637207,-0.7286908626556396,9.374840736389162,0.0047394586727023125,-0.009526341222226621,-0.015964217483997345
4.76936960220337,-0.6293033957481385,9.446078300476076,0.004791228100657463,-0.010548750869929792,-0.01523768622428179
4.765869617462159,-0.6392290592193604,9.400314331054688,0.003630478400737047,-0.009274401701986791,-0.013525759801268578
4.774798870086671,-0.6485761404037476,9.391369819641115,0.0022670661564916377,-0.008123473264276983,-0.01231587864458561
4.731866359710694,-0.7095409035682679,9.411003112792969,0.0023649132344871764,-0.006138159893453121,-0.01234190631657839
4.732529640197754,-0.6879678368568422,9.410521507263185,0.0014959722757339478,-0.004329465795308352,-0.013388232327997686
4.755770683288574,-0.6696693897247314,9.386073112487795,0.0030054871458560233,-0.0063427770510315895,-0.01332731079310179
4.754303455352784,-0.702840030193329,9.370431900024414,0.006274116691201926,-0.0030765125993639235,-0.012181533500552177
4.757521629333496,-0.6711999773979188,9.392062187194826,0.0040235002525150785,-0.00472942553460598,-0.01259660813957453
4.757043838500977,-0.6841652393341064,9.375057220458984,0.003983506932854652,-0.0027338794898241763,-0.014580552466213705
4.729398727416992,-0.6661183238029481,9.402441024780273,0.0048137446865439415,-0.0032061536330729727,-0.013755673542618752
4.726840972900391,-0.6772161722183228,9.41521739959717,0.0047179567627608785,-0.004890043754130603,-0.014503490179777145
4.742884159088136,-0.6997863650321962,9.395483016967773,0.0035881875082850456,-0.005930379498749972,-0.013852264732122421
4.7371826171875,-0.7044281363487245,9.383250236511232,0.006997350603342056,-0.0076925535686314115,-0.017125198617577556
4.751219272613526,-0.6425213813781738,9.440946578979492,0.00520157115533948,-0.008117830380797386,-0.019299725070595745
4.794314861297608,-0.6089431643486024,9.409295082092287,0.002920681145042181,-0.009438617154955864,-0.015465556643903257
4.785579204559327,-0.6160598993301392,9.414854049682617,-4.845683361054399e-05,-0.007850566878914833,-0.0089098634198308
4.748536109924316,-0.6973381638526918,9.380873680114748,0.0008691216353327036,-0.0041113835759460935,-0.007984173484146597
4.755430221557617,-0.6425313949584961,9.406702995300295,-0.0007482092478312553,-0.0030644782818853855,-0.007930512540042402
4.733963966369629,-0.6927580833435059,9.405789375305178,-0.001355297979898751,-0.0010797154391184451,-0.006537094712257385
4.717775821685792,-0.6934122443199159,9.38537120819092,0.001300297910347581,-0.001740630832500756,-0.008876020088791847
4.731338024139405,-0.6663634181022645,9.394450187683107,8.299858018290251e-05,-0.0026315187569707636,-0.008652334101498129
4.731506824493409,-0.6518441438674927,9.398821830749513,-0.0017293255077674987,-0.002435881644487381,-0.008530133403837683
4.691231727600098,-0.6980873346328735,9.402646064758303,-0.002134992741048336,-0.004825690761208534,-0.00904765445739031
4.717570781707765,-0.6898202896118164,9.427667617797852,-0.0003268351138103754,-0.006853488273918629,-0.008902712725102903
4.76430368423462,-0.6522614359855653,9.392870903015138,-0.0015996835427358749,-0.00878373347222805,-0.010509015992283821
4.742187976837159,-0.6685558557510376,9.409596443176271,-0.0019741167780011897,-0.008332628756761551,-0.011253683827817442
4.759076595306397,-0.6705719828605653,9.38862419128418,-0.0014197624986991288,-0.00752187566831708,-0.009018747135996819
4.7532315254211435,-0.6718426942825317,9.409398078918459,-0.002453316701576114,-0.0042820880189538,-0.008400677703320982
4.761798381805421,-0.6822284460067749,9.411630630493164,0.0004321153392083943,-0.0066328016109764585,-0.008335790596902372
4.753063678741456,-0.6376574039459229,9.435617446899414,-0.0015568409580737352,-0.004754044581204654,-0.009930988773703575
4.752536296844483,-0.6614775657653809,9.410479545593263,-0.0021898620761930943,-0.0022599203512072563,-0.0038097409997135405
4.757326126098633,-0.6435258388519287,9.44828510284424,-0.005093980580568314,-0.002821964910253883,-0.0019091444555670023
4.791661739349366,-0.647647500038147,9.401186943054201,-0.007884937338531019,-0.0011819510255008936,0.000527067924849689
4.795424938201905,-0.636803388595581,9.399524688720703,-0.008038551546633245,0.0015517242718487978,0.006623034831136466
4.876618385314941,-0.5973091125488281,9.427279472351076,-0.009435363113880157,0.0053223250433802605,0.011664452962577345
4.889167308807374,-0.590471923351288,9.379828453063967,-0.00983809120953083,0.0185521487146616,0.02211546152830124
4.764499187469483,-0.6232202053070068,9.389119148254396,-0.010087658651173117,0.029269229620695114,0.03068319708108902
4.732884407043457,-0.7241522073745728,9.385658264160156,-0.008811894804239273,0.03425857052206994,0.030644211918115616
4.613500118255616,-0.6824837923049927,9.379878997802734,-0.00649951258674264,0.03440666571259499,0.028349652886390686
4.4851346015930185,-0.9036718606948853,9.414126396179201,-0.006730288732796908,0.02401529997587204,0.015077534131705763
4.704595088958741,-0.7064427137374878,9.402134895324709,0.002740690018981695,0.012672497890889646,0.003563923062756658
4.608299255371094,-0.6462571620941162,9.411618232727053,-0.0026378494221717124,0.014915576204657555,0.003554053837433458
4.739099502563477,-0.625012993812561,9.42497444152832,-0.007150108925998211,0.010716598480939865,0.0066308178938925275
4.73467779159546,-0.687216341495514,9.422592163085938,-0.011581285856664182,0.01570197567343712,0.01414098870009184
4.7784743309021005,-0.7027771472930908,9.395889282226562,-0.009796377271413803,0.02319220639765263,0.017636882141232494
4.817102909088136,-0.6690361499786377,9.374442100524904,-0.009085887111723425,0.03283710032701492,0.02155178971588612
4.755922317504883,-0.7908087372779847,9.377406120300295,-0.004315662663429976,0.043819490820169456,0.02609328180551529
4.71094560623169,-0.7993274331092836,9.412281990051271,0.004566776566207409,0.05277835950255395,0.022536534816026688
4.717222213745117,-0.6865743994712831,9.45802974700928,0.007381162606179714,0.054001804441213615,0.02162791602313519
4.703478813171387,-0.7009255886077881,9.435830116271974,0.005032333079725505,0.05349791795015335,0.022190736606717113
4.701630592346191,-0.6683344841003418,9.370076179504396,0.006929702125489712,0.05939868092536926,0.024078818038105968
4.62591314315796,-0.6159527897834779,9.465493202209474,0.0038250903598964214,0.05881621316075326,0.025641966611146927
4.640399932861328,-0.6050058007240297,9.401883125305178,0.0008958071121014656,0.057220377027988434,0.028689343482255936
4.610322952270508,-0.6989218592643739,9.414142608642578,-0.0011841998202726247,0.057908542454242706,0.02744187228381634
4.513454437255859,-0.8219125866889955,9.505805969238281,-0.0023380762431770567,0.05714262649416924,0.02432987093925476
4.574860095977784,-0.850306808948517,9.467438697814943,0.002435129834339023,0.050930820405483246,0.020261099562048916
4.643304347991944,-0.7656438946723939,9.47916030883789,0.0052815089002251625,0.045908156782388694,0.012334818951785566
4.6688551902771005,-0.6804248094558716,9.394515991210938,0.005912443157285453,0.048567913472652435,0.010269639082252981
4.582409381866456,-0.598288893699646,9.343390464782717,0.0016219738172367217,0.05295654758810998,0.014545133337378502
4.592045783996582,-0.5168466567993164,9.397555351257326,-0.010771345347166061,0.05714314803481103,0.021169841289520264
4.583381175994874,-0.19910195469856262,9.554997444152834,-0.05299945920705795,0.04522572830319405,0.04910665377974511
4.640181064605714,-0.7321139574050903,9.507715225219727,-0.09112747013568878,0.04224693402647973,0.07943075895309448
4.435405254364015,-0.5784529447555542,9.50782108306885,-0.09911470115184784,0.036226704716682434,0.08173897117376329
4.5700039863586435,-0.6746324300765991,9.534952163696289,-0.12292888760566711,0.03356607630848885,0.09286092221736908
4.521903991699219,-0.8422424197196962,9.489502906799318,-0.13343776762485507,0.029602043330669403,0.102450430393219
4.452546119689941,-0.7512475252151489,9.499373435974123,-0.13661278784275058,0.02052326127886772,0.09520865231752397
4.555492401123047,-0.533588171005249,9.64143180847168,-0.15341930091381076,-0.0012496385024860503,0.10027211904525757
4.553907871246339,-0.7893831729888916,9.603517532348633,-0.1700069010257721,-0.022117806598544124,0.11495304107666016
4.553136825561523,-0.8184083700180054,9.590758323669435,-0.1814086884260178,-0.03997480869293213,0.1186976283788681
4.552415370941163,-1.0161792039871218,9.575490951538086,-0.1821761131286621,-0.056498695164918906,0.1150655448436737
4.627131938934327,-0.8925578594207764,9.522151947021484,-0.18485485017299655,-0.08441918343305589,0.11437061429023743
4.637665748596191,-0.7962364554405214,9.562023162841797,-0.19926671683788302,-0.09542275965213776,0.12577576935291293
4.55039930343628,-0.8216843605041504,9.616002082824709,-0.21246545016765597,-0.1044851690530777,0.13555219769477844
4.503283500671387,-1.0216076374053955,9.520605087280273,-0.222886860370636,-0.11762409657239915,0.12840339541435242
4.380498409271241,-1.4023693799972536,9.426950454711914,-0.20316003262996676,-0.12187486141920091,0.09439316391944885
4.758938789367676,-1.1397080421447754,9.489855766296388,-0.19736361503601074,-0.1447819918394089,0.06908297538757324
4.846423149108887,-0.8340905904769897,9.461746215820312,-0.1983551234006882,-0.12912854552268982,0.07992446422576904
4.632781028747559,-1.165077328681946,9.290070533752443,-0.18304651975631714,-0.10554448515176774,0.08336704969406128
4.568920612335206,-1.0505919456481934,9.435596466064453,-0.1666749119758606,-0.10511858761310577,0.08148901909589769
4.750417232513429,-1.0657613277435303,9.427592277526857,-0.16454777121543884,-0.10139968246221544,0.06342807412147522
4.66607666015625,-1.1720274686813357,9.381315231323242,-0.15433454513549805,-0.0966785177588463,0.05858514830470086
4.732998847961426,-1.1882152557373047,9.331537246704102,-0.1423975080251694,-0.09525436162948608,0.0597393848001957
4.6573991775512695,-1.4260369539260866,9.206844329833984,-0.11389374732971191,-0.08328714966773987,0.047703411430120475
4.589953899383546,-1.3465650081634521,9.206558227539062,-0.08305164426565172,-0.07366643846035004,0.03099763579666615
4.418757915496827,-1.298663854598999,9.3018798828125,-0.07563801854848863,-0.08030557632446289,0.0210130512714386
4.674830913543702,-1.3232121467590332,9.404398918151857,-0.058852724730968475,-0.09153784066438676,0.006696382537484169
4.604279041290284,-1.342390537261963,9.359880447387695,-0.03773670643568039,-0.09182503819465637,-0.004263178911060096
4.394416332244874,-1.3352787494659424,9.414819717407227,-0.02290365844964981,-0.1055118963122368,-0.019707564264535904
4.551343441009522,-1.4831526279449463,9.43742084503174,-0.0036016488447785378,-0.12893496453762057,-0.04257971420884133
4.7291975021362305,-1.2449004650115967,9.298334121704102,0.013175024650990965,-0.142316997051239,-0.057336818426847465
4.684206962585449,-1.2066001892089844,9.39137077331543,0.01841949298977852,-0.1518632173538208,-0.06304200738668443
4.667133331298828,-1.3235218524932861,9.367861747741701,0.018957380205392838,-0.16349758207798007,-0.07732270658016205
4.732513427734375,-1.10255765914917,9.366017341613771,0.018853975459933284,-0.17752724885940552,-0.08203405141830444
4.864844799041749,-0.8987277746200562,9.301711082458498,0.01920171640813351,-0.19148647785186768,-0.07320425659418107
4.641270637512207,-1.2612321376800537,9.210484504699709,0.03156749904155731,-0.1948699653148651,-0.0866842344403267
4.817057132720948,-1.2199740409851074,9.222243309020998,0.05514629930257797,-0.21254079043865207,-0.10567259788513184
4.794815540313722,-1.0352473258972168,9.283342361450195,0.05036890879273415,-0.21496206521987915,-0.11255080997943878
4.702539920806886,-0.9157969951629639,9.255170822143555,0.06137501075863839,-0.23444819450378418,-0.12474640458822252
4.670532703399659,-1.2076644897460938,9.33172130584717,0.05741725116968155,-0.2512982487678528,-0.13631235063076022
4.472581386566163,-1.4286110401153564,9.308868408203125,0.07984071224927904,-0.2846492528915405,-0.17539070546627047
4.618408679962159,-1.1323091983795166,9.425974845886232,0.09940366446971893,-0.33844313025474554,-0.21848298609256747
4.860086441040039,-0.9124895334243774,9.476500511169435,0.09308750182390214,-0.3766542077064514,-0.22724346816539767
4.834481239318848,-0.9411775469779969,9.189533233642578,0.0786270946264267,-0.41229885816574097,-0.21776531636714938
4.76395320892334,-0.8813867568969727,9.488439559936523,0.061535224318504333,-0.4658162891864777,-0.2112448811531067
4.604692459106445,-0.6502538919448853,9.66956901550293,0.025894057005643845,-0.553175985813141,-0.20278190076351169
4.487374305725098,-1.1846278905868532,9.606978416442873,0.011184341274201872,-0.6595304012298584,-0.21495030820369723
4.388294696807862,-0.9743224382400513,9.57302474975586,0.026577228680253032,-0.7956196665763856,-0.24232903122901917
4.3215069770813,-1.1857435703277588,9.615759849548342,0.06264103949069977,-0.9338147044181825,-0.2688729763031006
4.25466012954712,-1.621222972869873,9.36909294128418,0.12680774927139282,-1.0996278524398806,-0.2916620075702668
4.724442481994629,-1.392566204071045,9.492955207824709,0.16997817158699036,-1.2533267736434939,-0.31609755754470825
4.9316143989563,-0.8691270947456361,9.444470405578615,0.1756212264299393,-1.3976882696151736,-0.33180737495422363
5.056744098663331,-0.8236801624298096,9.284547805786133,0.17348986864089966,-1.5123146772384646,-0.34650617837905884
5.032002925872804,-0.6777383089065552,9.528271675109865,0.18173345923423767,-1.6519879102706911,-0.3544516861438752
5.426945209503175,-0.9944812655448915,9.231875419616701,0.19891861081123352,-1.8162485361099245,-0.35895222425460815
5.897137165069581,-0.6214244365692139,9.184640884399414,0.19559501111507419,-1.9579306840896609,-0.3539700508117676
5.712812423706055,-1.117140293121338,9.184481620788576,0.24162757396697998,-2.0850851535797124,-0.39414775371551514
5.649565219879151,-0.779381275177002,9.415252685546875,0.25227218866348267,-2.272079706192017,-0.4131243526935578
5.689286708831788,-0.5481046438217163,9.550036430358888,0.2132193595170975,-2.4586806297302246,-0.42602327466011053
5.68809461593628,-0.6966363191604614,9.385391235351562,0.18613882362842563,-2.6720068454742436,-0.4563581347465515
5.7387237548828125,-0.4133259057998657,9.523180961608888,0.1631463319063187,-2.89939022064209,-0.4465480744838715
5.910254955291749,-0.9156469106674194,9.187616348266602,0.18759799003601074,-3.181081056594849,-0.4542792737483979
5.266913890838624,-1.8151067495346072,8.367588996887209,0.4241756200790405,-3.6236364841461186,-0.5855343341827393
6.4007720947265625,-2.294397115707398,8.403667449951172,0.7663660049438477,-4.185428619384766,-0.7826775908470155
8.249261856079102,-1.8241994380950928,9.739015579223633,0.9175463318824769,-4.618216514587402,-0.8638419508934022
10.147937774658203,-1.1335735321044922,10.655050277709961,0.9355086088180542,-4.80843210220337,-0.856618106365204
12.354730606079102,-1.3946064710617068,11.451767921447756,0.9495610594749452,-4.81182861328125,-0.8108177781105043
15.508644104003906,-1.7798542976379395,12.241446495056154,1.0879493951797488,-4.746785640716554,-0.8496164083480835
19.667520523071293,-1.3238811492919922,12.976360321044922,1.1671299934387207,-4.470386028289796,-0.9512467384338379
25.215467453002933,-0.816774070262909,11.469520568847656,1.0919690132141113,-3.9867627620697026,-0.9238700270652772
26.60212898254395,-4.994851112365723,4.679669857025147,1.0736100673675537,-3.6693704128265385,-1.0105242729187012
28.338134765625,-7.795890808105469,-0.47561126947402954,2.052681684494019,-3.6149437427520756,-1.3733844757080078
31.842592239379886,-7.595201015472413,1.9922950267791748,3.2916781902313237,-3.343458652496338,-1.2543376684188845
28.55248260498047,-4.285248756408691,-2.9139311313629155,4.445411682128906,-3.002022027969361,-1.0288487672805788
41.33141326904297,3.6876413822174077,7.553173065185547,3.423148393630982,-3.1494250297546387,-0.3647212684154511
34.35976791381837,4.3860673904418945,13.317676544189453,1.893284559249878,-1.7564380168914795,0.015534014441072943
24.68050765991211,4.549691200256348,8.747930526733398,0.2804098129272461,-1.2716590166091921,0.3824598789215088
21.1118335723877,3.4155762195587163,8.109004974365234,-0.9643125534057617,-1.2006024122238161,0.4647800028324128
15.959024429321289,1.5297418832778933,6.345202445983887,-1.7892000675201416,-1.3243666887283327,0.3270898461341858
13.969907760620117,-1.109863042831421,6.585239410400391,-2.0215206146240234,-1.564518690109253,-0.059931565076112754
13.042643547058107,-3.7445204257965092,8.427222251892092,-1.6962412595748904,-1.5440256595611572,-0.4455536901950837
11.67284679412842,-5.977365493774414,10.378920555114748,-0.8633685111999512,-1.2040003538131716,-0.650466024875641
10.834144592285156,-4.901296138763429,12.597145080566406,0.16715487837791443,-0.6011447310447694,-0.7168153524398804
8.87649917602539,-1.6138919591903689,13.671252250671388,0.7317320108413696,0.2808656096458435,-0.6098986268043519
4.203739643096925,0.9972355365753174,11.84419345855713,0.7563134431838989,1.0921329259872439,-0.44980281591415405
-0.9381476044654847,1.9069850444793701,8.630132675170898,0.5371142625808716,1.560028672218323,-0.3838923871517182
-4.507200717926026,1.9810335636138916,5.529843330383301,0.3063578307628632,1.6774570941925049,-0.3877054154872895
-6.080015182495117,1.4455702304840088,4.102022171020508,0.20566430687904358,1.595397710800171,-0.4679917395114899
-5.7235002517700195,1.001312017440796,4.360283374786378,0.1762385368347168,1.5889183282852175,-0.4958193302154541
-5.8329739570617685,0.6334429383277894,5.010517120361328,0.22524145245552063,1.7015696763992312,-0.4793526232242585
-6.045650482177734,0.3754394054412842,5.776759147644043,0.213229313492775,1.9254412651062012,-0.386210709810257
-6.512545585632324,-0.273950070142746,5.524539470672608,0.20511077344417575,2.2354500293731694,-0.29329758882522583
-6.74064588546753,-0.6562583446502686,5.196540355682374,0.1831544786691666,2.5366945266723633,-0.1561495810747147
-6.767315864562988,-0.782919466495514,4.270565032958984,0.13259834051132202,2.8520362377166752,0.044791284948587425
-7.791434288024902,-0.6717215180397035,2.370691537857056,0.08050260692834856,3.05269193649292,0.26438149809837347
-8.727795600891115,-0.06108300015330315,0.7713304758071899,-0.024396987631917003,3.090474367141724,0.470817506313324
-8.055443763732912,-0.0322648361325264,0.782028317451477,-0.19183790683746338,3.0654747486114506,0.6521626710891724
-6.18952751159668,-0.3094781935214997,1.7984044551849365,-0.3302006721496582,3.146802663803101,0.8359792828559877
-4.314898967742921,-0.25833195447921753,2.6876206398010254,-0.40709227323532104,3.36799168586731,1.0260324478149414
-3.139528274536133,-0.013316996395587921,2.489589214324951,-0.44340378046035767,3.6407880783081055,1.185348153114319
-2.958277702331543,0.7731656432151796,1.7907975912094118,-0.46277856826782227,3.7893373966217045,1.265523910522461
-2.0450401306152344,1.5171622037887575,1.5966984033584597,-0.5316902995109559,3.830329418182373,1.2541229724884033
-0.817593276500702,1.8855870962142947,1.7828848361968994,-0.6116697192192079,3.839076519012451,1.1500586271286013
1.0361123085021973,1.8278412818908691,2.9019987583160405,-0.6779135465621948,3.849915027618408,0.9837436079978944
2.911677837371826,1.8359816074371338,3.7624914646148686,-0.7126619219779969,3.9589667320251465,0.7931500077247621
3.789435148239136,2.6214709281921387,3.327861785888672,-0.759115755558014,4.0448102951049805,0.6252908706665039
5.366641521453858,3.0026679039001465,2.6549499034881596,-0.8855579495429994,3.997745990753174,0.47130528092384344
7.300563335418702,2.2341103553771973,2.3016862869262695,-0.8724896907806396,3.8788576126098633,0.33837088942527777
8.66622066497803,2.8206114768981934,2.269311666488648,-0.8081534504890443,3.6587371826171875,0.24209113419055941
11.49745273590088,3.1634051799774174,3.657051324844361,-0.8485085368156434,3.367374897003174,0.1941816508769989
14.779683113098146,2.463347673416138,5.3348755836486825,-0.8597191572189331,3.177716970443726,0.17227932810783386
15.687390327453615,2.0667049884796147,5.343887805938722,-0.7369905710220337,3.016026496887207,0.12271926552057268
15.776125907897951,1.9909998178482058,4.912479400634766,-0.6182173490524292,2.722603559494019,0.07829728722572327
16.71997833251953,1.2044905424118044,4.718889713287354,-0.48385703563690186,2.3448951244354252,0.08221275359392168
16.80532455444336,1.4389393329620361,4.060100078582765,-0.36981552839279175,1.9088701009750368,0.19364646077156067
16.564718246459964,1.372089982032776,2.9081070423126225,-0.2898364365100861,1.3906177282333376,0.3037528395652771
15.383223533630373,1.4416494369506836,1.7110927104949951,-0.15691712498664856,0.8213790059089662,0.37578725814819336
13.213837623596193,1.6564850807189941,0.17502689361572266,0.018672358244657516,0.22334013879299167,0.4083132445812226
10.121918678283693,2.057924747467041,-2.4773592948913574,0.2320724278688431,-0.4652043581008911,0.36452862620353704
7.069575786590577,1.7745515108108523,-4.475534439086914,0.4599349796772004,-1.2819002866744997,0.2974371910095215
15.173376083374023,9.309311866760256,-3.5397725105285645,0.1741926372051239,-2.3293106555938725,0.4428996443748474
68.24543762207031,19.52196311950684,58.6338233947754,-4.262092113494874,-0.8351107835769653,1.5342936515808105
-2.742820024490357,1.362224817276001,-5.101977825164796,-0.4818549454212189,2.7107248306274414,0.07155968993902208
18.683982849121094,-10.10099983215332,17.076465606689453,-1.1716859340667725,1.092782735824585,1.147761940956116
-7.312726497650147,1.9621548652648926,8.218947410583498,-0.047325752675533295,1.6145552396774294,0.5704940557479858
-3.583544492721558,-7.397562503814698,12.827019691467287,0.3053081333637238,0.34693485498428345,-0.03730226308107376
-0.061160147190093994,-7.766990184783936,10.832965850830078,0.5614179968833924,-0.3720053434371948,-0.5280243754386903
4.231005191802979,-3.5952904224395756,11.582223892211914,0.5760458707809448,-0.48017191886901855,-0.771348536014557
7.750542163848878,2.1138660907745366,8.311744689941406,0.2909761667251587,-0.42807665467262274,-0.5889272689819336
8.70857048034668,4.627828598022461,8.23428726196289,-0.019904343411326412,-0.16366246342658997,-0.28869879245758057
7.868098258972168,1.0989515781402588,8.45377826690674,-0.1595916748046875,0.10727087408304216,0.00537082739174366
6.059259414672852,-0.9037320613861084,8.63578510284424,-0.08494123071432115,0.2799070775508881,0.09778717160224915
5.151172161102296,-2.6582667827606206,8.953593254089357,-0.008029211312532425,0.3425422012805939,0.039797961711883545
4.664867401123047,-2.336549043655396,9.210433959960938,0.04401879012584686,0.3335212171077729,-0.049423899501562125
4.544816017150879,0.19550961256027222,9.78120517730713,0.022286599501967434,0.25803929567337036,-0.06448548287153245
4.723026752471925,0.8538551926612855,9.868829727172852,-0.06593530625104906,0.18363125622272494,0.01639317348599434
4.707528114318848,-0.16222470998764038,9.639889717102053,-0.10792899876832963,0.09697353839874268,0.09306525439023973
4.474353790283203,-0.8272460699081421,9.739276885986328,-0.12512129545211792,0.008073895238339903,0.09190893918275835
4.648770809173585,-0.7542257308959961,9.589496612548828,-0.1400527507066727,-0.06679199635982513,0.07210721820592882
4.932106971740723,-0.48341602087020874,9.397742271423342,-0.16395682096481323,-0.09738278388977051,0.06811117380857469
5.045598506927491,-0.02216966450214386,9.509692192077638,-0.19816537201404574,-0.1287074089050293,0.09752302616834642
4.995300769805909,-0.058115288615226746,9.395769119262695,-0.23714739084243774,-0.15505008399486545,0.14070518314838412
4.722033500671387,-0.233440175652504,9.782337188720703,-0.27857419848442083,-0.21249079704284668,0.1766440719366074
4.687926769256593,-0.41196647286415106,9.779769897460938,-0.32922413945198065,-0.31023398041725164,0.20791423320770264
4.909409999847413,-0.4377790987491608,9.555106163024904,-0.3702166378498078,-0.39035654067993164,0.2222121208906174
5.314996242523194,-0.4990670680999756,9.300220489501953,-0.404280424118042,-0.4392517507076264,0.23504988849163058
5.202620029449464,-0.4052956700325012,9.147805213928224,-0.44390028715133667,-0.45279082655906683,0.25497472286224365
4.869281291961671,-0.3519030213356018,9.416296005249023,-0.4967397749423981,-0.48929944634437567,0.2611117362976074
4.984221935272218,-1.3567478656768799,9.237493515014648,-0.44707402586936956,-0.526503324508667,0.20115517079830172
4.767913341522218,-1.572573184967041,9.278036117553711,-0.4077968299388886,-0.5686910152435303,0.1463170349597931
5.068485260009766,-1.2924398183822634,9.341657638549805,-0.38943818211555487,-0.643730640411377,0.11421651393175127
5.242075443267823,-1.2727321386337282,8.954055786132812,-0.40054649114608765,-0.6947169303894043,0.11870837956666948
5.092212200164796,-1.0694129467010498,9.214114189147951,-0.45935568213462835,-0.7615326642990112,0.14313085377216342
5.028728961944581,-1.01803195476532,9.114949226379396,-0.4635689556598664,-0.8309938907623291,0.166436105966568
5.1487627029418945,-1.1724841594696045,9.029381752014162,-0.46098536252975464,-0.9108487963676454,0.1616504192352295
5.347165107727051,-1.2485814094543457,8.981648445129396,-0.45769396424293524,-0.977884352207184,0.15002697706222534
5.433145999908448,-1.1798919439315798,8.924672126770021,-0.41403153538703924,-1.032470941543579,0.14141865074634555
5.097101688385011,-1.0855842828750613,8.797926902770998,-0.45478951930999756,-1.0895019769668581,0.13039962947368625
5.780320644378663,-1.7178672552108767,8.464696884155273,-0.4525130689144135,-1.1169331073760986,0.09125604480504991
5.762102127075195,-1.948869585990906,8.3258056640625,-0.4001153409481049,-1.1100159883499148,0.06813177466392517
5.846014022827148,-2.078495979309082,8.153404235839844,-0.36563706398010254,-1.0863214731216433,0.020719323307275772
6.146904468536378,-1.6831247806549072,7.93634843826294,-0.3226445615291596,-1.0771996974945068,-0.01686748117208481
6.30972957611084,-2.1693992614746094,7.947917461395265,-0.2897354662418366,-1.0226268768310547,-0.049944344907999046
6.103240966796875,-2.871570587158203,7.784829616546632,-0.18582183122634888,-0.9645717144012451,-0.12837098538875583
6.251844882965089,-2.6215965747833256,7.7442522048950195,-0.08496619015932085,-0.9371953010559082,-0.21982388198375705
6.318913936614991,-2.6778392791748047,7.921525001525879,-0.009557945653796196,-0.8721092343330384,-0.2921539247035981
6.517770767211914,-2.1340479850769043,7.882359504699707,0.045976575464010246,-0.8570683002471924,-0.3265474140644074
6.965590953826905,-1.918043613433838,7.602683544158936,0.07949940860271454,-0.8161094188690186,-0.33300390839576727
6.629358768463136,-1.6879770755767822,7.313497543334961,0.11415711790323259,-0.7663538455963135,-0.32809880375862127
6.8929338455200195,-1.1959640979766846,7.850464820861816,0.09278961271047594,-0.7532267570495605,-0.30883193016052246
6.69063663482666,-1.5076726675033572,7.73415470123291,0.1041078492999077,-0.7225898504257202,-0.31054666638374334
6.530471324920655,-1.3330518007278445,7.932116031646729,0.12292085587978363,-0.7364863157272339,-0.3169372379779816
6.612599849700929,-1.1657873392105105,8.139951705932617,0.13087719678878784,-0.7681822180747987,-0.3067440390586853
6.803979873657227,-0.9362556338310243,8.024819374084474,0.1321636885404587,-0.8041613101959229,-0.28647053241729736
6.872893333435059,-0.8022803068161011,7.810878276824952,0.11372818052768707,-0.8322355151176454,-0.2691839933395386
6.815524101257324,-1.334606647491455,7.915122509002686,0.13850380480289462,-0.8451754450798036,-0.27015435695648193
7.017555713653565,-1.5721352100372314,7.582217693328858,0.19130922853946689,-0.8698450326919556,-0.29329642653465277
7.129185676574707,-1.5120720863342285,7.314349174499512,0.22651563584804538,-0.8913447856903076,-0.3282397389411926
6.884850978851319,-1.6023602485656738,7.30996036529541,0.24124905467033386,-0.9028819203376771,-0.38235586881637573
6.460195541381836,-1.8971047401428223,7.47251033782959,0.2567877173423767,-0.9723396301269531,-0.4228379428386689
6.387475967407227,-1.8442823886871338,7.656020164489746,0.30255326628685003,-1.092125415802002,-0.4812969267368317
6.887437343597413,-1.8139902353286745,7.393567562103272,0.35620009899139404,-1.1977933645248415,-0.5488184094429017
6.987347126007081,-1.3830227851867676,7.174147605895996,0.41331005096435547,-1.2791019678115847,-0.6036148071289062
6.7422242164611825,-1.2059324979782107,7.441883087158203,0.4528551399707795,-1.380146622657776,-0.6563593149185181
6.778704643249512,-1.0029828548431396,7.813899040222168,0.5092480182647705,-1.5638095140457156,-0.6983193159103394
7.186108589172363,-0.5774562358856201,7.566203594207765,0.5744993686676025,-1.7666636705398562,-0.7158300280570985
7.1210694313049325,-0.08470356464385986,7.357103824615479,0.6179170608520508,-1.984502673149109,-0.6932258605957031
6.84743595123291,0.18196773529052734,7.8151307106018075,0.6560177206993104,-2.327205896377564,-0.6212441921234131
6.857529640197754,-0.033553704619407654,7.811901569366456,0.6703410148620605,-2.8154633045196538,-0.537641167640686
6.829504013061523,-0.1655232757329941,7.445874691009522,0.7101444005966187,-3.345255613327027,-0.5150539278984071
6.553177833557129,-0.6501438617706299,7.197320938110352,0.7433843612670898,-3.9345538616180424,-0.5732531547546387
8.293232917785646,-0.38509756326675415,7.680804729461671,0.7077872157096864,-4.4225172996521005,-0.5719561576843262
9.255661964416506,0.48963490128517156,7.077690124511719,0.6484185457229614,-4.77592420578003,-0.47649914026260376
11.086993217468263,1.0769283771514893,7.358066558837891,0.5072246193885804,-5.142884254455566,-0.19199702143669128
11.634070396423342,1.461263656616211,7.945316791534425,0.33291891217231756,-5.336446762084961,0.05948480591177941
13.165530204772951,0.7467993497848511,8.20889663696289,0.23664437234401706,-5.048408031463624,0.05988340824842453
15.860444068908693,-0.05592934787273407,8.468396186828615,0.204718679189682,-4.500776767730714,0.004805944859981537
21.269222259521484,-0.5596761703491211,7.801178455352784,-0.05987906828522683,-3.8230528831481934,-0.11367018520832062
24.026788711547855,0.5354474186897279,6.360743522644043,-0.8450830578804017,-3.21840763092041,0.30180433392524725
20.62887001037598,-1.567805290222168,5.418007373809815,-1.6919195652008057,-2.5838775634765625,0.35431542992591863
17.354925155639652,-2.619443416595459,3.6781673431396484,-2.4352605342864995,-2.182720184326172,-0.0632203444838524
16.363554000854496,-3.5313065052032475,-1.80134916305542,-2.732318878173828,-2.5176537036895756,-0.42436173558235174
22.57944107055664,-2.7577357292175293,-3.6250381469726562,-2.434062957763672,-2.8133666515350346,-1.0544426441192627
20.875867843627933,-3.1247203350067143,-5.818993091583253,-1.701077938079834,-2.7781739234924316,-1.9787613153457644
16.913160324096683,-2.9959187507629395,-8.493505477905273,-0.8924399614334106,-3.25682282447815,-2.8289098739624023
26.106981277465824,-0.2455851137638092,-4.618223667144776,-0.31679978966712957,-4.33122444152832,-3.5297369956970215
29.838373184204105,1.2901735305786133,5.274300575256348,-0.2869273126125336,-3.915742874145508,-3.829321146011353
22.31847953796387,1.8433862924575808,3.0260910987854004,-0.7341405153274536,-3.3573670387268066,-3.8272593021392827
21.614505767822266,1.0363249778747559,3.9552292823791504,-1.0865236520767214,-3.138584613800049,-3.991653203964234
17.712390899658203,-0.6090412139892578,3.310962200164795,-1.32143771648407,-2.9481687545776367,-4.124509811401367
15.286558151245117,-1.9807904958724978,3.042507410049439,-1.258927822113037,-2.964415311813355,-4.326605796813965
13.2714319229126,-3.8730781078338627,3.2526862621307377,-0.886879861354828,-3.0015466213226323,-4.402501106262207
11.731822013854982,-5.088776111602784,4.118770599365234,-0.39995077252388006,-3.046938896179199,-4.186234951019288
10.615801811218263,-6.114932537078858,5.5326032638549805,0.10858255624771118,-2.947973489761353,-3.7458431720733647
8.992667198181154,-7.080263614654542,6.953085899353027,0.6411739587783813,-2.695527791976929,-3.191887855529785
7.171764373779297,-7.098659038543702,8.341955184936523,1.1388123035430908,-2.3001656532287598,-2.5621578693389897
6.061821937561035,-6.4323134422302255,9.765363693237305,1.5636080503463747,-1.707453727722168,-1.8742135763168337
5.376691341400147,-5.078182220458984,11.46969985961914,1.7834342718124392,-0.9154598712921143,-1.142387866973877
5.717216968536378,-2.6383898258209233,13.65252208709717,1.6637521982192995,0.12750700116157532,-0.4333265125751496
5.495643138885499,-1.0459911823272705,14.738897323608398,1.1981496810913086,1.4139494895935059,0.23997290432453158
3.718551874160767,-0.05746510624885559,14.012246131896974,0.55773264169693,2.6703691482543945,0.7901896834373475
0.4985000491142273,0.4217472970485688,11.838687896728516,-0.05539805442094803,3.5461075305938725,1.2042695283889773
-2.6898226737976074,0.03445708751678467,8.751361846923828,-0.5032278299331665,4.03185796737671,1.4845914840698242
-5.00318717956543,-0.2188321352005005,5.83116102218628,-0.6828289628028871,4.152150630950929,1.6114225387573242
-6.239659309387207,-0.27368295192718506,4.06447696685791,-0.6993930339813232,3.9667026996612553,1.6778745651245117
-5.930531024932862,-0.02153170481324196,3.5603485107421875,-0.6362951397895814,3.670915126800537,1.6862084865570068
-4.697989463806152,0.6811418533325195,4.55845594406128,-0.6126000285148622,3.4434590339660645,1.6520889997482302
-2.684274196624756,1.9051361083984375,6.416303157806397,-0.7294837236404419,3.4609122276306152,1.6267138719558718
-1.145240306854248,2.923135042190552,8.0921630859375,-1.0163048505783083,3.7313079833984375,1.5952526330947878
-0.4140546619892121,3.270789623260498,8.813299179077148,-1.374895215034485,4.1140289306640625,1.5382411479949951
0.2602413296699524,3.7510449886322026,8.939279556274414,-1.7312674522399902,4.48401689529419,1.4949257373809814
0.9808279275894165,3.9673602581024174,8.796768188476562,-2.064696550369263,4.8289151191711435,1.4804506301879883
1.4337835311889648,3.73018741607666,8.328766822814943,-2.2931571006774902,5.105936527252198,1.429319143295288
2.0799508094787598,3.411858081817627,7.999683380126953,-2.3998332023620605,5.283013820648194,1.3388954401016238
2.8989450931549077,2.986727714538574,7.7560744285583505,-2.41388487815857,5.411124229431152,1.235185503959656
3.7389314174652104,2.9996962547302246,7.6463518142700195,-2.385863065719605,5.499043941497804,1.1357429027557373
4.132840633392335,3.2621326446533203,7.642001152038574,-2.4022436141967773,5.519335269927979,1.060302734375
4.60437822341919,3.6331417560577397,7.798116683959961,-2.474626064300537,5.4843811988830575,0.9991055130958558
5.273339748382569,5.004735946655273,8.623006820678711,-2.62171483039856,5.419078826904297,0.9463613629341127
6.403955936431886,7.206504821777344,9.807353019714357,-2.9528427124023438,5.367198944091797,0.8847978711128236
8.021541595458984,8.103403091430664,10.572097778320312,-3.3999276161193848,5.369563579559327,0.7110556364059448
9.729068756103516,7.250450134277344,10.787988662719727,-3.675166606903076,5.402366161346436,0.39395871758461004
10.948295593261719,6.413951873779297,10.67125988006592,-3.6471476554870605,5.351381778717042,0.049640312790870667
11.72468376159668,7.074732780456543,11.114206314086914,-3.5027928352355957,5.164186477661133,-0.23581241071224215
12.583846092224123,9.330730438232422,12.137484550476076,-3.518599510192871,4.934618473052979,-0.48992258310317993
13.738970756530763,11.479825973510742,12.983803749084474,-3.84398102760315,4.713913917541504,-0.826140284538269
15.24745273590088,12.093350410461428,13.16743564605713,-4.374186992645265,4.504263877868652,-1.2367097139358523
16.69024658203125,11.489764213562013,12.196631431579592,-4.810701370239258,4.27879524230957,-1.6216372251510622
16.550342559814453,11.37904453277588,10.435730934143068,-4.994695663452148,3.9109685420989995,-1.9734644889831543
16.843975067138672,11.61746120452881,9.094714164733888,-4.949785709381104,3.420620918273926,-2.3850555419921875
17.414867401123047,12.167590141296388,7.973226070404054,-4.7214202880859375,2.920177221298218,-2.8581128120422363
18.009174346923828,13.563271522521974,7.614580154418945,-4.474505424499512,2.451200485229492,-3.3244798183441167
19.29703140258789,15.22048854827881,7.624442100524902,-4.3908538818359375,2.125827550888062,-3.6338067054748535
20.029485702514652,15.383471488952638,6.763199806213379,-4.384072303771973,2.0087239742279057,-3.717729806900025
20.081007003784183,12.727253913879396,4.957520008087159,-4.135210990905762,2.004186868667603,-3.647785186767578
18.992345809936527,9.194237709045412,2.285038948059082,-3.4147987365722656,1.9307036399841309,-3.4897086620330815
16.85260772705078,8.109722137451172,-0.7148944139480591,-2.404601335525513,1.6516985893249512,-3.23050332069397
16.06868171691895,8.759883880615234,-1.93925142288208,-1.5893292427062988,1.2074247598648074,-2.875390768051148
16.09651374816895,8.773192405700685,-2.154016733169556,-1.0126692056655886,0.8425536155700684,-2.4901683330535893
14.360453605651857,8.082316398620607,-2.290488481521607,-0.5680323243141175,0.5242399573326112,-2.0614371299743652
8.752995491027834,1.0882023572921755,2.261880397796631,0.5551116466522217,0.006897714454680682,-1.7868447303771973
1.625585436820984,-1.9722819328308105,10.76796054840088,1.4575048685073855,0.37632203102111816,-1.4623851776123047
3.5205872058868413,-21.7813720703125,16.450210571289062,1.7558562755584717,-0.1719988137483597,-1.4305009841918945
12.945465087890625,-32.18406677246094,12.471337318420412,1.6675392389297488,-0.6374966502189637,-0.7598084211349487
4.210282325744629,-9.4285888671875,5.569042682647706,1.876845717430115,-0.7513703107833862,-0.5742229819297792
11.182245254516602,10.60477924346924,11.957659721374513,1.4832184314727783,-0.9592966437339784,0.2621204555034638
11.451343536376953,23.094755172729496,18.13174057006836,0.6932521462440492,-0.2087080180644989,-0.36466428637504583
3.526549577713013,4.126678466796875,10.813784599304201,-0.006970915477722884,0.373488336801529,-0.3532814383506775
2.8739182949066167,-5.898931026458741,8.971250534057617,0.5582762360572816,-0.14057818055152893,-0.3896248042583466
4.896645069122315,0.04893362522125244,10.07304096221924,0.5215324759483339,-0.33129167556762695,-0.21221479773521423
4.902738094329835,4.487276554107667,11.055683135986328,0.20648331940174106,-0.18707013130187988,-0.1494048982858658
4.864164352416992,-0.07499457895755768,10.00684452056885,-0.1424010694026947,-0.06993941962718964,-0.1354850679636002
4.433704853057862,-2.973577737808228,9.210225105285646,-0.13132688403129578,-0.14597181975841525,-0.07003292441368103
3.752616167068482,-0.9958242774009706,9.63099002838135,0.04660683870315552,-0.26145842671394354,-0.08784303814172746
5.500556945800781,-0.7776648402214051,9.828592300415039,0.11905474215745927,-0.2471039891242981,-0.13486047089099887
6.003328323364258,-1.1356744766235352,9.589396476745607,0.09854595363140106,-0.1410546600818634,-0.05897600576281548
5.22068977355957,-0.5951774716377259,9.848963737487795,0.03704503551125527,-0.07386475801467896,-0.06312421709299089
4.987987995147706,-1.543846607208252,9.644433021545412,0.03581515327095986,-0.06338527798652649,-0.07466910779476166
5.000835895538331,-0.9957923889160156,9.65634536743164,0.06185220927000046,-0.05866673961281777,-0.07397425174713135
4.703761100769043,-0.7112708687782289,9.611651420593263,0.03426392003893853,-0.0415613315999508,-0.06681884825229645
4.514054775238038,-0.6705657243728638,9.768518447875977,-0.014250414445996284,-0.06257117539644243,-0.040310218930244446
4.629549980163574,-0.5870270729064941,9.896512031555178,-0.0635836347937584,-0.08832976222038269,-0.021659888327121735
4.621336460113526,-0.7282800674438477,9.710460662841797,-0.09513254463672638,-0.11185226589441301,-0.00014134671073406935
4.431901931762695,-1.010211706161499,9.585936546325685,-0.10623529553413391,-0.13503578305244446,0.0035210072528570895
4.684056282043457,-1.1067936420440674,9.498675346374513,-0.11388979107141496,-0.15812146663665771,0.0017796891042962672
4.742103099822999,-1.1402560472488406,9.33720111846924,-0.12864120304584506,-0.14974245429039001,0.005303789861500263
4.501774787902832,-1.1909453868865967,9.302273750305178,-0.12830527126789096,-0.1460593342781067,-0.00020726922957692298
4.571283817291261,-1.3847270011901855,9.400630950927734,-0.11324252188205719,-0.16211581230163574,-0.010345124639570715
4.663201808929444,-1.4556065797805788,9.340884208679201,-0.09280572086572648,-0.16495764255523682,-0.018335120752453807
4.6757779121398935,-1.4991357326507568,9.278395652770998,-0.07567887753248216,-0.16904500126838684,-0.029151178896427155
4.792474746704102,-1.3021142482757568,9.199482917785646,-0.060814693570137024,-0.16458834707736972,-0.04105868935585022
4.5073652267456055,-1.3511526584625244,9.029243469238281,-0.020445071160793304,-0.16503459215164185,-0.06636255234479906
4.40699577331543,-1.4380030632019043,9.228053092956545,0.019957432523369793,-0.18509149551391602,-0.11189577728509904
4.724348545074464,-1.4305074214935303,9.297272682189943,0.033435497432947166,-0.19827952980995178,-0.14662334322929382
4.79314947128296,-1.316479206085205,9.157498359680178,0.06531825661659241,-0.17795391380786899,-0.18909552693367004
4.826635360717773,-1.337538242340088,9.228416442871094,0.08852778375148773,-0.1541018784046173,-0.21670569479465487
4.883781909942628,-1.5010132789611816,9.16737461090088,0.10312432795763017,-0.128454327583313,-0.21794660389423373
4.840445995330811,-1.4237884283065798,9.229695320129396,0.1455924361944199,-0.11868491768836975,-0.22082734107971191
4.979822158813477,-0.9384561181068422,9.29995346069336,0.12576118111610413,-0.13750021159648898,-0.20952889323234558
4.932484149932862,-1.0504581928253174,9.410585403442383,0.1015969291329384,-0.14594520628452304,-0.197523295879364
4.892889022827148,-0.8944014310836792,9.449825286865234,0.08340850472450256,-0.1672814637422562,-0.17879804968833923
4.883207321166992,-0.7921571135520936,9.589535713195803,0.049961939454078674,-0.1933674365282059,-0.1451498717069626
4.917441844940186,-0.9914236068725586,9.455586433410646,0.033371340483427055,-0.23019304871559143,-0.13436903059482577
4.911053657531738,-0.8045835494995117,9.535833358764648,0.02925479225814343,-0.2682280242443085,-0.13375481963157654
4.836645126342773,-0.7597458958625795,9.434263229370117,0.011966275051236153,-0.3051314055919648,-0.13489744067192078
4.752623558044434,-1.0271321535110476,9.241601943969727,0.016943460330367092,-0.3411118984222412,-0.1529606580734253
4.875945568084718,-0.9922050833702089,9.374156951904297,0.01087304949760437,-0.3772386014461518,-0.17228755354881287
4.954655647277832,-0.8616679906845093,9.409016609191896,-0.00015579466708004475,-0.4124302864074707,-0.18931086361408236
4.944751262664796,-1.0552778244018555,9.365349769592287,-0.012823743745684624,-0.446428269147873,-0.19638124108314514
4.587384700775147,-1.355964541435242,9.391033172607422,-0.013618573546409607,-0.5130708813667298,-0.22435210645198825
4.427959918975831,-1.0830252170562744,9.492902755737305,-0.014838512986898422,-0.627175271511078,-0.2625642418861389
4.1973614692688,-1.0390330553054812,9.578944206237795,-0.03058717213571072,-0.7929931282997132,-0.2882446050643921
4.074024677276612,-0.7874574065208436,9.715708732604982,-0.0392448753118515,-1.0195697546005251,-0.29487788677215576
3.8988392353057866,-0.7361250519752504,9.937576293945312,-0.08688216656446458,-1.302126169204712,-0.3050960898399353
3.6355137825012207,-0.577675759792328,9.986885070800781,-0.14873124659061435,-1.6364116668701172,-0.34683379530906683
3.4894363880157475,-0.6046007275581361,10.393166542053224,-0.20673964917659762,-2.010936498641968,-0.37872207164764404
3.428074836730957,-0.6046497821807861,10.523318290710451,-0.2278214991092682,-2.4522988796234135,-0.3537403345108032
3.5538794994354252,-0.965145766735077,10.705374717712404,-0.20764945447444919,-2.912017822265625,-0.3979346752166748
3.6526474952697754,-1.5545994043350222,11.000787734985352,-0.14147669076919556,-3.455116510391236,-0.4630061388015747
3.4280402660369877,-1.5883584022521973,11.431942939758303,-0.11174387484788896,-4.094266414642335,-0.5459249019622803
2.2567710876464844,-1.5551323890686035,11.83534908294678,-0.06379924714565277,-4.869222164154054,-0.7098151445388794
2.2239646911621094,-3.0063636302948002,11.720224380493164,0.249956876039505,-6.0328125953674325,-1.0398088693618777
3.007050037384033,-3.677143812179566,12.586728096008303,0.6956590414047241,-7.600258350372315,-1.3091816902160645
7.330780982971191,-2.214296340942383,16.33209991455078,0.7650890350341797,-9.012657165527344,-1.5093001127243044
13.49061393737793,-2.288126707077027,16.926465988159183,0.5509610176086426,-9.586741447448732,-1.7913789749145508
21.921422958374027,-1.581616282463074,18.93332290649414,-0.25143727660179144,-9.917890548706055,-1.6055526733398438
29.55855941772461,-2.6574320793151855,18.30057144165039,-1.241281867027283,-9.101667404174805,-1.371888041496277
27.26913070678711,-2.5722591876983647,16.85778045654297,-1.9434202909469607,-8.249085426330568,-1.3022844791412354
23.89687538146973,-5.301714897155762,15.387489318847656,-1.9675204753875732,-7.129483699798585,-1.7633535861968994
18.815607070922855,-6.466763973236085,14.991129875183107,-1.0908621549606325,-5.993410110473633,-2.1741013526916504
18.01202201843262,-3.4920165538787846,15.64638900756836,-0.610044002532959,-4.819452762603761,-2.0351662635803223
16.00060272216797,-2.205910444259644,11.738537788391115,-0.6042839884757997,-3.23080325126648,-1.6533417701721191
34.5126075744629,1.3371527194976807,23.705078125,-1.432525873184204,-1.8193265199661257,-1.4014179706573486
26.108072280883793,-3.4060821533203125,22.022502899169922,-2.2497584819793706,1.53464674949646,-0.6276329755783081
12.712030410766602,-2.6661827564239506,11.68542003631592,-2.558047294616699,3.3698236942291264,-0.010573215782642365
7.455560207366944,-2.3079903125762944,3.4132010936737065,-2.578144073486328,4.047163963317871,0.3783633410930634
5.361893177032472,-2.2492682933807377,0.8676860928535463,-2.33397126197815,4.07628059387207,0.6279531121253968
2.6617052555084233,-1.1033029556274414,-0.644905984401703,-1.8573819398880007,3.960395336151123,0.7469791173934937
1.7316917181015017,1.3664188385009766,-0.6167042255401611,-1.4894938468933105,3.848769903182984,0.7877438068389893
0.5487934947013856,3.63516116142273,-0.028573133051395416,-1.421877145767212,3.7434301376342773,0.8098698258399964
0.3188097178936005,4.169890403747559,1.3733513355255127,-1.5419327020645144,3.6369590759277344,0.7841094136238099
0.9971230030059814,3.6400921344757085,3.0689640045166016,-1.5356770753860476,3.738095283508301,0.7078843116760254
0.3692929148674011,3.4706215858459473,3.1550135612487793,-1.353781342506409,4.022658348083496,0.6174256205558778
-0.9661560654640199,3.4704322814941406,2.414345502853394,-1.1252583265304568,4.220804691314698,0.5078885555267334
-0.8458455801010132,4.164310932159425,1.7782034873962402,-0.9489803910255433,4.2896833419799805,0.5156827569007875
-0.6170574426651001,4.5867886543273935,1.1199508905410769,-0.8351160883903505,4.313965797424316,0.5179226398468018
0.5472995042800903,4.440849304199219,1.7446372509002686,-0.7819301486015321,4.37545108795166,0.4471533596515656
0.9094915986061097,4.201073169708253,1.2256799936294558,-0.6984902024269105,4.526515483856202,0.36428070068359375
-0.4811154007911682,4.269503116607667,-0.45922356843948364,-0.5765188336372377,4.555583953857422,0.24065254628658297
-1.0555453300476074,4.727400302886964,-1.6580007076263428,-0.5390015244483949,4.401206970214844,0.10436436533927917
-0.5068286657333374,4.475159168243409,-1.9912768602371218,-0.5888971686363221,4.176412582397461,-0.05170178040862084
0.8087235689163208,3.7301986217498784,-1.0906825065612793,-0.6273658275604248,3.9877147674560547,-0.22067208588123324
2.934123754501343,3.2982652187347417,0.5778210163116455,-0.6463761329650879,3.920507669448853,-0.31939148902893066
4.115832805633546,2.912643671035767,0.83005028963089,-0.6596384048461914,3.9866616725921635,-0.3372983634471894
4.538842678070069,2.7418735027313237,-0.04364072903990746,-0.635762393474579,3.958876132965088,-0.30701336264610296
5.2770233154296875,3.1528825759887695,-0.8358499407768251,-0.6470308303833008,3.7242207527160645,-0.2100760787725449
7.047602653503418,2.7341921329498295,-0.7008203268051147,-0.6532381176948548,3.3873467445373535,-0.1218349263072014
9.727340698242188,1.8942956924438477,0.272678017616272,-0.5611288547515869,3.072968721389771,-0.024842495098710064
12.69253444671631,1.9326424598693848,1.289842486381531,-0.39536061882972723,2.8164119720458984,0.15134961903095248
14.57761001586914,2.850876808166504,1.4861938953399658,-0.29783254861831665,2.538240432739258,0.36493942141532904
16.111242294311527,2.6936402320861816,1.4928927421569824,-0.2463498562574387,2.187276840209961,0.5069263577461244
17.996183395385746,1.6465207338333132,1.8178256750106814,-0.08565982431173326,1.8405756950378418,0.6015866994857788
18.54057884216309,1.834991693496704,1.5385872125625613,0.1633378267288208,1.4738339185714724,0.7240809202194214
17.34675788879395,2.725062370300293,0.7128876447677612,0.3229349553585053,1.006810784339905,0.8434183597564697
15.750729560852053,3.050264120101929,0.7399299144744873,0.3955800533294678,0.49186733365058904,0.8295185565948486
13.488514900207521,3.0516438484191895,0.4203371703624726,0.46986755728721624,0.07220254838466644,0.6675729751586914
27.336727142333984,8.210841178894045,-3.0764391422271733,-0.37213936448097235,-1.1681501865386963,0.8974054455757142
54.85435485839844,5.732300281524659,26.95617485046387,-1.4529207944869997,-2.2911360263824467,1.9626898765563965
17.134124755859375,5.684518814086914,18.403024673461918,-0.7015377879142762,1.7987360954284668,0.5892167687416078
-6.337516307830811,-8.251709938049318,6.978724956512452,-1.0371425151824951,0.09098654240369798,0.38843426108360296
0.2912355661392212,-5.188628673553468,13.690596580505373,0.3107030093669892,-0.5963401794433594,-0.026853119954466823
-1.5715808868408203,0.44329196214675903,9.923433303833008,0.5968295931816102,-1.219285845756531,-0.3959130048751831
8.008825302124023,-1.3100824356079102,10.989709854125977,0.4634772539138794,-0.6921560168266297,-0.6875699758529663
8.695415496826172,-3.823583364486695,7.783085823059082,0.18644855916500094,-0.5949177742004395,-0.6147832870483398
8.628001213073732,4.540175437927246,7.764473915100098,0.2205774635076523,-0.171558678150177,-0.31340584158897405
8.522385597229006,1.8251377344131472,8.807513236999513,-0.1089361533522606,0.14533679187297824,-0.09679286181926727
6.154393196105957,-1.1569514274597168,9.094514846801758,-0.17939195036888123,0.2952128350734711,0.003577188588678837
5.383133888244629,-1.621974229812622,9.48031520843506,-0.044873002916574485,0.21922463178634644,0.06541334092617035
4.949446201324464,-2.2425403594970703,9.22702407836914,-0.03394570201635361,0.16803498566150668,0.028338976204395294
5.107922554016113,-1.5266048908233643,9.277013778686523,0.005032979883253574,0.12907183170318604,-0.002572554396465421
5.3432374000549325,-0.1782684326171875,9.420184135437013,-0.026555873453617096,0.13448147475719455,0.0017509839963167906
5.158795833587647,-0.05456744134426117,9.569424629211428,-0.08205871284008026,0.10553997009992601,0.06778692454099657
5.1303467750549325,-0.9303252696990967,9.505150794982912,-0.10131655633449554,0.059690158814191825,0.09012839198112488
5.045254707336426,-1.2109459638595583,9.388684272766115,-0.08556634187698364,0.019391875714063644,0.06484223157167436
5.280169963836671,-0.8992984294891357,9.32094478607178,-0.08452398329973222,0.003487376496195793,0.044290963560342796
5.189168453216554,-0.2106454521417618,9.451860427856445,-0.12418029457330705,-0.01182851754128933,0.06268149614334106
5.092995166778565,-0.462382972240448,9.635626792907717,-0.16373994946479797,-0.046296190470457084,0.10203118622303009
4.954784870147706,-0.9150032997131348,9.479768753051758,-0.17431515455245972,-0.09277112782001495,0.11535390466451646
5.164795875549316,-1.0211429595947266,9.311513900756836,-0.181378111243248,-0.13932451605796814,0.12728334963321689
5.080880165100098,-0.9098002910614014,9.256579399108888,-0.20659144222736361,-0.17360913753509521,0.14689227938652039
5.018563747406007,-0.8056957721710205,9.259758949279787,-0.23095084726810458,-0.20152795314788818,0.15334294736385348
5.0151166915893555,-0.9961636662483216,9.130075454711914,-0.26962369680404663,-0.23647546768188477,0.16260276734828952
5.106817245483398,-0.9417584538459779,9.374638557434084,-0.3017927408218384,-0.2598314583301545,0.1600147783756256
5.110909461975098,-1.2831025123596191,9.151303291320803,-0.30554431676864624,-0.25975307822227484,0.1430972665548325
5.460797309875488,-0.8976308107376099,9.104084968566896,-0.32973054051399237,-0.2545471787452698,0.16527728736400607
5.658266067504883,-1.0615888833999636,8.958118438720703,-0.35077911615371704,-0.21998876333236694,0.18198208510875705
5.617157936096191,-1.4191058874130251,8.81532955169678,-0.33776646852493286,-0.1645857244729996,0.16943374276161194
5.409197807312012,-1.6626503467559814,8.864835739135742,-0.28619176149368286,-0.13000561296939853,0.1724215000867844
5.3336944580078125,-1.3145842552185059,8.936826705932617,-0.273390144109726,-0.1057204157114029,0.15960912406444552
5.355079650878906,-1.604603171348572,8.806942939758303,-0.2405378818511963,-0.07942911982536316,0.14427743852138522
5.173761367797852,-1.5535247325897217,8.837958335876467,-0.20382660627365112,-0.059170197695493705,0.14947187900543213
5.236439228057862,-1.6210752725601199,8.764532089233398,-0.1714208424091339,-0.05928852781653405,0.11036772280931474
5.368379592895508,-2.3248090744018555,8.597909927368164,-0.11255692690610887,-0.052581749856472015,0.08811133354902269
5.249736785888672,-2.2446005344390874,8.477117538452148,-0.03859620541334152,-0.010467657819390297,0.08210691064596178
5.255245208740234,-1.7789995670318604,8.624711990356445,-0.0055262139067053795,0.020147075876593593,0.04988326132297516
4.873086929321289,-2.093751907348633,8.632806777954102,0.007475269492715598,0.029750607907772064,0.0040631163865327835
4.910434246063233,-1.8175088167190554,8.994081497192383,0.026250194758176804,0.008124264888465406,-0.011916941031813622
4.701584815979004,-1.7161705493927002,9.13039779663086,0.023564996197819713,-0.023369772359728817,-0.037451498210430145
4.639527320861816,-2.1710984706878667,9.007762908935547,0.025090482085943222,-0.07309425622224809,-0.0735512226819992
5.061197757720948,-1.6999546289443972,8.824739456176758,0.04022496566176415,-0.1161351352930069,-0.09763409197330475
4.8425564765930185,-1.4749718904495241,8.724861145019531,0.04906148836016656,-0.1359911561012268,-0.11986228078603746
5.1192169189453125,-1.1476854085922243,9.047109603881836,0.020694786682724956,-0.16373829543590548,-0.11236384510993958
4.527597904205323,-1.069543242454529,9.232122421264648,-0.003758047241717577,-0.21434472501277926,-0.10265205800533295
4.747359275817871,-1.3176124095916748,9.549809455871584,-0.010991591028869154,-0.327376127243042,-0.11353905498981476
5.334317207336426,-1.461757302284241,9.170512199401857,-0.03949216380715371,-0.3890700340270996,-0.12651254236698153
5.311879634857179,-1.0371551513671875,9.043814659118654,-0.029447959735989574,-0.4393549859523774,-0.14368048310279846
4.976458072662354,-0.48964476585388184,9.225041389465334,-0.09921693801879883,-0.4927897155284882,-0.11243124306201935
5.028393268585206,-1.2727303504943848,9.375338554382326,-0.1817742884159088,-0.6213201880455018,-0.09510614722967149
4.696556568145753,-1.681575059890747,9.433801651000977,-0.20593664050102234,-0.7769940495491029,-0.11124250292778015
4.4572157859802255,-1.2291179895401003,9.384667396545412,-0.2196892499923706,-0.9850200414657593,-0.1538657993078232
4.681638717651367,-1.1985771656036377,8.950524330139162,-0.2526469826698303,-1.1814004182815554,-0.210284024477005
4.105469703674316,-1.1636884212493896,9.453826904296875,-0.27312991023063665,-1.4253132343292236,-0.26586681604385376
4.107714176177979,-0.7943004369735718,9.692405700683594,-0.329736739397049,-1.7436048984527588,-0.32016578316688543
5.0015363693237305,-1.384861707687378,9.326344490051271,-0.3750365376472473,-2.065171241760254,-0.3673256933689118
5.312603950500488,-0.9653818011283876,9.861242294311523,-0.33544933795928955,-2.291414022445679,-0.35683518648147583
4.996133804321289,-2.013833522796631,9.293599128723146,-0.17536164820194247,-2.5578136444091797,-0.33493030071258545
6.1425185203552255,-0.7736681699752808,9.03284549713135,-0.08327654004096985,-2.873547792434693,-0.3535083532333374
6.12225103378296,-0.9928320646286011,8.543880462646484,-0.025954000651836395,-3.253695487976074,-0.3498056828975678
5.750993728637695,-0.5089815855026245,8.685323715209961,-0.05359166860580444,-3.6231033802032475,-0.30769169330596924
7.078921794891358,-1.085062026977539,9.051554679870607,-0.007198047358542682,-3.9523539543151855,-0.155805766582489
7.227509021759034,-1.0249673128128054,9.204138755798342,0.026254868134856228,-4.319991111755371,-0.0001308098580921069
8.80044460296631,-1.5445144176483154,10.323382377624513,-0.13024000823497775,-4.613523960113526,0.06683798134326935
10.629628181457521,-1.7118103504180908,12.008626937866211,-0.25928124785423284,-4.581005096435547,0.1939360946416855
12.019367218017578,-3.5221250057220463,11.348687171936037,-0.23754358291625977,-4.288639545440675,0.1359399110078812
15.937479019165039,-5.825921058654785,10.57882308959961,0.03617843613028527,-4.151795387268066,-0.17374034225940707
21.98590087890625,-6.374521732330323,10.587182044982912,0.4592698812484741,-3.7017364501953125,-0.5832342505455018
26.15090370178223,-6.377669334411621,4.4085049629211435,1.0840862989425661,-3.4482998847961426,-1.073397755622864
27.181907653808594,-3.64880919456482,-2.789245128631592,1.5479402542114258,-3.7514274120330815,-1.5329679250717165
29.306663513183594,-1.0843883752822878,-4.27372932434082,1.5803747177124023,-4.552706241607667,-1.868541955947876
30.422941207885746,-0.5609472393989564,-1.3613901138305664,1.6354709863662722,-4.809056758880616,-2.2251219749450684
31.818157196044922,0.12735390663146973,-0.06426000595092773,1.4727159738540652,-5.315329551696777,-2.4253051280975346
43.024620056152344,0.4963072240352631,12.837175369262695,1.039747714996338,-4.968423366546632,-2.3423020839691167
34.656890869140625,0.8663431406021118,15.812489509582521,0.2366727590560913,-3.600549936294556,-2.0128889083862305
32.6173439025879,0.8656015992164613,17.75586700439453,-0.7513225078582764,-2.4490222930908203,-1.6254030466079714
26.356971740722656,-0.7253093719482422,17.558177947998047,-1.4156086444854736,-1.0191737413406374,-1.4010415077209473
18.554180145263672,-2.742538690567017,15.472906112670898,-1.7813453674316406,-0.1216976121068001,-1.233858942985535
11.47446918487549,-4.776361942291261,13.323391914367678,-1.6508413553237917,0.40270930528640747,-1.1755975484848025
5.414402961730957,-6.127681255340577,11.523634910583498,-1.0961015224456787,0.5572777986526489,-1.2867523431777956
2.9902436733245854,-6.341449737548828,12.440553665161133,-0.3095974922180176,0.61950021982193,-1.482039451599121
0.8764505386352539,-5.761237144470215,12.884592056274414,0.4552087485790253,0.9324197769165039,-1.5809180736541748
-1.9266700744628906,-4.62891960144043,11.75941276550293,0.9837245941162109,1.376148343086243,-1.5737330913543701
-5.316032409667969,-3.00082278251648,11.05513095855713,1.1135766506195068,1.8091685771942139,-1.5001596212387087
-7.575978755950929,-2.198166847229004,10.00695323944092,0.8243889212608339,2.1713480949401855,-1.296762824058533
-9.810709953308107,-3.673348188400269,7.721439361572266,0.5102580189704896,2.404038429260254,-1.081754446029663
-10.70079231262207,-4.48845100402832,6.357944011688233,0.3283272385597229,2.4946901798248295,-0.8764098882675171
-10.733599662780763,-4.396417140960694,5.12857723236084,0.16440853476524353,2.5989341735839844,-0.5649566054344178
-11.94280529022217,-4.145959377288819,3.3983397483825684,-0.023129435256123546,2.6150145530700684,-0.23571069538593295
-10.95735836029053,-3.3018000125885014,3.724807500839234,-0.3177609443664551,2.5969803333282475,0.144256666302681
-9.251194953918459,-3.2110238075256348,4.17542839050293,-0.6173349618911743,2.820471048355103,0.5294429063796997
-8.832761764526367,-3.268794059753418,3.3908958435058594,-0.7167890071868896,3.118955135345459,0.8024379611015321
-7.929866313934327,-2.432173728942871,3.2725784778594975,-0.7497124075889589,3.317512035369873,1.0408209562301638
-5.629899501800538,-1.1135449409484863,3.602119684219361,-0.8705664873123169,3.6262238025665288,1.2851728200912478
-5.189940452575684,-0.6023088097572328,1.9887148141860964,-0.9351028800010682,3.925400733947754,1.4368842840194704
-5.217041492462159,0.7861501574516297,0.23638500273227694,-0.966567099094391,3.992438077926636,1.5128662586212158
-3.144846677780152,2.712678194046021,0.3722151517868042,-1.1290677785873415,3.960211753845215,1.5418201684951784
0.0250785518437624,2.934378147125244,1.350678324699402,-1.2779498100280762,3.998745679855347,1.4359341859817507
2.549453973770142,2.523031234741211,1.6162571907043457,-1.2297750711441042,4.086953163146973,1.2017747163772585
4.778297424316406,2.3337631225585938,1.7448252439498904,-1.018268942832947,4.127626895904542,0.905752420425415
7.178534984588624,3.6960752010345463,2.419836282730103,-0.8927533626556396,4.146865367889405,0.6609777212142944
10.3575439453125,4.517924785614015,2.986799001693726,-0.9534766077995301,4.197412490844727,0.46180206537246704
13.480243682861328,3.7148804664611816,2.321354150772095,-0.9648565053939819,4.210038661956788,0.26645416021347046
15.751421928405763,2.709249973297119,0.6864441633224487,-0.7785830497741699,4.048205375671387,0.10995968431234361
17.03474617004395,2.699441909790039,-0.3839662373065949,-0.531299650669098,3.6492624282836914,0.0559954158961773
18.66171646118164,1.9453307390213015,-0.4378383755683899,-0.31985992193222046,3.1624286174774174,0.11482512205839158
18.23832511901856,0.7576081156730653,-1.154999375343323,-0.06429345160722734,2.6400914192199707,0.2738481462001801
15.466738700866701,0.4834604263305664,-2.670572280883789,0.13402558863162997,1.9876981973648074,0.5278596878051758
12.85791873931885,-0.43495404720306396,-3.579243421554566,0.14558753371238708,1.2419797182083132,0.906151294708252
19.297161102294922,3.4305176734924316,-9.944029808044435,-0.17444932460784912,0.3802734315395356,1.4758948087692263
87.97084045410156,16.33819389343262,29.64041519165039,-2.9022076129913335,-0.9326359033584595,3.1776287555694585
16.21242904663086,19.60641098022461,1.4124438762664795,0.022293508052825928,2.5043067932128906,0.39556428790092474
10.450026512145998,-9.25403690338135,11.739203453063967,-1.2813147306442263,2.0840935707092285,0.6669681668281556
-9.05710220336914,-7.952345371246339,10.212812423706055,-0.09964761137962341,1.5024806261062624,0.765470325946808
-3.2304821014404297,1.708315134048462,12.128249168395998,0.6441847681999208,0.5603322982788086,-0.25590392947196966
2.489012479782105,-11.177798271179201,11.895800590515138,0.7008481025695801,0.19506388902664185,-0.8320418000221254
3.3173048496246342,-2.855290412902832,10.982413291931154,0.5108507275581361,-0.11746898293495178,-0.6126202940940858
6.56440544128418,5.763995170593262,9.797433853149414,0.3246569931507111,-0.15993812680244446,-0.5118534564971924
7.009221553802491,1.9197909832000732,9.289031982421875,-0.10374143719673157,0.016496954485774044,-0.21977007389068604
6.499114036560059,0.21018970012664795,8.726222038269045,-0.09938321262598039,0.10063014179468156,0.01461690105497837
6.008464336395265,-0.7494837045669556,8.759776115417482,-0.012174080125987531,0.1760336458683014,0.11588113754987718
5.72440242767334,-1.7491469383239746,8.72932529449463,0.0022347434423863888,0.2739299833774567,0.09386876970529558
5.145718574523926,-1.359690308570862,9.077497482299805,-0.005419861525297165,0.3758148849010468,0.032596655189991
4.405311107635499,0.01698194444179535,9.855242729187013,-0.04169740527868271,0.37338441610336304,0.05844951793551446
3.928126811981201,0.45792150497436523,10.308807373046875,-0.1545843482017517,0.252707451581955,0.14388015866279602
3.844597816467285,-0.6937166452407837,9.91824245452881,-0.1533704847097397,0.09238313138484955,0.1542494297027588
3.8668549060821538,-1.3059202432632449,9.977022171020508,-0.08608882129192352,-0.04602859541773797,0.07265472412109375
4.142305850982667,-1.2444576025009157,9.899478912353516,-0.076712004840374,-0.15240107476711276,0.0003893449902534485
4.567671298980714,-0.8682312965393066,9.59823989868164,-0.08508483320474626,-0.21933341026306152,-0.027748765423893932
4.849290370941163,-0.2758054435253144,9.615357398986818,-0.11396167427301408,-0.2588425874710083,-0.006669715978205204
5.017189979553223,-0.5291082859039307,9.477300643920898,-0.12852692604064941,-0.28480556607246404,0.03524405509233475
5.026423454284668,-0.8334946036338807,9.37049961090088,-0.12353108823299408,-0.2955528497695923,0.05602733418345452
5.010167121887207,-0.9778283238410951,9.355588912963867,-0.1360057443380356,-0.299932062625885,0.04765718057751656
5.06785535812378,-1.1900469064712527,9.156097412109375,-0.12883350253105164,-0.28810319304466253,0.02412875182926655
4.847147464752198,-0.7851109504699707,9.30485725402832,-0.13631542026996615,-0.2860458493232727,0.014369999058544638
4.84440803527832,-0.6552852988243104,9.397006034851076,-0.14213709533214572,-0.30756101012229925,0.024568263441324234
4.723296642303468,-1.128735065460205,9.224639892578125,-0.12849827110767367,-0.32777464389801025,-0.003973814193159343
4.843798637390137,-1.1655462980270388,9.198273658752443,-0.09806987643241882,-0.355311006307602,-0.03624596074223519
4.882255077362061,-1.127507567405701,9.300875663757326,-0.09583671391010284,-0.38258263468742376,-0.05801158398389816
4.797797203063965,-1.0574892759323122,9.119618415832521,-0.0837361440062523,-0.4029830396175385,-0.08243900537490845
4.899302005767823,-0.778732717037201,9.397398948669435,-0.08230055868625641,-0.45028951764106756,-0.08768416941165924
5.072684764862061,-0.8409093618392944,9.25064468383789,-0.08157557994127275,-0.48833268880844116,-0.08067379891872406
4.999634265899659,-0.9443976879119873,9.00515651702881,-0.06609452515840532,-0.5103250741958618,-0.08921266347169877
5.051125049591065,-0.8865863084793091,9.159451484680178,-0.05657210946083069,-0.5345796346664429,-0.09420516341924669
4.786308288574219,-1.1957868337631228,8.925538063049318,-0.023685587570071224,-0.5637738704681396,-0.12518762052059176
4.665850639343262,-1.4216969013214111,9.27699375152588,0.011138553731143476,-0.630480170249939,-0.17446115612983704
5.240724563598633,-0.9449001550674438,9.334407806396484,0.038199394941329956,-0.6982278227806092,-0.1929645538330078
5.414777755737305,-1.2391070127487185,8.671133995056154,0.04332533106207848,-0.7283801436424256,-0.2082267701625824
5.600378036499023,-0.772384762763977,8.542281150817873,0.026454092934727672,-0.7418516874313354,-0.2145187705755234
5.007878303527832,-0.8294332623481752,8.978832244873047,0.01728281937539578,-0.7726559638977051,-0.22550812363624573
4.884343147277832,-0.9297749400138856,9.302659034729006,0.01569928787648678,-0.8773951530456543,-0.20365919172763827
4.648343563079835,-0.8646726608276367,9.405908584594727,0.04150457680225372,-1.0165331363677979,-0.20064865052700046
5.205862998962402,-0.5911537408828735,9.276388168334961,0.055491182953119285,-1.1641149520874023,-0.21803490817546847
5.560296535491944,-0.47264599800109863,8.76728916168213,0.04594508558511734,-1.2892102003097536,-0.22284890711307528
5.500197410583496,-0.33687394857406616,8.775403022766115,-0.003938519395887852,-1.4044302701950075,-0.19447380304336548
5.439566612243652,-0.561901330947876,9.259655952453615,-0.018884312361478806,-1.5430679321289062,-0.18069364130496982
5.278007030487061,-1.2721525430679324,9.147635459899904,-0.027732724323868755,-1.6725754737854004,-0.2593207657337189
6.163084506988526,-2.1545534133911133,9.170596122741701,0.12292318046092987,-1.7230106592178347,-0.33778265118598944
6.253125667572022,-1.088338851928711,8.756169319152834,0.17761051654815674,-1.8342355489730837,-0.38235437870025635
6.321471691131593,-1.2275917530059814,8.320897102355959,0.21037982404232028,-1.9258128404617312,-0.43023842573165894
6.215388298034668,-0.9040292501449585,8.76211166381836,0.22646892070770264,-2.0673167705535893,-0.45876646041870117
6.189064979553223,-0.6648597717285156,8.696547508239748,0.2322467565536499,-2.2378213405609135,-0.4712595641613007
5.884362697601319,-0.7327591180801392,8.314813613891602,0.24576918780803683,-2.477141857147217,-0.4967168867588044
6.139312267303468,-0.7783920764923096,8.283328056335451,0.3443142473697663,-2.7970883846282963,-0.5606446266174316
6.487065315246582,-0.5747570395469667,7.725334644317628,0.4730638861656189,-3.142697095870972,-0.6003692150115967
7.040008544921875,0.12266828119754791,7.9480862617492685,0.5421379208564759,-3.500974178314209,-0.5972682237625122
7.350502967834473,0.569596529006958,8.641091346740724,0.5590989589691162,-3.829635858535767,-0.5092802047729492
8.343321800231935,1.5587432384490967,9.867654800415039,0.5472905039787294,-4.183251857757569,-0.3147321343421936
10.099112510681154,1.1909126043319704,10.663215637207031,0.3971213102340698,-4.449506282806397,-0.08621184527873993
12.698434829711914,0.9385882616043091,11.018243789672852,0.07092404365539551,-4.5429348945617685,0.1698170751333237
15.285634040832521,0.9610441327095033,11.609403610229492,-0.36752781271934515,-4.533420562744141,0.44446310400962835
19.082530975341797,1.4532576799392702,12.741692543029787,-0.7967389225959779,-4.328402042388917,0.603421688079834
21.011705398559574,1.8469012975692751,11.963115692138672,-1.3381400108337402,-3.991851091384888,0.6079705953598022
25.801544189453125,-1.8081361055374148,8.745934486389162,-1.941263794898987,-3.6507434844970703,0.3406516909599304
22.213548660278324,-11.977239608764648,-2.127900838851929,-0.9152086973190308,-3.7790553569793706,-0.4185261130332947
28.828565597534183,-11.607567787170412,-1.1997648477554324,1.070961117744446,-4.0310683250427255,-0.840465784072876
30.27120399475098,-7.835358142852784,-1.095463752746582,2.53612494468689,-3.5629029273986816,-0.732843577861786
35.89549255371094,-3.935527563095093,-0.012383460998535156,2.7929558753967285,-3.573239088058472,-0.40357002615928655
39.031402587890625,-0.9884670972824097,13.049902915954592,2.1751191616058354,-2.362100124359131,-0.16587920486927035
26.816524505615234,1.0029283761978152,9.088760375976562,1.3234248161315918,-1.1395924091339111,-0.2608346641063691
20.12022972106934,0.7920313477516175,6.170865535736085,0.3862511813640595,-0.9372943639755249,-0.5250732302665712
14.509501457214357,0.32103279232978826,4.39432430267334,-0.3413512706756592,-1.194174647331238,-0.9533106684684755
12.60499382019043,-0.5403170585632324,5.207238674163819,-0.9466230273246766,-1.6487421989440918,-1.3732875585556032
13.541635513305664,-2.545700311660767,7.6646084785461435,-1.3948540687561035,-1.687042474746704,-1.620200037956238
12.751100540161133,-6.360224723815918,10.035188674926758,-1.37642502784729,-1.2890471220016482,-1.6494715213775635
10.890085220336914,-9.386011123657227,11.839604377746584,-0.6972310543060303,-0.6208109259605409,-1.5277868509292605
7.851968288421632,-8.417687416076662,12.503323554992678,0.22110745310783386,0.18344689905643466,-1.2405414581298828
3.782942771911621,-5.831968784332276,12.23647212982178,0.9272531270980835,0.9330364465713501,-0.9548488259315492
0.08935634791851044,-2.75341796875,10.987226486206055,1.1749309301376345,1.571058750152588,-0.6423241496086122
-2.59991455078125,-0.6609510183334351,9.249726295471193,1.0613317489624023,2.0517013072967534,-0.36166605353355413
-5.496243476867676,0.3969214260578156,6.990802288055421,0.8543380498886108,2.354770421981812,-0.23870030045509338
-7.4361281394958505,0.6835066080093384,5.243202686309815,0.6335818171501161,2.4248840808868413,-0.27218687534332275
-8.41579341888428,0.21521459519863131,4.425583362579347,0.5013072490692139,2.377106904983521,-0.3587740659713745
-8.728419303894045,0.03238717466592789,4.100319862365723,0.46058422327041626,2.3475830554962163,-0.4988242685794831
-8.169955253601076,0.3781608641147614,4.925306797027589,0.3272671103477478,2.4058506488800053,-0.6079751253128052
-7.749246120452882,0.29787793755531317,5.045907974243164,0.05840545520186425,2.6369750499725346,-0.6263571977615356
-8.34346103668213,-0.6237333416938783,4.1794142723083505,-0.1782369613647461,2.8764107227325444,-0.5646388530731201
-8.63729476928711,-1.3760278224945068,2.99750304222107,-0.31605753302574163,3.0274405479431152,-0.413066565990448
-8.363259315490724,-1.3489650487899782,2.379765033721924,-0.39953768253326416,3.104501008987427,-0.20335128903388977
-7.344231128692628,-0.8672542572021484,2.5560526847839355,-0.5514081716537476,3.198843002319336,0.040140498429536826
-6.3664307594299325,-0.6674138307571411,2.5905435085296635,-0.7160855531692505,3.3309838771820073,0.2657759189605713
-4.657208919525147,-0.11029024422168732,3.2800524234771733,-0.8935688734054565,3.507916688919068,0.4654209911823273
-2.379493236541748,0.45288407802581787,3.944982290267945,-1.0866192579269411,3.798032760620117,0.6393632292747499
-0.9282903671264648,0.5331628322601318,3.3734343051910405,-1.1704747676849365,4.106535911560059,0.742258369922638
-0.19107496738433838,1.326437592506409,2.3224070072174077,-1.131568789482117,4.263375282287598,0.7717539668083192
1.5532966852188113,3.064707517623902,1.72627592086792,-1.1714378595352175,4.289484977722168,0.7402173280715942
4.300713062286378,3.036428928375244,1.4640748500823975,-1.2412002086639404,4.267444133758546,0.5775728225708008
7.715044498443604,2.114647388458252,2.0713546276092534,-1.1852529048919678,4.236650466918945,0.3870700895786286
10.920377731323242,1.3121075630187988,2.384800910949707,-1.02472460269928,4.263522148132324,0.2851133048534394
12.930199623107912,0.7965905666351318,1.5321497917175293,-0.8585840463638306,4.207064151763917,0.30357316136360174
15.188398361206055,-0.6606873273849487,0.38154536485671997,-0.7470047473907471,3.9914057254791264,0.4418545961380005
16.495410919189453,-1.728961706161499,-0.6900208592414857,-0.5937548875808716,3.609691619873047,0.7019616961479188
16.658740997314453,-1.536631226539612,-1.5595959424972536,-0.5052313208580018,3.079615592956543,1.1035906076431277
14.901162147521974,-1.9493733644485476,-3.883919954299927,-0.5443993210792543,2.4654135704040527,1.588698387145996
10.736462593078615,-2.2759215831756596,-7.229337692260742,-0.6148779392242432,1.577902436256409,2.1108603477478027
39.24476623535156,9.475115776062013,-12.908798217773438,-1.8919117450714111,-0.12313781678676605,2.743702650070191
84.36959075927736,45.99065399169922,37.4466552734375,-0.2749809920787812,1.7967662811279297,1.7756170034408572
9.17125129699707,10.64532470703125,-2.7445137500762944,-1.0786989927291872,2.101548671722412,-0.7848091125488281
1.4616641998291016,-12.518216133117678,12.282918930053711,-0.8481470942497255,2.745790958404541,0.4891824424266816
-9.83033561706543,11.710630416870117,15.863856315612795,0.2750677168369294,1.5600093603134157,0.0948939323425293
3.703561782836914,-9.34068012237549,12.242089271545412,0.6721182465553285,0.9267616271972656,-1.0158363580703738
3.142763614654541,-14.60433864593506,9.743130683898928,0.3234362006187439,0.5765300393104554,-0.1995932310819626
3.364034652709961,2.1279282569885254,11.245442390441896,0.3939754366874695,0.11999206990003587,-0.27358973026275635
4.883852481842042,-4.32932996749878,8.649091720581055,0.3955293297767639,0.15903061628341675,-0.5706135630607606
6.399111747741699,2.8677291870117188,9.502693176269531,0.3221808671951294,0.2925691902637482,-0.47522294521331787
5.853380680084229,4.4790754318237305,9.933149337768555,0.04730355739593506,0.30557128787040716,-0.13739953935146335
5.475436687469483,1.2858953475952148,9.200103759765625,-0.1612402051687241,0.33392423391342163,0.10779824107885362
4.855611324310304,-3.1563358306884766,8.685933113098146,0.000303388893371448,0.2705941498279572,0.10566204786300659
4.492618560791016,-1.6812900304794314,9.433547973632812,0.1076064631342888,0.23926004767417908,-0.060604792088270194
4.201399803161621,0.22107793390750888,10.126434326171875,0.04009015485644341,0.16583818197250366,-0.12602651119232178
4.151695728302003,0.8421027660369873,10.170386314392092,-0.05651189386844635,0.04972449317574502,-0.025256548076868057
4.615755558013917,0.3560049235820771,9.909147262573242,-0.1543615460395813,-0.03130108863115311,0.09329842776060106
4.7576966285705575,-0.4623110890388489,9.594420433044435,-0.17704863846302035,-0.10013952851295471,0.12247767299413682
4.792415618896484,-0.9163271188735962,9.388216018676758,-0.13931488990783691,-0.14751051366329196,0.08246768265962602
4.952277660369874,-0.6170505285263062,9.472620964050295,-0.09491048008203508,-0.185451477766037,0.05950782075524331
4.9810194969177255,-0.29643836617469793,9.504155158996584,-0.132507398724556,-0.1923504322767258,0.07284219563007355
4.973651409149171,-0.20200930535793307,9.416768074035646,-0.1758106201887131,-0.21345794200897217,0.10054817050695421
4.91651725769043,-0.18992118537425998,9.485233306884766,-0.21641886234283447,-0.2342786639928818,0.1298976391553879
4.727287769317628,-0.60331130027771,9.42338752746582,-0.23706379532814026,-0.2881989777088166,0.13272961974143982
4.640725135803223,-1.158196568489075,9.3218469619751,-0.21961677074432373,-0.3336220383644104,0.09546104818582536
4.823227405548097,-1.093126177787781,9.266743659973146,-0.17522285878658297,-0.36131787300109863,0.055575828999280937
4.922148227691651,-0.46377763152122503,9.344941139221193,-0.1670555025339127,-0.3902764916419983,0.047530584037303925
4.959489822387695,-0.6617542505264282,9.199602127075195,-0.19152529537677768,-0.4068218469619751,0.04985559359192849
4.915857315063477,-0.9368772506713867,9.208789825439453,-0.20007160305976868,-0.42417269945144653,0.03252797201275826
4.884450912475586,-0.7703956961631776,9.32509994506836,-0.18531683087348938,-0.4562086164951325,0.02370620146393776
4.95973014831543,-0.8469535112380981,9.387653350830078,-0.18028374016284945,-0.4971502423286438,0.006447384133934975
5.039628505706788,-0.9267860651016235,9.12991714477539,-0.15673656761646274,-0.5287376642227173,-0.0061398674733936795
5.025819778442383,-0.9470018148422241,9.061875343322756,-0.13255080580711365,-0.5562140941619873,-0.01393780764192343
5.039612770080566,-0.8023257255554199,9.43056869506836,-0.15645214915275574,-0.5971009135246278,-0.02075955644249916
5.177289485931397,-1.225433349609375,9.161449432373047,-0.14924345910549167,-0.6374270915985107,-0.03865497559309006
5.04991340637207,-1.4875767230987549,8.707069396972656,-0.12513194978237155,-0.6533621549606323,-0.06664384156465532
5.473642349243164,-0.8476178646087646,8.931695938110352,-0.10940586030483246,-0.6700789928436279,-0.07718702405691148
5.558742046356202,-0.8530058264732362,8.540432929992678,-0.09925393015146257,-0.6507819890975952,-0.06828958541154863
5.420672416687012,-1.0879014730453493,8.641592979431154,-0.12459325045347215,-0.6460896730422974,-0.07879394292831421
5.283038616180421,-0.9820412993431092,8.735395431518555,-0.1034708172082901,-0.684717357158661,-0.08859553933143616
5.3995866775512695,-0.9259430170059204,8.790050506591797,-0.08834482729434967,-0.7276897430419922,-0.09151714295148851
5.023508548736573,-0.8838269710540771,9.122605323791506,-0.08092489838600159,-0.7988244891166688,-0.11907722055912018
5.215773582458496,-1.1072269678115847,8.850801467895508,-0.05065467208623886,-0.8809824585914613,-0.13081960380077365
5.304234981536866,-1.152266502380371,8.798394203186037,-0.04775135591626168,-0.965774655342102,-0.13897220790386203
4.975051403045655,-1.4992947578430176,8.857474327087404,-0.028311122208833694,-1.0729169845581055,-0.2287162095308304
5.345046520233155,-1.14608108997345,8.702918052673342,0.02600490301847458,-1.2054785490036013,-0.2349841296672821
5.53343391418457,-0.9615482091903687,9.121109008789062,0.03958318755030633,-1.3156542778015137,-0.24538978934288025
5.583623409271241,-0.725960373878479,9.082591056823732,0.010807333514094353,-1.4171661138534548,-0.27215713262557983
6.444186210632324,-0.16466812789440158,8.516758918762209,-0.05816275998950005,-1.5402477979660036,-0.234281986951828
6.606585502624512,-0.49187698960304266,9.092229843139648,-0.06734199076890947,-1.6147704124450684,-0.22196809947490695
5.9592485427856445,-1.666461706161499,9.149891853332521,0.07656218111515045,-1.7132190465927126,-0.2543435394763947
5.875044822692871,-0.7303274869918823,9.025667190551758,0.13577894866466525,-1.922245740890503,-0.29587957262992864
5.9963650703430185,-0.9372244477272035,8.620467185974123,0.18561819195747375,-2.1336922645568848,-0.3406683504581452
5.919022560119629,-0.8130110502243042,8.594123840332031,0.20725928246974948,-2.397068977355957,-0.38498607277870184
5.6309404373168945,-1.2424249649047852,8.11515522003174,0.301344633102417,-2.6884176731109624,-0.47312203049659735
6.06539011001587,-1.2053214311599734,7.963776111602784,0.419517070055008,-3.0346007347106934,-0.5418953299522401
6.586155891418457,-0.5088394284248353,8.11848545074463,0.48414146900177,-3.436436653137207,-0.5594958662986756
6.937992572784425,-0.43228816986083984,8.077189445495607,0.49737837910652166,-3.790898323059082,-0.5370127558708192
8.33680057525635,0.16967612504959106,9.182570457458498,0.485159695148468,-4.163691997528077,-0.4031220376491547
9.09120273590088,0.6009368300437928,10.603213310241701,0.46215674281120306,-4.467837333679199,-0.2537092864513398
10.890932083129883,-0.9061006307601929,11.22979259490967,0.37458845973014837,-4.597208499908448,-0.11740824580192566
12.630299568176271,-0.8202686309814453,10.953304290771484,0.24332840740680697,-4.684687614440918,-0.035271372646093375
16.96447563171387,-0.4622419476509094,12.45487689971924,-0.03870568051934243,-4.675662994384766,0.08064533770084381
19.673875808715824,0.5703766345977783,12.088181495666506,-0.4972962439060212,-4.492033958435059,0.22616912424564364
24.8480396270752,1.7223281860351562,12.062640190124513,-1.3436717987060547,-4.231625556945801,0.20316629111766818
25.462955474853516,-6.211694717407227,3.0816450119018555,-1.6274361610412598,-3.983141660690308,-0.3137049674987793
26.16112518310547,-13.54573726654053,-6.278022766113281,0.19691343605518344,-4.6933183670043945,-1.1925971508026123
34.18969345092774,-11.162486076354982,-1.7301685810089111,2.15399169921875,-4.789441585540772,-1.2686772346496582
31.661296844482422,-9.372989654541016,-4.342523574829102,3.8863024711608887,-4.1875457763671875,-1.263151288032532
45.27250289916993,-1.1552114486694336,6.336134910583496,4.005064010620117,-4.038772106170655,-0.9892539978027344
35.8499755859375,4.086523056030273,14.168174743652344,3.159980297088623,-2.392798185348511,-0.937805473804474
24.927017211914062,7.6116485595703125,10.91481113433838,1.3151967525482178,-1.532421946525574,-0.709255576133728
23.1947021484375,8.066366195678711,11.613166809082031,-0.8784285187721254,-0.88821679353714,-0.5723168849945068
16.194372177124027,3.300365924835205,9.998364448547365,-2.5807995796203613,-0.2735291421413422,-0.6365123987197876
11.146429061889648,-0.9572337865829468,8.31160640716553,-3.228192567825318,0.05799353867769241,-0.9836841821670532
7.0941739082336435,-5.454920768737793,8.101176261901857,-2.982335805892945,0.20564976334571838,-1.418502449989319
5.888407230377198,-9.86210346221924,9.105838775634766,-1.8251880407333376,0.4553098380565644,-1.6446807384490967
4.372485637664796,-9.495399475097656,9.964564323425295,-0.1194579526782036,0.9559887647628784,-1.7217606306076052
2.0307381153106694,-5.281416416168214,10.614859580993654,1.0553723573684695,1.5920994281768799,-1.65217924118042
-1.467641830444336,-1.7689338922500613,9.64468002319336,1.3585476875305176,2.139083623886109,-1.3854146003723145
-5.530625820159913,0.05331450700759888,7.0139007568359375,1.1121971607208252,2.4254608154296875,-1.0877703428268435
-7.591833114624023,-0.10142640769481659,4.974149703979492,0.6580814719200135,2.457611560821533,-0.87328439950943
-8.74423599243164,-1.5910232067108154,3.6684494018554688,0.4012404680252075,2.3743875026702885,-0.728736698627472
-7.627257347106934,-2.7107527256011967,4.243182182312012,0.3425774574279785,2.335591077804566,-0.5648654699325562
-7.108157157897949,-2.672847986221314,4.291237354278565,0.39052194356918335,2.477515697479248,-0.330876499414444
-8.487373352050781,-1.998660206794739,3.293798208236695,0.3652508854866028,2.558745622634888,-0.12538790702819824
-8.602519035339357,-1.3069443702697754,2.8174924850463867,0.14828097820281982,2.554167985916138,0.10161519795656206
-7.972966670989991,-1.398259997367859,2.538860321044922,-0.10011257231235504,2.6177346706390385,0.3538297414779663
-7.382595062255859,-1.8366377353668213,2.5348358154296875,-0.24799786508083346,2.739709615707398,0.5744197368621826
-6.042325496673585,-1.7278008460998535,2.904232263565064,-0.3345017433166504,2.9400751590728764,0.8029190301895142
-5.439914703369141,-1.426070809364319,2.4522116184234624,-0.3705718815326691,3.1742138862609863,1.0063869953155518
-4.945844173431397,-0.7296572923660278,1.9944570064544678,-0.4290577173233032,3.3450314998626713,1.157155990600586
-3.2828030586242676,0.2515016198158264,2.2523643970489506,-0.5795892477035522,3.508227825164795,1.285614609718323
-1.4165481328964236,0.7654752731323242,2.594983816146851,-0.7592864632606507,3.7207250595092773,1.3802438974380495
0.1940716803073883,1.3117274045944216,2.9391865730285645,-0.8911967277526855,3.9341900348663335,1.401853919029236
1.415114998817444,2.522218465805054,2.6126778125762944,-0.99237060546875,4.120451450347901,1.3158438205718994
3.2614612579345703,3.013168096542359,2.1282153129577637,-1.0914008617401123,4.221323013305664,1.081632971763611
5.40059757232666,3.3281366825103764,1.9471529722213747,-1.1100995540618896,4.224442005157472,0.7660324573516846
8.421261787414553,3.079336166381836,2.15435004234314,-1.0616520643234255,4.201904296875,0.4152642488479614
10.782415390014648,2.241652011871338,1.7488353252410889,-0.9146703481674194,4.155541896820069,0.09718136489391327
12.391883850097656,1.8031398057937624,1.2798813581466677,-0.7644082903862001,3.989827394485474,-0.077848419547081
14.040525436401367,0.8917059898376465,0.7435569167137147,-0.6446169018745423,3.721493721008301,-0.08259128779172899
15.281846046447756,-0.09545379132032396,0.2632924616336823,-0.5112422108650209,3.356100559234619,0.04208499938249588
16.10837173461914,-1.0734344720840456,-0.18981225788593295,-0.3926130831241608,2.924496650695801,0.27060738205909735
15.44575595855713,-1.5578644275665283,-1.3072755336761475,-0.3386578261852265,2.416218996047974,0.6241967678070068
13.33776378631592,-1.9812432527542116,-3.8054530620574956,-0.4099351763725281,1.7728265523910525,1.1424956321716309
10.960509300231935,-2.997860193252564,-5.339150905609132,-0.48080968856811523,0.9186049103736879,1.7228876352310183
56.67531967163087,14.571301460266115,1.894769072532654,-2.6827783584594727,-0.610491693019867,2.7230958938598633
55.925193786621094,42.36536407470703,13.938068389892578,0.555182933807373,2.2431626319885254,0.8228157162666322
17.40393829345703,6.743905544281007,8.931550979614258,-1.6387596130371094,1.5419934988021853,-0.3146067261695862
-2.2233986854553223,-8.569127082824709,10.880621910095217,-1.0102970600128174,2.2119562625885014,0.6946600079536439
-6.587623596191406,6.756356716156007,18.46680450439453,-0.060855068266391754,1.220731854438782,0.2765270471572876
2.3185799121856694,-15.28866195678711,11.707804679870607,0.46798244118690496,0.5587921738624574,-0.9907904863357544
4.591691017150879,-8.284164428710938,10.633207321166992,0.28247523307800293,-0.09793996065855028,-0.23494356870651245
3.6850869655609135,-0.4316473305225373,10.29078006744385,0.3411123752593994,-0.4068815410137177,-0.4946743547916413
5.845465660095215,0.2192533016204834,9.325404167175295,0.2719191312789917,-0.3816815316677094,-0.51332688331604
7.790788650512695,4.366673469543457,8.768390655517578,0.13554717600345614,-0.22840277850627902,-0.3293915390968323
7.561726093292237,-0.040693849325180054,7.971225261688233,0.014634533785283567,-0.0009027749765664339,-0.1067590042948723
6.451562881469727,-1.03192138671875,8.045969009399414,0.06917170435190202,0.18913519382476807,-0.01677623763680458
5.72175407409668,-1.4374433755874636,8.425056457519531,0.06046874076128006,0.34721592068672186,-0.03978534787893295
5.352774143218995,-0.7817713022232056,9.19825553894043,0.03837766870856286,0.41994711756706243,-0.04828207194805145
4.868207454681397,-0.10631418228149414,9.645188331604006,-0.01688704639673233,0.40346446633338934,-0.009435426443815231
4.624133586883546,-0.6458882689476014,9.672753334045412,-0.0712192952632904,0.3480318486690522,0.014447649009525778
4.798260688781738,-0.7772386074066162,9.538494110107422,-0.06060634925961495,0.25242698192596436,0.03488126769661904
4.687060356140137,-0.6111909747123719,9.674801826477053,-0.015567765571177008,0.1313096731901169,0.017798297107219696
4.761075019836426,-0.5584436058998109,9.50788688659668,-0.013823202811181547,0.049739181995391846,0.011418786831200125
4.881829738616944,-0.47605210542678833,9.47764301300049,-0.04066805914044381,0.0072890520095825195,0.027338393032550812
4.828722953796387,-0.5453749299049379,9.447254180908203,-0.07458359748125078,-0.04378229379653931,0.032614912837743766
5.107328891754151,-0.7519378662109375,9.214883804321289,-0.06185755878686905,-0.07196839153766632,0.020867867395281795
5.348130226135254,-0.6370252370834351,9.115347862243654,-0.02254116721451283,-0.08226047456264496,0.003686338430270553
5.275641918182374,-0.8757964968681337,9.091264724731445,-0.0043280161917209625,-0.05134237930178643,-0.014732335694134237
5.3760132789611825,-1.0857336521148682,8.902364730834961,0.014147798530757429,-0.002358012367039919,-0.03276925906538964
5.417957782745362,-0.5014315247535707,8.942952156066896,0.025607833638787273,0.03780249878764153,-0.03079790621995926
5.299152851104737,-0.09457734972238542,9.008844375610352,-0.002391272224485874,0.050355773419141776,0.010042589157819748
5.067029476165772,-0.033382490277290344,9.259864807128906,-0.0514078214764595,0.03225215151906014,0.07869104295969011
4.8083205223083505,-0.35778844356536865,9.389923095703125,-0.10262108594179155,-0.009061327204108238,0.12191797047853471
4.687657356262207,-0.6044363379478456,9.432317733764648,-0.09932435303926469,-0.06836550682783128,0.10975037515163422
4.635581493377686,-1.097140192985535,9.334623336791992,-0.0763525888323784,-0.11859340965747833,0.061671283096075065
4.780954837799073,-0.7587856650352479,9.363545417785646,-0.06158049032092095,-0.1712442934513092,0.023006483912467957
4.9824280738830575,-0.546019732952118,9.176587104797365,-0.06357403844594957,-0.20357567071914673,0.015817305073142055
5.052207946777344,-0.45500344038009644,9.07900905609131,-0.08264715224504472,-0.21903721988201144,0.020728085190057755
5.000900745391847,-0.686020314693451,9.012612342834474,-0.10450319945812225,-0.22784547507762912,0.01724626123905182
5.03880500793457,-0.5949549674987793,9.123481750488281,-0.10291722416877747,-0.2433361262083054,0.007291667629033328
5.190194129943848,-0.5597810745239258,9.265918731689453,-0.11258152872323991,-0.24693813920021057,0.009544468484818937
5.111201286315918,-0.9970956444740297,8.930987358093263,-0.09323635697364807,-0.2570810914039612,-0.01409528497606516
5.074659824371339,-0.8321503996849061,9.012942314147951,-0.08560410887002946,-0.2780064344406128,-0.03143573179841042
4.835056304931641,-0.8889408111572266,9.25324821472168,-0.08662207424640656,-0.3185481727123261,-0.04399340972304345
4.70423460006714,-1.3676136732101443,9.160651206970217,-0.08640725165605546,-0.37523138523101807,-0.0937599614262581
4.7488908767700195,-1.1469715833663943,9.435381889343263,-0.05149174854159356,-0.4697124660015107,-0.14393162727355957
5.117779254913331,-0.953298807144165,9.192413330078125,-0.023048950359225277,-0.5442661046981812,-0.16881592571735385
5.349192142486573,-0.5086301565170288,8.995869636535646,-0.017391046509146694,-0.600013017654419,-0.17480933666229248
5.288264751434327,-0.07532212138175964,9.264175415039062,-0.04738503694534302,-0.6548874974250795,-0.14580261707305908
5.02916145324707,-0.6140217185020448,9.257469177246094,-0.05985872820019723,-0.7469170689582826,-0.13930919766426086
4.518287181854249,-0.21149323880672458,9.555984497070312,-0.1174674928188324,-0.8988716006278993,-0.12630289793014526
4.675359725952148,-1.1252535581588747,9.717286109924318,-0.09418814629316331,-1.06980299949646,-0.1226700097322464
5.105911731719972,-0.8690265417098999,9.394500732421875,-0.054359029978513725,-1.2613134384155273,-0.14093764126300815
4.797152042388917,-1.0557281970977783,9.429001808166506,-0.027525028213858608,-1.4084838628768923,-0.15380749106407166
4.9214186668396005,-1.0369025468826296,9.541696548461914,0.002376497257500887,-1.6050480604171755,-0.18862152099609375
5.507714748382569,-0.8026724457740785,8.99867057800293,0.052184224128723145,-1.783466458320618,-0.2066619247198105
5.821802616119386,-0.5037278532981874,8.989171981811523,0.09009194374084473,-1.9508174657821657,-0.21893033385276794
5.9565582275390625,-0.34682771563529974,9.077018737792969,0.048383258283138275,-2.076758861541748,-0.23213295638561252
6.214564323425293,-0.03229008615016937,9.306892395019531,0.053621884435415275,-2.1938161849975586,-0.23904703557491305
6.0875444412231445,-0.5693628191947938,8.888029098510742,0.020753871649503708,-2.3380286693573002,-0.2654703557491303
6.1166276931762695,-1.124269962310791,8.434402465820312,0.052646797150373466,-2.525470733642578,-0.3440718352794648
5.6496853828430185,-0.8231360912322998,8.241312980651857,0.16423925757408142,-2.7908143997192383,-0.4134418666362763
6.051780700683594,-0.2444037348031998,8.679104804992678,0.3177254498004914,-3.1800947189331055,-0.465453714132309
6.245262145996094,-0.13957113027572632,8.646121025085451,0.3936915397644043,-3.603756666183472,-0.4162974655628205
7.822386264801026,-0.943526029586792,9.162392616271974,0.43031156063079834,-3.9974391460418706,-0.37490248680114746
9.675951957702638,-0.14630404114723206,9.612439155578615,0.3795726597309113,-4.211267948150636,-0.2383018434047699
11.364603996276857,-0.062255144119262695,10.875983238220217,0.21065525710582736,-4.28092098236084,-0.2023446708917618
