AccX,AccY,AccZ,GyrX,GyrY,GyrZ
0.00016361006419174373,-3.3377393265254796e-05,0.0003257589705754072,-6.475215741374996e-08,-5.342101871974593e-07,-4.7035041461640503e-07
4.721404552459718,-0.9233111143112183,9.41478157043457,0.0012526357313618066,-0.013787657953798773,-0.011057401075959206
4.722567558288574,-0.9424803853034974,9.399276733398438,0.0011999345151707532,-0.01045542024075985,-0.010449911467731
4.6997480392456055,-0.9817888736724854,9.424692153930664,0.0010251981439068916,-0.010174311697483063,-0.01018797978758812
4.668292522430421,-0.9641841053962709,9.433438301086428,0.0010475286981090905,-0.012971535325050354,-0.01196171995252371
4.696403026580811,-0.9444718360900879,9.418779373168945,-0.0020722271874547005,-0.016221843659877777,-0.012677467428147795
4.706254005432129,-0.9324485659599305,9.3808069229126,-0.0010041259229183197,-0.015538920648396017,-0.010520827025175095
4.712551116943359,-0.9411355853080751,9.388938903808594,-1.2727477042062675e-05,-0.012036187574267387,-0.010814959183335304
4.675872802734375,-0.990671217441559,9.425435066223146,0.001167528214864433,-0.013919427990913391,-0.012445758096873762
4.685392379760742,-0.9575099945068359,9.416026115417482,-0.0006396974204108119,-0.016934439539909363,-0.013710121624171736
4.730581283569336,-0.9059767723083496,9.389595031738281,0.0012458184501156213,-0.01792777329683304,-0.01285404432564974
4.72517204284668,-0.9165120124816895,9.410760879516602,-0.0015997627051547172,-0.014582796022295952,-0.010326426476240158
4.726146697998047,-0.9500529766082764,9.406207084655763,-0.0010765187907963991,-0.014196156524121763,-0.011944182217121124
4.734439373016358,-0.9513238072395326,9.398322105407717,0.0009837943362072112,-0.012729694135487081,-0.009369291365146637
4.721107006072999,-0.9434987306594849,9.382287979125977,0.0016305657336488368,-0.009369684383273125,-0.009559270925819876
4.693961620330811,-0.9538696408271791,9.392108917236328,-0.0006343122222460807,-0.009514182806015015,-0.00955970399081707
4.696078777313233,-0.9633650183677674,9.406684875488281,-0.000818940403405577,-0.009514430537819862,-0.010147574357688429
4.707177639007569,-0.9540668725967407,9.3839807510376,0.0020434712059795856,-0.011497247964143753,-0.01194437686353922
4.697774410247804,-0.9581341147422792,9.450762748718263,0.002132553840056062,-0.012374935671687126,-0.011700312606990339
4.713510513305664,-0.936819314956665,9.424077987670898,0.0008794873720034957,-0.0116993160918355,-0.012726533226668836
4.687397003173828,-0.9290909767150879,9.411550521850586,0.0024251893628388648,-0.011898944154381752,-0.012738038785755636
4.702150821685792,-0.9314958453178407,9.42451572418213,0.0007185322465375066,-0.014133334159851074,-0.012912637554109098
4.721083164215089,-0.9313584566116333,9.406986236572266,-0.0011940224794670942,-0.014370640739798546,-0.010980685241520407
4.708739757537843,-0.9539393782615663,9.433822631835938,-0.001994697842746973,-0.013162191025912763,-0.010903614573180677
4.736105918884277,-0.9275339841842651,9.411277770996094,-0.002654498210176826,-0.01294763758778572,-0.009724172763526441
4.700473308563233,-0.9377576708793641,9.436325073242188,-0.0023794020526111126,-0.013110823929309845,-0.00962511543184519
4.700433731079102,-0.9391534924507142,9.407881736755373,-0.004903591703623534,-0.013757206499576569,-0.008327820338308813
4.682704448699952,-0.9513015747070312,9.39760971069336,-0.003684716299176216,-0.01243142504245043,-0.006961352657526732
4.7071595191955575,-0.9533605575561523,9.416196823120117,-0.004973980598151684,-0.014101223088800909,-0.009184451773762703
4.708786964416504,-0.9604427218437196,9.430947303771974,-0.00467417947947979,-0.014278482645750046,-0.010049927048385145
4.709308624267578,-0.9059144258499146,9.3916015625,-0.0060891080647706985,-0.014804244972765447,-0.00914345495402813
4.734971046447754,-0.9452518224716187,9.37991714477539,-0.004988502711057663,-0.014258318580687048,-0.007971213199198248
4.737054347991944,-0.9584195613861084,9.389997482299805,-0.0026477894280105834,-0.009752031415700912,-0.007447844836860896
4.718278884887695,-0.9580672383308412,9.396634101867678,-0.0014393717283383014,-0.0065184016712009915,-0.008619999513030052
4.707703113555909,-0.9720388650894165,9.382722854614258,-0.001314475666731596,-0.0059165298007428655,-0.008597655221819878
4.703967571258546,-0.9419543743133545,9.399543762207031,0.0003656504268292338,-0.005108265206217766,-0.00880930945277214
4.684949398040772,-0.954512655735016,9.413124084472656,0.000913103693164885,-0.0055365157313644895,-0.00899093970656395
4.691934108734132,-0.9525655508041382,9.390632629394531,-0.0012968574883416297,-0.006043107714504004,-0.008984141051769257
4.69899606704712,-0.9414030313491821,9.411247253417969,3.3714331948431216e-05,-0.0077422913163900375,-0.008060340769588949
4.6868348121643075,-0.9692984223365785,9.39369297027588,-0.0003839545825030655,-0.007461211644113064,-0.00999041460454464
4.677729606628418,-0.988874077796936,9.377737998962404,0.00052252208115533,-0.007170310243964195,-0.012820380739867689
4.693175315856934,-0.9763939380645752,9.41484260559082,0.0028046427760273222,-0.008905270136892797,-0.011518104001879692
4.69849443435669,-0.9641915559768677,9.420359611511232,0.0025842275936156516,-0.009233137592673302,-0.01317031402140856
4.719764709472656,-0.9442121982574463,9.441990852355959,0.0024352257605642085,-0.008989863097667694,-0.011470520868897438
4.719729423522949,-0.9320512413978578,9.392750740051271,1.1695839930325747e-05,-0.00954053644090891,-0.012204045429825783
4.703594684600831,-0.9687221050262451,9.415638923645021,-0.00022403852199204266,-0.008766308426856995,-0.011031768284738066
4.715671539306641,-0.9413762688636781,9.436511039733888,0.00014872341125737878,-0.010593261569738388,-0.011518252082169058
4.726061344146729,-0.9292078018188477,9.421059608459474,-0.0026535068172961478,-0.0113257747143507,-0.008499093353748322
4.7158002853393555,-0.9383106231689453,9.40362071990967,-0.005207043606787921,-0.009844528511166573,-0.00854072254151106
4.666347503662109,-0.9573460817337036,9.424297332763672,-0.0025277556851506233,-0.012013845145702362,-0.00880707334727049
4.706817150115968,-0.969642162322998,9.406530380249023,-0.0033173987176269297,-0.011450855061411858,-0.008681309409439565
4.677146434783936,-1.0007176399230957,9.401512145996094,-0.0010370706440880897,-0.010123206302523613,-0.009856928139925003
4.704907894134522,-1.0182280540466309,9.388745307922365,0.0012274824548512697,-0.012699634768068792,-0.015283416956663132
4.707530975341797,-0.9576122760772705,9.399943351745607,0.0033068587072193623,-0.013813788071274757,-0.015476145781576635
4.733217239379883,-0.9292320013046265,9.396463394165039,0.004021389875561,-0.011744994670152664,-0.014045667834579946
4.739588260650636,-0.9318820834159852,9.426329612731935,0.00015014797099865973,-0.01173085253685713,-0.013536554761230947
4.7083497047424325,-0.9334694147109985,9.404572486877443,-0.0009779671672731638,-0.012084336020052435,-0.011375222355127335
4.689174175262452,-0.9189934134483339,9.394381523132326,-0.0002969377383124084,-0.011686948128044607,-0.010987894609570503
4.688819408416749,-0.953059196472168,9.413762092590334,-0.003592104185372591,-0.013544819317758085,-0.01103699766099453
4.695813655853272,-0.9646417498588563,9.39947509765625,-0.005342557094991207,-0.015437970869243147,-0.011576185934245588
4.7124695777893075,-0.9256769418716431,9.375665664672852,-0.004026048816740513,-0.015717850998044017,-0.01061958447098732
4.702115535736085,-0.9634700417518617,9.400968551635742,-0.004693020600825549,-0.01698519475758076,-0.011795645579695702
4.674050331115723,-0.9853774309158325,9.403637886047365,-0.002123661804944277,-0.017767554149031643,-0.01400291919708252
4.6862640380859375,-0.9831956624984741,9.408845901489258,0.0008202595636248589,-0.017622442916035656,-0.015505702234804632
4.713588237762452,-0.9401623606681825,9.410834312438967,0.0008952771313488483,-0.0175838228315115,-0.016357723623514175
4.696505546569824,-0.9365503787994385,9.429524421691896,-0.0010958019411191346,-0.016433784738183025,-0.016268085688352585
4.726174354553223,-0.9418002367019653,9.407739639282227,7.190075848484413e-05,-0.01648775115609169,-0.016409834846854213
4.689895153045655,-0.9696569442749023,9.419462203979492,-0.00019317923579365015,-0.017707305029034618,-0.016865579411387447
4.707052230834961,-0.9193122386932373,9.410430908203125,0.0019449954852461815,-0.019127694889903072,-0.018965009599924088
4.733736515045167,-0.9285472631454468,9.399561882019045,-0.0016739134443923833,-0.019688652828335765,-0.01732311025261879
4.719890594482422,-0.9555569291114808,9.391249656677248,-0.002982429228723049,-0.019822245463728908,-0.01649884507060051
4.712182998657227,-0.9277984499931337,9.424005508422852,-0.0028483781497925524,-0.02014734223484993,-0.016428496688604355
4.700870990753175,-0.925333321094513,9.437780380249023,-0.0037786769680678844,-0.01702213473618031,-0.01761801913380623
4.7218217849731445,-0.9520700573921205,9.40477180480957,-0.004484277684241534,-0.01917062141001225,-0.016903523355722427
4.700309276580811,-0.9407244920730591,9.398336410522461,-0.0038985423743724823,-0.02240601740777493,-0.016922026872634888
4.714396953582765,-0.9333174228668213,9.398130416870117,-0.005163845606148243,-0.02205075137317181,-0.018635647371411327
4.728456974029542,-0.9326825737953187,9.421444892883303,-0.004362900275737048,-0.022261161357164383,-0.016161767765879635
4.747130870819093,-0.9458311200141908,9.401135444641115,-0.006804030388593674,-0.02164497971534729,-0.01387725491076708
4.722085952758789,-0.9444751739501953,9.392136573791506,-0.004754451569169761,-0.020402375608682632,-0.014666427858173849
4.730634689331055,-0.9685688614845277,9.376370429992678,-0.0032414135057479147,-0.019899703562259674,-0.01579110696911812
4.713972568511964,-0.9303742051124574,9.389690399169922,-0.0032003170344978575,-0.017128832638263702,-0.017222227528691295
4.706674575805664,-0.9625307321548462,9.408831596374513,-0.0011947320308536291,-0.017802860587835312,-0.018162021413445476
4.701642036437988,-0.9720828533172607,9.402621269226076,-0.006818812340497971,-0.021009540185332302,-0.019524376839399338
4.7338056564331055,-0.9395373463630677,9.400899887084961,-0.005232611671090126,-0.021038064733147625,-0.018067659810185436
4.759109973907472,-0.9556765556335449,9.410703659057617,-0.005916653200984001,-0.021896285936236385,-0.016217634081840515
4.745491027832031,-0.9621199965476991,9.396524429321289,-0.005953217390924693,-0.018313450738787655,-0.016555890440940857
4.745037555694581,-0.9499959349632264,9.387079238891602,-0.004139758180826903,-0.01635909453034401,-0.016723873093724254
4.730655670166016,-0.9598829150199891,9.404721260070803,-0.0034959369804710154,-0.015972882509231567,-0.014188310131430626
4.724845409393311,-0.9755101203918457,9.38644313812256,-0.001980973640456796,-0.011940617114305496,-0.015944214537739757
4.724734306335449,-0.9441478252410889,9.378870010375977,-0.0016735586104914548,-0.014180417172610761,-0.01672695204615593
4.740330696105957,-0.9623344540596009,9.411945343017578,-0.0012724682455882432,-0.01725175604224205,-0.015580388717353346
4.729284286499023,-0.9698740243911743,9.39144515991211,0.00020148034673184156,-0.01727758534252644,-0.017738839611411098
4.718529224395753,-0.9548392891883851,9.397950172424318,-0.0008398965583182872,-0.016548149287700653,-0.018473332747817043
4.755127906799316,-0.9703795313835145,9.41346549987793,0.0009454375249333681,-0.017259219661355022,-0.01768946275115013
4.756031036376953,-0.9527503252029419,9.417653083801271,0.0020848228596150875,-0.014572069980204107,-0.01698225364089012
4.733880043029785,-0.9528879523277284,9.379749298095703,-0.00018801086116582155,-0.01435524318367243,-0.015655247494578365
4.739697456359863,-0.959253191947937,9.38615608215332,0.0018946838099509478,-0.015328739769756796,-0.0171184204518795
4.753122806549073,-0.9476720094680786,9.41653347015381,0.0014493120834231377,-0.015331070870161057,-0.017571752890944484
4.739404201507569,-0.9311728477478027,9.410675048828125,0.001017032191157341,-0.015754448249936107,-0.016623232513666153
4.765532970428468,-0.9334448575973511,9.381087303161623,-0.0005670771934092045,-0.015986775979399685,-0.015820285305380825
4.7636122703552255,-0.9129296541213989,9.38576889038086,-0.0011218845611438157,-0.01301644928753376,-0.012461981736123564
4.7701783180236825,-0.9311733841896058,9.380681037902834,0.00045913347275927663,-0.010128874331712723,-0.010565142147243025
4.754976272583008,-0.9320669174194336,9.368993759155273,0.0008098252001218499,-0.0049107251688838005,-0.011419783346354963
4.737973213195801,-0.9623554944992065,9.41128921508789,0.0018411935307085514,-0.005087388213723899,-0.010505431331694128
4.707287788391113,-0.9883149862289429,9.391807556152344,0.0047265258617699155,-0.004847998730838299,-0.01209679711610079
4.717531204223633,-0.9859341382980347,9.392298698425295,0.0020818491466343403,-0.009070228785276413,-0.014668366871774198
4.744263648986816,-0.9775693416595459,9.400509834289553,0.0031272168271243572,-0.009505714289844038,-0.0133888591080904
4.754887580871582,-0.9246586561203003,9.419675827026367,0.004281054716557265,-0.008914969861507416,-0.01341329887509346
4.744767189025879,-0.9458197355270386,9.39870834350586,0.0024333053734153513,-0.007342147640883923,-0.014402576722204687
4.760109424591065,-0.9159488081932069,9.385427474975586,0.001691973418928683,-0.0078933397307992,-0.009171079844236374
4.730164527893066,-0.9500653743743896,9.406788825988771,0.0027159007731825118,-0.005568378604948521,-0.008517392911016943
4.754722118377686,-0.9456261396408081,9.404910087585451,0.0027102669700980186,-0.004246602300554515,-0.007120310794562102
4.737526893615723,-0.9306073188781738,9.378950119018555,0.0022811456583440304,-0.0029382349457591776,-0.006312143057584763
4.746026039123535,-0.9375897049903871,9.393474578857422,0.003827830078080297,-0.0030267175752669577,-0.008438684046268463
4.725353717803956,-0.9337992668151855,9.390902519226076,0.0022588036954402924,-0.002689709654077888,-0.008662223815917969
4.724144458770753,-0.9488980174064637,9.423805236816406,0.003370196325704456,-0.001109955832362175,-0.006763371638953686
4.734066963195801,-0.9505648612976074,9.401361465454102,0.0031255329959094524,-0.003064911579713226,-0.007708016782999039
4.725092887878418,-0.9511463046073915,9.396951675415039,0.0020824256353080273,-0.001467882888391614,-0.007717536296695472
4.740900516510011,-0.9449363350868226,9.38433837890625,0.0016956923063844442,-0.0028562040533870463,-0.005645163357257843
4.725349426269531,-0.9342468380928041,9.402914047241211,0.0011437939247116449,-0.0014303924981504679,-0.006227189674973488
4.720401763916016,-0.9535729885101318,9.43379878997803,-0.000534781371243298,-0.0015208577970042827,-0.0049117011949419975
4.720615386962891,-0.9516074657440186,9.421710014343263,0.00015025671746116134,-0.002934148302301765,-0.004146400839090347
4.731451034545898,-0.9358741641044618,9.41134262084961,-0.002627708949148655,-0.005153654608875514,-0.004166156053543091
4.719296455383301,-0.9545907974243164,9.405035018920898,-0.002381503116339445,-0.0042033358477056035,-0.004356957506388427
4.711276531219483,-0.9518219828605653,9.384159088134766,-0.001040465198457241,-0.005952436942607165,-0.005101341754198074
4.734364032745362,-0.9631595015525819,9.422448158264162,-0.0018986823270097377,-0.0033158112782984976,-0.005162893794476986
4.713215351104737,-0.9592221379280091,9.42274284362793,-0.00034326512832194567,-0.004521892871707679,-0.006534996442496777
4.727591514587402,-0.9570376873016357,9.424234390258789,-0.001750472583808005,-0.004602648317813873,-0.007256858050823212
4.728484630584718,-0.9425922632217407,9.382546424865724,-0.0014706624206155539,-0.0025722056161612277,-0.004832143895328045
4.730323791503906,-0.9358845353126527,9.407639503479006,-0.00020143459551036358,-0.0036145360209047794,-0.005328835453838111
4.719401836395265,-0.934777021408081,9.41077995300293,-0.0002738295297604055,-0.0027109524235129356,-0.004009657073765994
4.738711833953858,-0.9421167373657227,9.398763656616211,0.0005721607594750823,-0.0026932405307888985,-0.004345770925283432
4.720900535583496,-0.9393655061721802,9.379340171813967,-0.0006608557887375355,-0.0008309404947794975,-0.005739356391131878
4.708848476409913,-0.9793177843093872,9.395983695983888,0.0023715074639767413,-0.0035013675224035983,-0.005052500404417515
4.731841564178468,-0.9576130509376527,9.439118385314943,0.001209722016938031,-0.0015923373866826296,-0.007926139049232008
4.705493450164796,-0.9743471741676332,9.412268638610842,0.001789572066627443,-0.0038707423955202103,-0.0066534774377942085
4.7196364402771005,-0.9344096183776855,9.412830352783203,0.002001050161197782,-0.003139209933578968,-0.0063070119358599195
4.707655906677246,-0.9384949803352357,9.401419639587404,0.002945613814517856,-0.003410727018490434,-0.007295155897736549
4.732812404632569,-0.9564444422721864,9.393343925476076,0.0036945512983947997,-0.0041487375274300575,-0.007126985583454371
4.709628582000733,-0.9599473476409912,9.411041259765625,0.0024303556419909,-0.005666369106620551,-0.006938021164387465
4.700888633728027,-0.9552814960479736,9.40266227722168,0.0020018161740154032,-0.005927473306655884,-0.008022478781640531
4.728127956390382,-0.9422962069511415,9.4075927734375,0.0025965282693505287,-0.004156044684350491,-0.007423538248986007
4.714343070983887,-0.9328538179397583,9.393367767333984,0.001583729055710137,-0.004489767365157604,-0.00699760438874364
4.720067977905273,-0.9753702878952026,9.408102035522461,0.0017455013003200293,-0.0015493164537474515,-0.004009287338703872
4.753257751464844,-0.9606886506080629,9.389561653137209,0.003922618925571442,0.0009321933030150832,-0.004699769429862499
4.636526107788086,-0.9938405752182007,9.364439964294435,0.00813897978514433,0.002540799090638757,-0.00647319108247757
4.612014293670655,-1.019953727722168,9.398221015930178,0.011633094400167465,0.001839187345467508,-0.011779844760894775
4.699594974517823,-0.968645751476288,9.400798797607422,0.010032972320914268,-0.0017405844992026689,-0.013653737492859365
4.690959453582765,-0.9201583266258241,9.439759254455568,0.00953726936131716,-0.0033882511779665947,-0.01466831471771002
4.71176815032959,-0.9451881051063539,9.456937789916992,0.007143913768231869,-0.007918676361441612,-0.014338708482682707
4.731215476989746,-0.9125710129737855,9.45120620727539,0.0015823655994609,-0.01123163290321827,-0.01367062982171774
4.714324951171875,-0.9306435585021973,9.423502922058107,-0.00010753383685369045,-0.010651973076164724,-0.009834381751716139
4.68405818939209,-0.9364950060844422,9.452067375183107,-0.0037502534687519073,-0.013329136185348036,-0.0096273273229599
4.724928379058839,-0.9333009123802186,9.423786163330078,-0.005821650847792625,-0.014756027609109879,-0.005825987551361323
4.736795425415039,-0.9368609189987183,9.439759254455568,-0.006961347535252571,-0.01679603941738606,-0.0032278215512633324
4.759842872619629,-0.9013355374336244,9.427005767822266,-0.007377533242106438,-0.011563266627490522,-0.0011001789243891837
4.779327869415284,-0.9232096672058105,9.422703742980959,-0.006584782619029284,-0.006777208298444748,0.0025118829216808085
4.849780082702637,-0.9139859676361084,9.379475593566896,-0.0017142203869298103,0.002251184778288007,0.005528987385332584
4.835014343261719,-0.9113587141036987,9.385956764221193,0.0036299459170550112,0.017667673528194427,0.01329567562788725
4.6757521629333505,-0.9654189348220825,9.431155204772951,0.005238554906100036,0.02354704961180687,0.01675134152173996
4.693058490753175,-0.969853699207306,9.432953834533693,0.004754949361085892,0.02053424157202244,0.011920690536499023
4.610239028930664,-0.8816787004470825,9.394330978393555,0.002790981205180288,0.01725745387375355,0.013246605172753334
4.397228717803956,-1.0493559837341309,9.449460029602053,-0.004707764834165573,0.000613945710938424,0.005899657495319843
4.605541706085206,-1.108279585838318,9.361394882202148,-0.003915528766810894,-0.01545518543571234,-0.004861607681959868
4.7100586891174325,-0.9822304844856263,9.42964267730713,-0.0031172647140920162,-0.0157743226736784,-0.007317021489143372
4.704185009002686,-0.98054039478302,9.40918827056885,-0.0030479498673230414,-0.014583633281290533,-0.007782910019159317
4.69422721862793,-1.0495524406433105,9.341586112976076,0.003986358642578125,-0.010384679771959783,-0.010967480018734932
4.737474918365479,-1.0130534172058105,9.39936923980713,0.014702969230711462,-0.004017624072730541,-0.01454131305217743
4.787262439727784,-0.9659156799316406,9.395726203918459,0.02055756561458111,0.0045858221128582954,-0.015013788826763632
4.868406772613526,-0.8742787241935731,9.40421772003174,0.027834594249725342,0.018592242151498795,-0.009804093278944494
4.918776512145996,-0.8349139094352723,9.38136386871338,0.027434529736638073,0.03783365339040756,-0.0001900659553939477
4.675067901611328,-0.902147948741913,9.325157165527344,0.033482469618320465,0.05289686098694802,0.00959750544279814
4.349578857421875,-1.0239660739898682,9.345612525939943,0.033140081912279136,0.04621134698390961,0.0027145131025463347
4.2166748046875,-1.1408381462097168,9.437076568603516,0.02400779351592064,0.017855454236268997,-0.013916931115090849
4.553341865539551,-1.116877555847168,9.497836112976076,0.017797894775867462,-0.00887331832200289,-0.028847478330135345
4.782914638519288,-0.8405546545982362,9.45895767211914,0.014733408577740194,-0.011227443814277649,-0.028372250497341156
4.774530410766602,-0.7323747873306274,9.472687721252443,0.003917742520570755,-0.010146302171051504,-0.01669815555214882
4.74336862564087,-0.9001701474189759,9.439302444458008,-0.001274200505577028,-0.006752046290785075,-0.010666921734809875
4.69343137741089,-0.9516761302947998,9.429655075073242,0.0004652334901038558,-0.00045368605060502887,-0.008039447478950025
4.721871852874757,-0.965399205684662,9.412297248840334,0.005526371765881778,0.007550327107310295,-0.006916619837284088
4.692780017852784,-0.9506745338439941,9.377573013305664,0.011196812614798546,0.015577989630401136,-0.007579906843602657
4.651296138763429,-0.9164879918098451,9.397192001342773,0.016357868909835815,0.020422253757715225,-0.009420954622328283
4.645143985748292,-0.9610583186149598,9.383299827575685,0.019066985696554184,0.02156780101358891,-0.009872589260339737
4.641849517822266,-0.9395138025283813,9.386781692504883,0.01732123084366322,0.02133188769221306,-0.01081099919974804
4.441545009613038,-1.0046849250793457,9.331467628479006,0.015649827197194103,0.02108834683895111,-0.01576897688210011
4.496206283569336,-0.9705633521080018,9.464271545410156,0.005401642993092537,0.0035375584848225117,-0.022546844556927684
4.62570858001709,-0.9276202917098999,9.529661178588867,0.0029404864180833106,-0.009932596236467361,-0.02566829137504101
4.678126335144043,-0.8446732759475708,9.52169418334961,-0.007020606659352779,-0.016600476577878002,-0.020785199478268627
4.652249813079835,-0.975763201713562,9.512144088745117,-0.008832669816911222,-0.019002389162778854,-0.018700128421187404
4.677525997161866,-0.9336347579956055,9.474466323852539,-0.007422850467264652,-0.02015400305390358,-0.02128054760396481
4.690979480743409,-0.8803390264511108,9.430732727050781,-0.00516216503456235,-0.015593575313687325,-0.020193303003907207
4.7430129051208505,-0.8593418598175049,9.404109954833984,-0.005883840378373862,-0.0090363509953022,-0.018753767013549805
4.658013343811035,-0.8859210014343262,9.365503311157227,-0.0018096854910254478,-0.0002322217478649691,-0.017031803727149963
4.4984130859375,-0.9505152106285096,9.400861740112305,-0.004466132726520301,-0.0012744577834382655,-0.018140476197004318
4.560794830322266,-0.9495861530303955,9.41807746887207,-0.010238122195005417,-0.006477856542915107,-0.025118019431829453
4.602568149566651,-0.8707277774810791,9.460408210754396,-0.019939744845032695,-0.015096638351678848,-0.02544255182147026
4.576357841491699,-0.9186632037162782,9.507627487182617,-0.029456529766321182,-0.02143521793186665,-0.022053275257349014
4.5903778076171875,-1.0015636682510378,9.472223281860352,-0.03475432097911835,-0.02560487762093544,-0.022805301472544674
4.551931858062745,-1.0311968326568604,9.481874465942383,-0.035326305776834495,-0.036294467747211456,-0.026743864640593532
4.700399398803711,-0.9598954916000366,9.487987518310547,-0.03308910503983498,-0.04453279823064804,-0.029630906879901886
4.7771925926208505,-0.8650442957878114,9.465005874633789,-0.028581043705344204,-0.042036592960357666,-0.02599669806659222
4.756559848785401,-0.9136486053466797,9.444672584533693,-0.027639765292406082,-0.0373857244849205,-0.0200780350714922
4.736112117767335,-0.9879688024520874,9.422304153442383,-0.02328700758516789,-0.03147004544734955,-0.018529249355196956
4.656658172607422,-1.0187941789627077,9.371488571166992,-0.013491250574588776,-0.02936198376119137,-0.02283837459981442
4.620920181274414,-1.0517511367797852,9.458335876464844,-0.008443196304142477,-0.029957648366689682,-0.031046224758028988
4.696012496948242,-0.9245561957359315,9.439276695251467,-0.004880913533270359,-0.033405810594558716,-0.03312620148062707
4.656310081481934,-1.0050002336502077,9.430077552795412,-0.002997361123561859,-0.032193604856729514,-0.031818024814128876
4.645079612731934,-0.9739351272583008,9.470009803771974,-0.005069212056696415,-0.03794603422284127,-0.03279706463217736
4.743962287902832,-0.9406543374061586,9.41672992706299,-0.004344378598034382,-0.04069890454411507,-0.03280968964099884
4.731658458709718,-0.9062324166297914,9.361739158630373,-0.0027900105342268944,-0.03541051596403122,-0.03404774889349938
4.7562761306762695,-0.8457392454147339,9.419057846069336,-0.005250775255262852,-0.02882911451160908,-0.030805952847003937
4.765508651733398,-0.8479537963867188,9.417229652404787,-0.005566182546317577,-0.024930888786911968,-0.025124700739979747
4.736283302307129,-0.9628127813339233,9.421241760253906,-0.004777228459715843,-0.023555355146527294,-0.019258588552474976
4.710155963897706,-1.0658065080642702,9.42363166809082,0.003633372951298952,-0.020280808210372925,-0.025116378441452984
4.731354236602784,-1.0262242555618288,9.412193298339844,0.014815595932304861,-0.015265354886651039,-0.02994751371443272
4.678041458129883,-1.0182324647903445,9.44941520690918,0.02190038189291954,-0.014357040636241438,-0.03117342106997967
4.653961181640625,-0.9988789558410645,9.409036636352539,0.023148640990257263,-0.017892835661768917,-0.03628372400999069
4.653165817260742,-0.9804449081420898,9.390908241271974,0.025446711108088497,-0.01882860623300076,-0.041235387325286865
4.6122145652771005,-1.0284857749938965,9.376082420349123,0.025315910577774048,-0.020403156057000164,-0.04812055826187134
4.684405803680421,-0.9516724348068237,9.420061111450195,0.028394373133778576,-0.024116262793540955,-0.052765920758247375
4.690923690795898,-0.8729579448699951,9.43582057952881,0.028703976422548294,-0.02886627428233624,-0.05252479016780853
4.724177837371827,-0.849278748035431,9.483538627624513,0.026435986161231995,-0.03339345008134842,-0.04987312480807305
4.751911163330078,-0.8328144550323486,9.441080093383789,0.020377689972519878,-0.03594154864549637,-0.0412602610886097
4.6968841552734375,-0.9167194366455078,9.450014114379883,0.017267756164073944,-0.03801560029387475,-0.03436634317040444
4.6169538497924805,-0.9724286794662476,9.458182334899904,0.017454911023378372,-0.044296342879533775,-0.03923991322517395
4.680133342742921,-0.8685784339904785,9.403759956359865,0.018526360392570496,-0.05301235616207123,-0.04315683618187905
4.694278717041016,-0.8685837984085083,9.399062156677248,0.011294668540358543,-0.05260015651583672,-0.040013737976551056
4.698754787445069,-0.8502743244171143,9.373572349548342,0.01105762552469969,-0.05571941286325455,-0.039289623498916626
4.748204231262207,-0.8205312490463257,9.413668632507326,0.0048287161625921735,-0.05598554015159607,-0.03711164370179177
4.720070362091065,-0.8180340528488159,9.432220458984375,0.0006559639004990458,-0.056730568408966064,-0.032949347048997886
4.769091606140137,-0.8443687558174134,9.450342178344727,-0.005831467453390361,-0.05858158320188522,-0.02738183550536633
4.725052833557129,-0.922377645969391,9.417198181152344,-0.005958210211247207,-0.06182320415973663,-0.026078715920448303
4.710919857025147,-1.0065193176269531,9.43701171875,-0.0028816100675612692,-0.06143370270729065,-0.029958738014101986
4.835654735565186,-0.874923586845398,9.383257865905763,0.0019382903119549157,-0.0614699311554432,-0.02950647473335266
4.894343852996827,-0.7787539958953857,9.367760658264162,0.0005875890492461623,-0.05361882597208023,-0.02282778732478619
4.82661008834839,-0.9031405448913574,9.342992782592773,-0.0010292726801708343,-0.04309547692537308,-0.017843708395957947
4.805694580078125,-0.9010129570961,9.390373229980469,0.0013929407577961683,-0.036484498530626304,-0.015804734081029892
4.8183794021606445,-0.8931187987327577,9.330493927001953,0.0006582752102985978,-0.02605336159467697,-0.019941272214055065
4.752393245697022,-0.8866714835166932,9.37563991546631,-0.0025502867065370083,-0.01906303502619267,-0.0183311365544796
4.785743713378906,-0.8933385610580444,9.41590213775635,-0.0018221497302874925,-0.019920408725738525,-0.015715572983026505
4.731062889099121,-0.9262766242027284,9.363946914672852,-0.002772938692942262,-0.020550914108753204,-0.015598884783685209
4.672934532165527,-0.9206431508064271,9.39385986328125,-0.0015110442182049157,-0.027780292555689815,-0.019168131053447723
4.785518646240234,-0.896864652633667,9.390691757202148,-0.0035053084138780837,-0.03195372223854065,-0.020292149856686596
4.758269309997559,-0.8979126811027528,9.421537399291992,-0.004481911659240723,-0.03741710260510445,-0.018930656835436824
4.815167903900147,-0.7826952934265137,9.419815063476562,-0.010299333371222021,-0.042150743305683136,-0.01738035120069981
4.860348701477051,-0.7257267832756044,9.407051086425781,-0.01628033630549908,-0.03772668913006783,-0.007714251056313515
4.839922428131104,-0.8186689615249634,9.401784896850586,-0.02261181361973286,-0.030968617647886276,0.0003169946430716664
4.805615901947022,-0.9739446640014648,9.355921745300295,-0.01936441659927368,-0.025073716416954998,0.003328489372506738
4.811199188232422,-0.9462871551513672,9.355656623840334,-0.014874041080474854,-0.019392354413867,0.00176787911914289
4.737443447113038,-0.9102937579154969,9.343973159790039,-0.012958621606230736,-0.012910805642604828,0.003477702615782619
4.767232894897461,-1.0238511562347412,9.372112274169922,-0.006533716805279255,-0.014090728946030142,-0.0007708504563197494
4.771010875701905,-1.0283501148223877,9.353396415710451,0.0028240513056516647,-0.010047291405498983,-0.010079815052449705
4.78737497329712,-0.932623028755188,9.338845252990724,0.01158560998737812,-0.006943733897060157,-0.015799380838871002
4.814155101776124,-0.8297898769378662,9.383971214294435,0.011173734441399574,-0.0017321340274065733,-0.014370254240930082
4.779945373535156,-0.9974652528762817,9.369234085083008,0.019459290429949764,0.0033316174522042274,-0.018289474770426754
4.740756034851074,-0.9761270880699159,9.344863891601562,0.024642763659358028,0.005569379776716232,-0.02451176568865776
4.8156800270080575,-0.8448838591575624,9.380722999572756,0.024911792948842052,0.007538424804806709,-0.024884337559342388
4.808913707733155,-0.7959066033363343,9.400248527526857,0.01898998580873013,0.0136351240798831,-0.019418898969888687
4.823053836822511,-0.9042640328407289,9.33992671966553,0.019653869792819027,0.018534716218709946,-0.014796397648751737
4.775400161743164,-1.044581413269043,9.303296089172365,0.028012201189994812,0.026546055451035503,-0.0171238835901022
4.826372623443604,-0.911170780658722,9.267903327941896,0.03540173918008804,0.04007135704159737,-0.02012423798441887
4.720706939697266,-0.8026313781738281,9.328733444213867,0.0320197269320488,0.04677387326955795,-0.015883641317486766
4.747592926025391,-0.8627820611000062,9.391238212585451,0.021781777963042263,0.046264201402664185,-0.010656059719622137
4.722639560699464,-0.7895973324775697,9.422268867492678,0.015401155687868597,0.044904910027980804,-0.006895418278872967
4.760583877563477,-0.6446071863174438,9.415818214416506,0.003572591813281179,0.04466211050748825,0.0028861926402896647
4.8046584129333505,-0.709978759288788,9.349889755249023,-0.010123115964233877,0.04961333796381951,0.013272758573293686
4.7889676094055185,-0.7268025875091553,9.326636314392092,-0.016930395737290386,0.06313157081604004,0.025092130526900295
4.746582508087159,-0.6959559321403505,9.389400482177734,-0.03180667385458947,0.06767839193344116,0.04027463495731354
4.665508747100831,-0.9495662450790405,9.412691116333008,-0.04026784002780914,0.07069555670022966,0.04967334121465683
4.691130161285401,-0.8201332092285156,9.37809467315674,-0.04101001843810082,0.07131979614496232,0.05142972618341446
4.702600479125977,-0.7577871084213257,9.43750858306885,-0.0557686910033226,0.07055074721574785,0.05203412473201752
4.6075501441955575,-0.8737143278121948,9.461806297302248,-0.07226886600255968,0.06398554146289825,0.054880574345588684
4.549830436706543,-0.7894815802574159,9.546318054199219,-0.07844188809394836,0.041399907320737846,0.04869816452264786
4.607369422912598,-0.7496706843376161,9.563941955566406,-0.09738008677959442,0.017811812460422516,0.05659636482596398
4.556929588317871,-0.9785782098770142,9.562720298767092,-0.11095000803470612,-0.00999181065708399,0.05383146554231644
4.608427524566651,-0.9259949326515199,9.537042617797852,-0.10952033847570421,-0.03502088785171509,0.0455276295542717
4.689049243927003,-0.8373050689697266,9.552762985229492,-0.11864320188760759,-0.053263597190380096,0.04862378910183907
4.642864704132081,-1.027142405509949,9.515007972717287,-0.12694910168647766,-0.06735639274120331,0.056674536317586906
4.654898166656495,-1.0305312871932986,9.539113044738771,-0.1290445625782013,-0.08068921416997911,0.05859725922346115
4.771306037902832,-0.9784600138664247,9.495606422424318,-0.1330424398183823,-0.0953574925661087,0.060958534479141235
4.750772476196289,-1.1288492679595947,9.463624954223633,-0.13005739450454712,-0.09179124981164934,0.05611102283000946
4.736609935760499,-1.0654900074005127,9.434547424316406,-0.1263009160757065,-0.09489236027002336,0.05487564206123352
4.747908592224121,-1.295361042022705,9.336824417114258,-0.11867028474807739,-0.09008149057626726,0.05034494400024414
4.654230117797852,-1.353856921195984,9.284378051757812,-0.09659315645694733,-0.08004621416330339,0.035624284297227866
4.714776039123535,-1.1889617443084717,9.341734886169435,-0.08054704219102861,-0.07949025928974152,0.025063315406441692
4.75771188735962,-1.2385187149047852,9.304731369018555,-0.07168044894933702,-0.07430345565080644,0.0202745720744133
4.727170944213867,-1.2659683227539062,9.3174524307251,-0.055740371346473694,-0.06846270710229875,0.011864615604281425
4.77326536178589,-1.2764170169830322,9.252188682556154,-0.035707987844944,-0.05552275851368905,0.00013445284275803718
4.766643524169922,-1.2542315721511843,9.282110214233398,-0.019725127145648006,-0.0387767031788826,-0.008576286025345327
4.844942092895508,-1.142747402191162,9.268131256103516,-0.007164915557950736,-0.025067565962672237,-0.013122526928782463
4.813346862792969,-1.1795767545700075,9.282718658447266,0.0015944590559229257,-0.007341505028307438,-0.016348788514733318
4.7852582931518555,-1.1759189367294314,9.271970748901367,0.01807457208633423,0.00942147057503462,-0.02073970250785351
4.804309844970703,-1.1594233512878418,9.296140670776367,0.028806747868657116,0.026540607213974,-0.023627607151865963
4.709618091583253,-1.1898431777954102,9.308577537536623,0.03767035901546478,0.037052951753139496,-0.02940492890775204
4.683598518371582,-1.2767548561096191,9.328476905822756,0.05249142646789551,0.043760176748037345,-0.03830333054065704
4.75994873046875,-1.1564005613327029,9.344345092773438,0.062149323523044586,0.04790312424302102,-0.047351609915494926
4.77624273300171,-1.064680576324463,9.356617927551271,0.06459660828113556,0.053310509771108634,-0.04845108091831207
4.729657649993897,-1.0450730323791504,9.333402633666992,0.06776021420955658,0.053683243691921234,-0.04832816496491433
4.792834758758546,-1.0029765367507937,9.353471755981445,0.06143134459853173,0.056186869740486145,-0.04641744866967202
4.678432464599609,-1.1128963232040407,9.396566390991211,0.0569986142218113,0.059066303074359894,-0.05079524219036102
4.672519683837891,-1.0228214263916016,9.459451675415039,0.061959657818079,0.05577351152896881,-0.05294987186789513
4.632228851318359,-0.9953486919403076,9.472347259521484,0.05497915297746658,0.05050747096538544,-0.05375901237130166
4.594443798065186,-0.9676944017410278,9.50197505950928,0.05152582377195358,0.033971104770898826,-0.04613032191991806
4.631207942962647,-0.9556648135185243,9.448620796203615,0.04818641766905785,0.0201646126806736,-0.04382399469614029
4.646156311035156,-0.9107205867767334,9.43651866912842,0.04046606644988061,0.007477491162717342,-0.03852577880024911
4.717084884643555,-1.0151177644729616,9.4061279296875,0.03240610659122467,0.0030133314430713654,-0.030269080772995952
4.632254600524902,-0.96563857793808,9.410682678222656,0.03219327703118325,0.002887285314500332,-0.028855042532086376
4.700279712677003,-0.878183662891388,9.448632240295412,0.020768126472830776,-0.004103449173271656,-0.0231277234852314
4.69264030456543,-0.9498827457427979,9.401365280151367,0.009151619859039785,-0.008725941181182861,-0.014090253971517088
4.618922233581543,-1.0921952724456787,9.407227516174318,0.011512161232531072,-0.013796354644000532,-0.016790617257356644
4.6999711990356445,-1.0513944625854492,9.368260383605959,0.016158007085323334,-0.014876510016620161,-0.023197311908006668
4.614816188812257,-1.0711647272109988,9.280123710632326,0.020327996462583542,-0.010280598886311056,-0.028393646702170375
4.634340286254883,-0.8219988346099854,9.446070671081545,0.011474325321614744,-0.02135942131280899,-0.02734230272471905
4.644721984863281,-0.9609192013740541,9.45406723022461,-0.0031374415848404173,-0.035117190331220634,-0.020006917417049408
4.586153984069824,-1.0306744575500488,9.412690162658693,-0.003047050209715963,-0.048463501036167145,-0.025182621553540233
4.6337890625,-1.0593540668487549,9.407597541809084,0.004237638786435127,-0.05251372233033181,-0.03420746698975564
4.597068309783936,-0.9031105637550355,9.423991203308107,0.007514174561947585,-0.060511454939842224,-0.04309524223208428
4.6277174949646005,-0.7358396649360658,9.434490203857422,-0.013012005016207695,-0.08004254102706909,-0.036006648093462
4.573166370391847,-0.8593804836273193,9.494619369506836,-0.036787912249565125,-0.10583663731813432,-0.030544038861989975
4.549471378326417,-0.8320084810256958,9.467483520507812,-0.051748108118772514,-0.13574129343032837,-0.02885517105460167
4.381160259246827,-0.9586899280548096,9.54737186431885,-0.06240773946046829,-0.1779940873384476,-0.035450808703899384
4.4924635887146005,-0.8621594309806825,9.571003913879396,-0.06625133752822876,-0.236800879240036,-0.039546985179185874
4.189627170562745,-1.0932990312576296,9.454490661621094,-0.05808911845088006,-0.2932848334312439,-0.05835411325097085
4.049221992492676,-1.4324686527252197,9.66452407836914,-0.010579095222055914,-0.3815746307373047,-0.1287064254283905
4.539352893829347,-1.4884328842163086,9.555363655090334,0.041937794536352165,-0.48386329412460327,-0.17788381874561313
4.415957450866699,-0.9526339173316957,9.690654754638672,0.054837748408317566,-0.5942569971084595,-0.22445239126682284
4.2719879150390625,-0.6893528103828431,9.855284690856935,0.03153645247220993,-0.7245491147041322,-0.21328496932983398
3.656705856323242,-1.0396655797958376,10.236919403076172,-0.006393792107701302,-0.917892873287201,-0.20718787610530856
3.518513441085816,-0.8338826298713685,10.369264602661133,0.0023057500366121535,-1.2008874416351318,-0.19070674479007724
3.3905804157257085,-0.5835428237915039,10.698342323303224,-0.024793660268187526,-1.5552412271499636,-0.14556968212127686
3.6623060703277592,-0.7911970615386963,10.6952600479126,-0.08057811111211778,-1.9038689136505127,-0.14107029139995578
4.121710777282715,-0.6233997344970703,10.640813827514648,-0.11624376475811005,-2.229921102523804,-0.18486045300960544
4.293534278869629,-0.9247846603393555,10.759759902954102,-0.12930949032306674,-2.5282082557678223,-0.23421566188335421
4.12722110748291,-1.3738425970077517,11.054202079772951,-0.06951186805963518,-2.875994443893433,-0.2994072437286377
4.313684463500977,-1.6967579126358034,11.115138053894045,-0.04625340551137924,-3.27438759803772,-0.347295343875885
4.446401596069336,-1.6601934432983398,11.32125473022461,-0.06342040002346039,-3.627534151077271,-0.40441730618476873
4.581984043121339,-2.597011089324951,10.401007652282717,0.07212767750024797,-4.010488510131836,-0.53155654668808
5.10849666595459,-3.5143632888793945,9.715923309326172,0.6685106754302979,-4.568428993225098,-0.8724481463432313
7.7001142501831055,-3.5235741138458256,11.61593532562256,1.2236653566360476,-5.25338077545166,-1.0656288862228396
11.979090690612795,-2.902895450592041,14.869152069091797,1.3483155965805056,-5.544367790222168,-1.1073827743530273
14.934619903564453,-4.046039104461671,15.497002601623537,1.4538048505783083,-5.413168907165527,-1.2023431062698366
22.373775482177734,-6.19828748703003,15.12146854400635,1.8636883497238161,-5.202408313751222,-1.3223657608032227
30.499830245971683,-5.559375762939453,13.33858871459961,2.4731826782226562,-4.801569461822511,-1.3624398708343506
32.34111404418946,-5.283977985382081,9.287257194519045,3.2311739921569824,-4.2485928535461435,-1.3035386800765993
32.43832778930665,-6.359135627746582,7.533524513244629,4.503749370574952,-3.850674629211426,-1.1990164518356325
27.988178253173828,-0.6707673072814941,5.436738967895508,4.999861240386964,-3.628971338272095,-0.6898043155670166
43.730567932128906,5.742759227752686,17.61783027648926,3.570173025131226,-2.9011778831481934,-0.14248876273632052
27.202335357666016,5.430903911590577,15.0413293838501,1.543731451034546,-1.7195616960525515,0.5604535937309266
21.644725799560547,4.46808958053589,12.276173591613771,-0.4339226186275483,-1.5907564163208008,0.9645987153053285
17.026700973510746,1.1300272941589355,10.31903076171875,-1.6904171705245974,-1.7060610055923464,1.0052390098571777
14.030610084533693,-2.686978340148926,9.693570137023928,-2.1172764301300053,-1.8720519542694092,0.7107699513435365
12.140657424926758,-5.899576187133789,9.760753631591797,-1.6549483537673952,-1.903259038925171,0.17068469524383545
10.565191268920898,-6.096547603607179,10.13010025024414,-0.6053979396820068,-1.758078455924988,-0.3801414370536804
7.99530029296875,-2.8720276355743413,11.254479408264162,0.23617631196975708,-1.4746580123901367,-0.7414788603782655
5.960136413574219,0.44415065646171575,12.029375076293945,0.3535581529140473,-1.030210018157959,-0.856307089328766
3.4314260482788086,1.6416740417480469,11.271072387695312,-0.005250660236924888,-0.4745967984199524,-0.8675057888031006
0.3846977055072785,0.7610987424850464,9.685489654541016,-0.37033510208129883,0.03922028467059136,-0.8544604778289795
-2.236387968063355,-0.34411418437957764,7.873258590698242,-0.43451476097106934,0.41713380813598633,-0.8229098916053773
-4.06543779373169,-0.6146515607833862,6.451062679290772,-0.29355287551879883,0.6590360999107362,-0.8145878314971924
-3.991522550582886,-0.389312744140625,6.9271607398986825,-0.17564634978771212,0.891834020614624,-0.7697961330413818
-2.9282612800598145,-0.6478867530822754,7.455320358276367,-0.118655726313591,1.3244229555130007,-0.6062910556793213
-3.7468101978302006,-1.3309295177459717,6.758122920989991,0.009500774554908277,1.8408292531967165,-0.40387195348739624
-5.747967243194581,-1.2336006164550781,5.034904956817628,0.14733879268169406,2.227283000946045,-0.23454539477825168
-7.354889869689941,-0.2552371025085449,3.048670768737793,0.17721042037010193,2.413244485855103,-0.10969216376543046
-8.1485595703125,0.4854085743427277,1.6220791339874268,0.013098247349262238,2.4582402706146245,0.015115536749362946
-8.086293220520021,0.39401620626449585,0.9755926728248597,-0.22922217845916748,2.460516929626465,0.13881324231624606
-7.025712966918945,-0.10733133554458618,1.3103965520858767,-0.41713017225265503,2.5139448642730717,0.2713020443916321
-5.972249507904054,-0.4124865829944611,1.6366350650787354,-0.48664700984954834,2.689520120620728,0.4101387560367585
-5.166330814361573,-0.26540815830230713,1.7510712146759033,-0.5121900439262391,2.927464008331299,0.5387405753135682
-4.270323753356934,0.1116819977760315,1.7899283170700075,-0.5632117986679077,3.171297550201416,0.6692073941230775
-3.472880125045777,0.4297402501106262,1.3876335620880127,-0.6333659887313843,3.3944556713104252,0.8073737621307373
-2.6687715053558354,0.8781344294548036,0.8544243574142456,-0.7049167156219482,3.5667116641998295,0.9470165371894838
-2.2878565788269043,2.003111600875855,0.12923263013362887,-0.7948117256164551,3.624604463577271,1.0420441627502441
-1.0944766998291016,2.8727142810821538,-0.12795671820640564,-0.9355762004852295,3.585244655609131,1.0444847345352175
0.7092605829238892,3.3738112449645996,0.5591495037078857,-1.0388591289520264,3.5133483409881596,0.9564346075057983
3.053653478622437,3.338739156723023,1.793774127960205,-1.0445879697799685,3.5113449096679688,0.7791178226470947
4.927886009216309,3.2444920539855957,2.4120240211486816,-0.9381747841835023,3.5706663131713867,0.5409625172615052
6.127703666687012,4.238340854644776,2.961385011672974,-0.856062948703766,3.569273710250855,0.2835988998413086
8.453540802001953,4.028433322906495,3.838898181915283,-0.9125529527664185,3.5780827999114995,0.03382221609354019
10.35382080078125,2.6707706451416016,4.525531768798828,-0.8121331930160522,3.553944826126099,-0.16377915441989901
11.752011299133303,2.087543487548828,4.501238822937012,-0.6720680594444276,3.4622011184692383,-0.2714026868343354
12.92034435272217,1.3538209199905398,4.296794414520265,-0.5805458426475526,3.27804446220398,-0.2791770100593567
14.084937095642092,0.5348259210586548,3.676300525665283,-0.5048987269401551,3.011366844177246,-0.14023385941982272
14.779436111450195,0.19181060791015625,2.45809268951416,-0.43078070878982544,2.6174557209014897,0.1260459274053574
14.38880252838135,0.09013636410236359,0.9696751832962036,-0.3652076721191406,2.094549417495728,0.42851120233535767
13.67689323425293,0.6890726089477539,0.12252010405063629,-0.3269410729408264,1.4787287712097168,0.714487373828888
13.04669189453125,1.1961033344268799,0.018545374274253845,-0.32001107931137085,0.8607216477394105,0.9176309108734131
12.755657196044922,2.037231922149658,-0.05158877372741699,-0.27881106734275823,0.28917378187179565,0.9702109098434448
11.948883056640625,2.240228414535523,-0.9447846412658691,-0.13757392764091492,-0.26076784729957586,0.8769921064376831
9.462244033813477,2.2935154438018803,-2.873839616775513,0.1581549346446991,-0.8735069036483765,0.6295003294944764
55.787670135498054,18.60150909423828,17.330554962158203,-2.220054388046265,-2.6690335273742676,1.1523987054824831
45.54398727416993,9.598566055297852,20.849657058715824,-0.5242140889167787,2.30971097946167,0.4962943196296692
3.222052574157715,-4.878096580505371,4.799655914306641,-1.6795988082885742,1.431026101112366,1.0563654899597168
5.796828746795655,-0.0878339558839798,14.968754768371584,-0.7407217025756836,1.7597570419311523,1.1022864580154421
-6.891458034515382,-1.6212081909179688,10.629596710205078,-0.15757389366626742,1.0555107593536377,0.37562343478202825
-0.5198429822921753,-7.1478028297424325,11.351220130920412,0.07396804541349412,0.3230668902397156,-0.07091149687767029
1.87083375453949,-9.72000503540039,11.355833053588867,0.3532802760601044,-0.1841486692428589,-0.4406785070896149
4.552988052368164,-1.9824818372726443,10.499679565429688,0.42813405394554144,-0.35654094815254217,-0.6045849323272705
8.309097290039062,3.402270078659058,9.085872650146484,0.2971229553222656,-0.2331565171480179,-0.480421245098114
8.209718704223633,4.330435752868652,8.758053779602053,-0.1516922414302826,-0.04268911853432656,-0.12183368951082231
6.846770763397218,0.7288767695426942,8.895861625671388,-0.3457032144069672,0.1549435555934906,0.13934563100337985
5.406255722045898,-2.1735322475433354,8.815297126770021,-0.2320215851068497,0.17921943962574008,0.1982041597366333
4.674097537994386,-3.6477587223052983,8.765784263610842,-0.09442212432622911,0.16602277755737305,0.07187151163816453
4.633562088012695,-2.1159017086029057,9.163199424743654,0.0030336310155689716,0.12126419693231584,-0.03818755969405175
4.792168617248535,0.8150070905685425,10.102855682373047,-0.07438120245933533,0.06163281574845315,0.0015540518797934055
5.032800674438477,0.8561363220214844,9.945311546325685,-0.2351934015750885,-0.02521117776632309,0.145745262503624
4.735941410064698,-0.8258031606674194,9.607706069946289,-0.28085464239120483,-0.10916975885629655,0.19615250825881958
4.608745574951172,-1.6563642024993896,9.619182586669922,-0.2386910617351532,-0.20895694196224215,0.14387796819210055
4.7983293533325195,-1.3900446891784668,9.484619140625,-0.18874754011631015,-0.2882450819015503,0.09308045357465745
5.016275882720948,-0.5397557616233827,9.559472084045412,-0.2165607511997223,-0.3451048731803894,0.08361349254846574
5.257381439208984,-0.9197155237197876,9.420050621032717,-0.2756974697113037,-0.38827130198478704,0.10391251742839813
5.133231163024902,-0.8617051243782045,9.340829849243164,-0.30451059341430664,-0.44108530879020696,0.12898977100849154
5.358057022094727,-0.6368220448493959,9.350004196166992,-0.33019423484802246,-0.4737010300159455,0.1616797149181366
5.302461624145508,-1.07966947555542,9.19914436340332,-0.374738872051239,-0.5136727094650269,0.17395116388797763
5.270586013793945,-1.0034269094467165,9.169342994689943,-0.4070713818073273,-0.5576072931289673,0.19355960190296176
5.321702003479004,-1.3356252908706667,9.019441604614258,-0.43827334046363836,-0.5733281373977661,0.19050362706184387
5.360060214996339,-1.671842932701111,8.898462295532227,-0.4322734475135803,-0.592996656894684,0.19011694192886353
5.359371185302734,-1.4532903432846072,8.923989295959474,-0.4331933856010437,-0.6052826642990112,0.19194881618022921
5.452207565307617,-0.9744275212287904,9.05922031402588,-0.4530368447303772,-0.6315086483955384,0.20611026883125305
5.342689514160156,-1.3322150707244873,8.67623805999756,-0.4828255474567414,-0.6525945663452148,0.2154083251953125
5.509490013122559,-1.5950486660003662,8.865324020385742,-0.4817699193954468,-0.6925731301307679,0.21816885471343994
5.399014472961426,-1.8540983200073242,8.573488235473633,-0.473646879196167,-0.70247483253479,0.2160805314779282
5.793739318847656,-1.9519121646881104,8.441763877868654,-0.4316202998161316,-0.6935049891471864,0.20298197865486145
5.826416969299316,-1.8409717082977295,8.454440116882326,-0.4038772284984589,-0.6906344890594482,0.18229106068611145
5.592141628265382,-2.259955406188965,8.394839286804201,-0.3619600534439087,-0.6695649027824403,0.1660708487033844
5.523598194122315,-2.361413717269898,8.49374294281006,-0.30977275967597967,-0.6806856989860536,0.1584169864654541
5.59565019607544,-2.4844789505004883,8.34578609466553,-0.25688531994819647,-0.687882661819458,0.12821008265018466
5.516742706298828,-2.5661509037017827,7.97105360031128,-0.19905860722064975,-0.6878936290740967,0.08876894414424896
6.157273769378663,-2.071790456771851,8.178458213806154,-0.18882706761360168,-0.6745962500572206,0.07409404218196869
6.192571163177491,-2.130569696426392,8.065038681030273,-0.16558688879013062,-0.6153774261474609,0.06523513048887254
5.837616920471191,-2.448699474334717,7.904194355010987,-0.16253149509429932,-0.5593461394309999,0.051314577460289
6.514087677001953,-2.562286853790283,7.889536380767823,-0.13067296147346497,-0.5075880885124208,0.024398440495133403
6.467682361602784,-2.356367588043213,7.812689781188965,-0.08576709777116777,-0.41873300075531006,0.0024582140613347296
6.625663757324219,-1.991756081581116,7.757071018218995,-0.07636918127536774,-0.32037729024887085,-0.007892697118222715
6.528673648834229,-1.9018362760543825,7.974272727966309,-0.06783089786767961,-0.23038527369499207,0.004331483971327544
6.119330883026124,-2.1322767734527592,7.935054779052734,-0.07373137027025224,-0.16871050000190735,-0.0014859160874038935
6.214749336242676,-2.52554988861084,7.988240718841554,-0.048837017267942436,-0.13951927423477173,-0.036805827170610435
6.153279781341554,-2.181471347808838,8.164447784423828,-0.020512636750936508,-0.12142838537693024,-0.06095797941088677
6.040153503417969,-2.653481721878052,7.851708889007569,-0.014310704544186592,-0.10308093577623369,-0.10238003730773926
6.192134380340577,-2.362149000167847,7.826913356781007,0.020175572484731674,-0.09835284203290941,-0.14455632865428927
6.346181869506836,-1.647769093513489,8.045857429504396,0.011453765444457533,-0.08755946159362793,-0.15138043463230136
6.306252956390382,-1.940201997756958,8.14540195465088,-0.008198121562600136,-0.0748988687992096,-0.13515983521938327
6.054549217224121,-1.8192174434661865,8.326645851135256,-0.013168534263968468,-0.09075125306844713,-0.12823203206062317
6.12850284576416,-1.5156779289245605,8.4810266494751,-0.03168085590004922,-0.13299477100372314,-0.11792810261249542
6.20771598815918,-1.3560589551925661,8.498395919799805,-0.07286101579666138,-0.1792157739400864,-0.10057786107063293
6.159955501556397,-1.0021873712539675,8.457752227783203,-0.09454489499330522,-0.23597912490367892,-0.06083032488822937
5.862875938415527,-1.3691296577453613,8.430989265441896,-0.11280985921621324,-0.31202685832977295,-0.030732186511158947
5.557982444763184,-2.301186800003052,8.313373565673828,-0.08610187470912933,-0.40210756659507757,-0.07479319721460344
5.605836868286133,-3.044064521789551,8.128677368164062,-0.007721124682575465,-0.48099493980407715,-0.1833864599466324
5.76295042037964,-3.6264309883117676,7.876232147216797,0.1073504611849785,-0.5121601223945619,-0.35402119159698486
6.395440101623535,-3.568744659423828,7.4347882270813,0.2586519122123718,-0.502791464328766,-0.5197999477386475
6.83714246749878,-2.3551559448242188,7.445305824279785,0.32492312788963323,-0.4709267020225525,-0.605774998664856
6.755468368530273,-1.5365244150161745,7.7090163230896005,0.30805268883705145,-0.47800111770629883,-0.5781796574592591
6.329554080963136,-0.8769100904464722,8.54868793487549,0.2222057580947876,-0.5187090635299683,-0.5281752943992616
5.474747657775879,-1.3881927728652956,8.821478843688967,0.190190926194191,-0.6636660099029541,-0.4436547458171845
5.611072540283203,-1.3727178573608398,8.934679985046388,0.19709528982639316,-0.8701292276382446,-0.4176217317581177
5.771550655364991,-1.7088022232055664,9.099810600280763,0.20182940363883972,-1.0850831270217898,-0.4515325427055359
5.881062984466554,-1.8620126247406006,8.58835220336914,0.24288447201251986,-1.2867480516433718,-0.507764458656311
6.472525596618652,-1.0648139715194704,8.316610336303711,0.3012850284576416,-1.4589747190475466,-0.5593633651733398
6.903043746948242,-1.1016634702682497,8.538454055786133,0.3214910626411438,-1.5520347356796267,-0.5679935812950135
6.331655502319336,-1.439246416091919,8.300313949584961,0.34221008419990545,-1.6353328227996826,-0.5557270646095277
6.160687923431397,-1.6521586179733279,8.112563133239748,0.41067001223564154,-1.8041113615036013,-0.6191408634185791
6.172408103942871,-1.9831835031509402,8.091908454895021,0.48800340294837957,-2.0471763610839844,-0.6947485804557801
6.548764228820801,-2.1130504608154297,7.904266357421875,0.5785385966300965,-2.305755138397217,-0.7915164232254028
5.726553440093995,-1.4834192991256716,8.10201168060303,0.6267498135566713,-2.6570487022399902,-0.8054575324058534
6.691500186920167,-1.828221321105957,8.100613594055178,0.7295275330543519,-3.0630257129669194,-0.8557013273239136
6.898224353790284,-2.3748991489410405,7.540873050689698,0.849223554134369,-3.5262598991394043,-0.89678293466568
7.552497863769531,-0.3966906368732453,7.842551231384277,0.8843072056770326,-4.043859481811523,-0.9192930459976196
8.464089393615724,-0.24292463064193726,8.01192378997803,0.7976409792900087,-4.496228218078613,-0.8630941510200502
9.874165534973146,0.870231032371521,8.52193832397461,0.6692593097686768,-4.817440032958984,-0.712455451488495
12.603565216064453,0.9746225476264955,9.15580463409424,0.4456134140491486,-4.968245506286621,-0.5129899382591249
14.222944259643555,0.18359677493572238,9.29913330078125,0.31810024380683904,-4.769166946411133,-0.3459984064102173
17.743934631347656,-0.24487346410751343,9.839166641235352,0.28393438458442694,-4.300197601318359,-0.25060018897056585
20.688402175903324,-1.0374722480773926,9.089487075805664,0.10968513786792755,-3.7446155548095703,-0.14583401381969455
22.71808624267578,-1.7199513912200928,8.769997596740724,-0.5141295790672303,-3.2650952339172363,-0.06251680105924608
21.04714584350586,0.7112212777137757,7.121026515960694,-1.2585593461990359,-2.6190342903137207,-0.13897386193275452
16.718841552734375,-2.8406758308410645,1.8838810920715332,-1.8572024106979372,-2.3809099197387695,-0.3756124675273896
19.141281127929688,-5.728157997131348,-1.11395800113678,-1.243620276451111,-2.697567701339722,-0.9925404787063599
18.41637229919434,-4.125155448913574,-3.320758819580078,-0.1621931493282318,-3.005752325057984,-1.784193992614746
17.87560272216797,-1.599668622016907,-4.53187131881714,0.8513579368591309,-3.6283080577850346,-2.7149398326873784
22.317264556884766,4.345602035522461,-2.8669795989990234,1.3863440752029421,-4.480802536010742,-3.6237952709198002
29.73677253723145,6.365930080413819,7.463886260986328,0.9079478979110718,-4.342226982116699,-3.9115760326385502
22.580406188964844,5.570342063903809,6.29856014251709,-0.2871611416339875,-3.7512097358703613,-3.76939606666565
21.550655364990234,2.5276439189910893,6.272028446197511,-1.05733597278595,-3.500286102294922,-3.780240058898926
18.62563514709473,0.30186939239501953,5.909378528594972,-1.375007152557373,-3.1913778781890874,-3.6979079246520996
15.739761352539062,-1.5664010047912598,5.46531867980957,-1.439636826515198,-3.0596873760223393,-3.6385459899902344
13.387516021728516,-4.353399276733398,5.57435178756714,-1.1875680685043337,-2.9667630195617676,-3.5398766994476323
11.479726791381836,-7.237216949462891,5.793967247009277,-0.5238408446311952,-2.875575065612793,-3.2692317962646484
10.234550476074219,-7.949335098266602,6.4468841552734375,0.4459041953086853,-2.723061323165894,-2.966066360473633
8.55959701538086,-7.430039405822754,7.213635921478272,1.3544830083847048,-2.446382284164429,-2.6112899780273438
6.6351284980773935,-5.775588035583496,8.125385284423828,1.9369146823883057,-2.0467598438262944,-2.157926559448242
5.604670047760011,-4.004816532135011,9.282107353210451,2.086727380752564,-1.5573976039886475,-1.5701587200164795
5.289409637451172,-2.2263329029083256,10.720449447631836,1.8691445589065554,-0.9071367979049683,-0.9143576025962831
4.912040710449219,-0.7627081871032715,11.827403068542482,1.3158936500549316,-0.05733755975961685,-0.2162275463342667
4.040935993194581,0.08020642399787903,12.087884902954102,0.5817865729331971,0.9053021669387817,0.45014932751655584
2.2669889926910405,-0.2802688479423523,10.997128486633303,-0.0981304794549942,1.8236402273178103,0.9877124428749086
-0.60643869638443,-1.1057343482971191,8.691346168518068,-0.4748871922492981,2.460211515426636,1.3348829746246338
-2.900930881500244,-0.9765465855598451,6.38995361328125,-0.5260284543037416,2.727051973342896,1.5427446365356445
-3.3577256202697754,-1.2297137975692751,5.017239570617676,-0.4169445037841797,2.7332174777984624,1.631338357925415
-2.9723410606384277,-0.7360837459564209,4.686205387115479,-0.2008780837059021,2.715201616287232,1.6351946592330935
-2.37575101852417,-0.022681213915348053,5.094217300415039,-0.06762367486953735,2.755224466323853,1.6443383693695068
-1.324272632598877,0.5318729877471924,5.970962047576905,-0.051727838814258575,2.892345428466797,1.666849493980408
-0.7145105600357056,0.5674464106559755,6.371105670928956,-0.06640640646219255,3.140317440032959,1.6499799489974978
-0.9245534539222718,1.2480056285858154,6.408734321594238,-0.1188223883509636,3.384812355041504,1.5745186805725098
-0.6388528347015381,2.179237604141236,6.565426826477051,-0.3015579581260681,3.577090978622437,1.4876737594604492
0.3094034194946289,2.4149434566497807,6.918715953826905,-0.6066839694976807,3.7808008193969727,1.4191092252731325
1.343384027481079,1.9511328935623171,7.127694606781007,-0.8957902193069458,4.031877040863038,1.3926005363464355
2.060123682022095,1.1290793418884277,7.187558174133301,-1.0461875200271609,4.277911186218262,1.3754918575286865
2.3994321823120117,0.6782549619674683,6.762660503387452,-1.0494738817214968,4.501640319824219,1.3583484888076784
2.2809283733367924,0.42180538177490234,6.311527252197266,-0.9829323887825013,4.627984523773194,1.3349895477294922
2.735385656356812,0.5848337411880493,6.155612468719483,-0.94005286693573,4.662140369415284,1.3488776683807373
3.5470983982086186,0.6290065646171571,6.309419631958008,-0.9397894740104676,4.668395042419434,1.4004614353179932
4.6754045486450195,0.8123772144317627,6.672378063201905,-0.9743579626083374,4.681070804595948,1.4569950103759766
5.689608573913574,1.1796395778656006,7.291010856628418,-1.0246764421463015,4.7001709938049325,1.5275459289550781
6.794108867645265,1.6467753648757937,7.881514072418214,-1.0880422592163086,4.737284183502198,1.5658142566680908
8.252403259277344,1.9604735374450684,8.349574089050295,-1.1405766010284424,4.792155742645265,1.5523000955581667
9.852986335754396,2.3545379638671875,8.742554664611818,-1.1623685359954834,4.848361492156983,1.475031852722168
11.29945468902588,2.9625697135925293,8.93445682525635,-1.1847215890884402,4.900603771209718,1.3272747993469238
12.471380233764648,3.4834346771240234,9.092517852783203,-1.2473858594894411,4.939739227294922,1.1183224916458132
13.271918296813967,3.6827814579010014,9.078847885131836,-1.3391600847244265,4.956602096557617,0.9065083265304565
13.707679748535156,4.540138721466065,9.110352516174318,-1.4449390172958376,4.907346725463867,0.7081579566001893
14.076900482177734,5.934276580810547,8.587890625,-1.6518079042434695,4.783175945281983,0.47347545623779297
14.525856018066406,6.720439910888672,7.779345512390137,-1.9485965967178347,4.557707786560059,0.1376708894968033
14.479223251342773,6.838522911071777,7.170592308044434,-2.207923412322998,4.221792697906495,-0.28225198388099676
14.735788345336914,6.8553056716918945,7.286855697631836,-2.3903505802154545,3.8268203735351562,-0.7717291712760926
16.925785064697266,7.335360527038574,8.614189147949219,-2.5200684070587163,3.51199746131897,-1.2638888359069824
19.198169708251953,8.823568344116211,9.61855697631836,-2.693435907363892,3.417339324951172,-1.7611824274063113
19.88986396789551,10.056879043579102,8.948654174804688,-2.9392881393432617,3.4947392940521245,-2.2932531833648686
18.781375885009766,10.440564155578615,6.686997890472413,-3.2008740901947026,3.5152487754821777,-2.8092982769012456
16.72589111328125,9.806672096252443,4.2434282302856445,-3.3758265972137456,3.325949907302857,-3.2727441787719727
15.444327354431154,8.507560729980469,2.8114392757415776,-3.392645120620728,2.953578472137451,-3.6468975543975835
15.596601486206055,7.51229190826416,2.737553119659424,-3.293789863586426,2.5643804073333745,-3.8917353153228764
15.188705444335938,6.709730625152589,2.5608863830566406,-3.193214654922486,2.259305477142334,-3.9820511341094975
14.176377296447756,5.615669250488281,2.1691155433654785,-3.11075234413147,1.951205372810364,-3.9221768379211426
13.759876251220703,4.632571697235108,1.9123860597610476,-2.9781143665313725,1.6168525218963623,-3.754012823104859
14.107391357421875,4.229860305786133,2.1535940170288086,-2.8040015697479252,1.3462498188018799,-3.471895217895508
13.932029724121094,3.6081395149230957,2.499969005584717,-2.567187786102295,1.1986035108566286,-3.1232433319091797
12.68006992340088,2.4649658203125,2.560059785842896,-2.1862316131591797,1.0910298824310303,-2.7526009082794194
8.694643020629883,-2.231263399124146,3.809583425521851,-1.5815012454986572,0.9467466473579408,-2.3501968383789062
13.165987968444826,-7.031127452850343,-4.1050262451171875,2.1463525295257573,0.07678771018981934,-2.602842330932617
-3.2921712398529057,14.491310119628906,5.036155223846436,1.4796686172485352,-0.48300531506538397,-1.8283231258392334
14.887545585632326,-17.49676322937012,13.650387763977053,1.2413517236709597,-1.508684039115906,-0.6008317470550537
15.657930374145508,-19.750381469726562,19.93685531616211,1.4023396968841553,-1.2108861207962038,-1.1103291511535645
11.526901245117188,-11.367495536804201,14.255857467651367,1.3400447368621826,-0.6879362463951112,-0.44325479865074163
5.834508895874023,7.573793411254883,11.302558898925781,0.8008466958999634,-0.6414164900779725,0.03487090766429901
9.074568748474123,19.890216827392578,15.7125940322876,0.12592962384223938,-0.5341041088104248,0.2590831816196442
4.478142738342285,7.738429546356202,11.541719436645508,-0.22026424109935763,-0.24178805947303772,-0.09286230057477952
3.228639602661133,-5.284273147583008,8.576932907104492,-0.28574427962303167,-0.4203897714614868,-0.08901703357696533
3.9413001537323002,-3.4326438903808594,9.098508834838867,0.12764737010002136,-0.4651534855365754,-0.029112543910741806
6.404513835906983,3.323580741882324,10.51649284362793,-0.0681683048605919,-0.4724543988704682,0.12179070711135864
5.822460174560547,-0.15630534291267395,9.805535316467287,-0.1787374168634415,-0.21026965975761414,-0.04815014079213143
5.01340389251709,-4.5677762031555185,8.959246635437013,-0.16311609745025635,-0.16834758222103122,0.019328525289893154
5.082797050476074,-1.244988560676575,9.86076545715332,-0.032204218208789825,-0.14728437364101413,0.036898888647556305
5.118021488189698,-0.9643054604530336,9.858926773071289,-0.02091880887746811,-0.11678807437419891,-0.013961573131382467
5.223188400268555,-1.767871618270874,9.686100959777834,0.007368195801973343,-0.08426063507795335,-0.014601325616240501
5.04587459564209,-0.9464417695999146,9.735532760620117,-0.015517120249569418,-0.0435841828584671,0.015669401735067368
4.566730976104737,-1.1190274953842165,9.668904304504396,-0.058585520833730705,-0.030384033918380737,0.03285640105605126
4.126551628112793,-1.5317469835281374,9.627735137939453,-0.06425345689058305,-0.08215197175741197,0.020623184740543365
4.603548526763917,-1.1940861940383913,9.711322784423828,-0.0576491504907608,-0.12074955552816392,-0.004046508111059666
4.699028015136719,-1.1778278350830078,9.55894660949707,-0.0680641233921051,-0.1287200599908829,-0.005686955992132426
4.866898536682129,-1.2332794666290283,9.447896003723146,-0.07535780966281891,-0.13024322688579562,0.010658638551831245
4.6809048652648935,-1.4269788265228271,9.439037322998047,-0.07157132774591447,-0.12076223641633989,0.011166198179125786
4.413555145263672,-1.6142956018447878,9.412389755249023,-0.06625428050756456,-0.12826737761497498,0.0016503786901012065
4.439354419708253,-1.5649217367172243,9.483673095703125,-0.0572185143828392,-0.16243650019168857,-0.011887553147971632
4.779050827026367,-1.3815656900405886,9.427292823791506,-0.055874764919281006,-0.16720460355281833,-0.015220524743199348
4.827898502349854,-1.235669255256653,9.411489486694336,-0.05920170992612839,-0.1504514217376709,-0.012756303884088995
4.688861846923828,-1.3233587741851807,9.390583038330078,-0.06066194921731949,-0.14001674950122836,-0.007886383682489395
4.601978778839112,-1.411489486694336,9.376258850097656,-0.06973603367805481,-0.13519836962223056,-0.005707795266062022
4.650947093963624,-1.4918148517608643,9.223527908325195,-0.062233470380306244,-0.12713550031185153,-0.009877040982246399
4.631156444549561,-1.6528537273406982,9.11079216003418,-0.050408672541379936,-0.11676766723394395,-0.015593186020851135
4.684966087341309,-1.3943256139755251,9.237360000610352,-0.04375152662396432,-0.10838058590888977,-0.014724082313477995
4.581846237182617,-1.7616796493530273,9.096900939941406,-0.029086381196975708,-0.09819511324167253,-0.028780838474631313
4.3534135818481445,-2.0195822715759277,9.014988899230959,0.01432368252426386,-0.11349137127399445,-0.05623975023627282
4.760044097900391,-1.6533832550048828,9.219463348388672,0.030854661017656326,-0.13026204705238342,-0.06968902796506883
4.753223896026612,-1.5628720521926882,9.244050979614258,0.03154849261045456,-0.12365543097257616,-0.0740526020526886
4.687160491943359,-1.3913853168487549,9.343017578125,0.027776136994361877,-0.12643109261989596,-0.0773422345519066
4.909668922424316,-1.197967767715454,9.4154748916626,0.019591869786381725,-0.126138836145401,-0.07613136619329454
4.787559509277344,-1.155249834060669,9.36971950531006,0.0012429202906787395,-0.1154637485742569,-0.07382261008024217
4.9016127586364755,-1.046525239944458,9.392704010009766,-0.01761175505816937,-0.11660903692245483,-0.06682682782411577
4.837852001190186,-1.269822597503662,9.346637725830078,-0.040369357913732536,-0.11748519539833069,-0.04974141716957092
4.776732444763184,-1.4069491624832156,9.289135932922365,-0.04916714131832123,-0.12019781023263933,-0.04356005787849426
4.588299274444581,-1.3211190700531006,9.268121719360352,-0.03649633005261422,-0.14040280878543857,-0.05544152110815048
4.723880290985108,-1.475996971130371,9.353321075439453,-0.02489750646054745,-0.15979737043380737,-0.07335030287504198
4.7071547508239755,-1.8389105796813965,9.193748474121094,-0.010485538281500341,-0.16150149703025818,-0.09896478056907654
4.641922950744629,-1.6968549489974978,9.32567882537842,0.011779297143220901,-0.1743171960115433,-0.13323304057121277
4.877889156341554,-1.3246066570281982,9.413731575012209,0.011961616575717926,-0.19616469740867615,-0.14830254018306735
4.69228219985962,-1.626310467720032,9.331491470336914,0.00340523268096149,-0.2038959264755249,-0.15661977231502536
4.669079303741456,-1.4357408285140993,9.366931915283203,0.018731588497757915,-0.23889970779418945,-0.1789126694202423
4.9317216873168945,-0.9771019220352173,9.38569450378418,-0.004158122465014458,-0.29417619109153753,-0.1758216917514801
4.852443218231202,-0.9951293468475342,9.391295433044435,-0.06118680909276009,-0.34395441412925726,-0.15142863988876343
4.848850250244141,-1.0751951932907107,9.483208656311037,-0.10871282964944841,-0.40390199422836304,-0.13294224441051486
4.854316234588624,-0.9791997671127319,9.438183784484865,-0.1481037884950638,-0.4605882167816162,-0.11182264983654022
4.947716236114503,-0.8583508729934692,9.538212776184084,-0.18902236223220825,-0.5537851452827455,-0.08782370388507843
4.61564588546753,-1.1340882778167725,9.5348596572876,-0.2441387325525284,-0.6570616364479066,-0.08906975388526917
4.399020195007324,-1.003112554550171,9.755591392517092,-0.335877001285553,-0.8134911656379701,-0.1124919056892395
4.40662956237793,-1.0019603967666628,9.819337844848633,-0.4211628139019013,-0.981377363204956,-0.11628608405590057
4.359461307525636,-0.883391261100769,9.703921318054201,-0.5017284154891968,-1.221145033836365,-0.08152726292610168
3.8412866592407227,-0.4909408688545227,9.957085609436037,-0.6103358268737793,-1.4641501903533936,-0.04961392655968667
3.9188151359558105,-0.4628324508666992,10.091307640075685,-0.728471338748932,-1.7901496887207031,-0.0531345121562481
3.5275647640228276,-0.335587352514267,10.263753890991211,-0.8481571674346924,-2.1454989910125737,-0.06820005923509599
3.7445580959320073,-0.27954921126365667,10.47878646850586,-0.9432786107063295,-2.556063175201416,-0.02411543764173985
3.761903047561646,0.004197791218757629,10.630317687988281,-1.0022808313369753,-3.0606672763824467,0.003443203866481781
2.3768982887268066,-0.08407354354858398,10.609883308410646,-1.1172661781311035,-3.792367219924927,0.03633032739162445
2.9525706768035893,-2.055783033370972,11.745900154113771,-1.1486715078353884,-4.809589385986328,-0.003830932080745697
2.2061765193939213,-2.7759737968444824,12.415432929992678,-0.9846422076225282,-5.892852783203125,0.004249513614922763
3.5121898651123047,-4.9431915283203125,13.96255111694336,-1.3314617872238161,-7.49079465866089,-0.41790449619293213
6.463344097137452,-3.338292837142945,17.538818359375,-1.7831975221633913,-8.806999206542969,-0.4112085402011872
12.265892982482912,-0.19793358445167542,20.493185043334964,-2.2739241123199467,-9.294971466064453,-0.16350051760673523
19.32453155517578,-4.309357166290284,18.84966850280762,-2.647289276123047,-9.267735481262209,-0.04784061014652252
26.49234199523926,-5.79177188873291,22.142398834228516,-3.078004121780396,-8.567816734313967,-0.4483473300933838
27.44341087341309,-4.794770240783691,21.732803344726562,-3.5970933437347417,-7.540008544921875,-1.1075583696365359
29.415943145751953,-4.348733425140382,19.330947875976562,-4.763579368591309,-6.616798877716065,-0.9925695061683656
27.708971023559574,-1.7657959461212158,22.367488861083984,-6.8423261642456055,-4.736987590789796,-0.003783479332923889
14.804297447204592,-2.846089601516724,15.708651542663576,-8.816797256469727,-3.179953098297119,0.7712613940238954
24.04362297058106,-13.117452621459961,10.631371498107912,-7.48837947845459,-1.671526074409485,-0.8562754392623901
35.25920486450196,-19.576456069946293,25.37608909606934,-3.860224008560181,1.5794541835784912,-2.46278715133667
11.323554992675781,-10.09563732147217,13.695187568664553,-1.7402237653732302,3.3443665504455566,-2.3878710269927983
5.9840593338012695,-2.47911810874939,7.570876598358155,-0.5810444951057435,3.6515195369720463,-2.42816162109375
1.7625962495803835,3.557700395584107,3.51369571685791,-0.4366218745708466,3.639857769012451,-2.438266515731812
1.4408071041107178,5.572351455688477,3.0209395885467534,-1.3064476251602175,3.4265904426574707,-2.3350167274475098
0.005865810438990593,3.61872410774231,2.522599220275879,-2.016657114028931,3.4437966346740723,-2.1581771373748784
0.03146396204829217,1.0060087442398074,3.117154121398926,-2.1808648109436035,3.6408777236938477,-1.9616907835006716
-0.5931436419487001,-0.4650742709636689,3.285567998886109,-1.867582082748413,3.8697721958160405,-1.7376244068145752
-1.4902573823928835,-0.2948365807533264,3.1593375205993652,-1.3833210468292236,4.048441410064698,-1.5695859193801882
-2.133683681488037,1.2427927255630495,2.6600723266601562,-1.0297586917877197,4.1681580543518075,-1.2972590923309326
-2.4351301193237305,2.2119357585906987,2.3414955139160156,-0.8612747192382812,4.2060394287109375,-0.986642897129059
-1.9235408306121826,2.658897161483765,2.5536975860595703,-0.9044781923294067,4.275894641876222,-0.5799843072891235
-1.2515045404434206,3.040829658508301,2.5946872234344487,-0.9920627474784852,4.430637359619141,-0.1806015968322754
-1.206660509109497,2.9511938095092773,2.038594007492066,-0.9593731164932251,4.592545986175538,0.11537386476993561
-0.979021966457367,3.200445890426636,1.1335721015930176,-0.8017352223396302,4.654072284698487,0.30762821435928345
-1.0093400478363037,4.153685569763184,0.22445878386497498,-0.6334386467933656,4.617583274841309,0.4067076742649079
-0.4142886102199555,4.926609992980957,0.26523375511169434,-0.5126262903213501,4.5374493598938,0.4311624467372895
1.1538984775543213,4.962299346923828,0.8627060055732728,-0.46959355473518377,4.548048973083496,0.37429353594779974
2.4152052402496342,4.917606830596925,0.8838052153587342,-0.428352415561676,4.628729820251465,0.24653540551662448
3.5036239624023438,5.29615068435669,0.4703313708305359,-0.4200945496559143,4.652306079864503,0.0967855453491211
5.13744878768921,5.310651302337647,-0.02005733549594879,-0.45976921916008,4.578795433044434,-0.061225973069667816
7.500669479370117,3.9023704528808594,0.03392430394887924,-0.43043434619903564,4.458986759185792,-0.24075743556022644
9.16143798828125,3.1839866638183594,-0.11941786855459215,-0.2749554812908173,4.277407169342042,-0.38582056760787964
10.638403892517092,3.3455705642700195,-0.1179698258638382,-0.1692876368761063,3.985274314880371,-0.4713300168514252
13.394469261169435,3.1566722393035893,0.632537841796875,-0.16113907098770142,3.6264274120330815,-0.4694242179393769
15.81124496459961,2.2063040733337402,1.2928980588912966,-0.09296838939189911,3.2569715976715092,-0.4518445134162903
17.171781539916996,1.755435347557068,1.8410748243331911,0.026422128081321716,2.893298625946045,-0.4407895505428315
17.620557785034183,1.135195851325989,1.7275352478027344,0.17140591144561768,2.571752309799195,-0.4312385320663452
17.803638458251953,0.953661859035492,0.9578958749771118,0.28227594494819647,2.2111921310424805,-0.34680724143981934
17.634986877441406,0.5336352586746216,-0.04447463899850845,0.33589911460876465,1.7314680814743044,-0.16490492224693298
16.087520599365234,0.8508343100547792,-0.9934360384941102,0.35529610514640814,1.1718951463699343,0.03604992479085922
13.91151237487793,1.7636265754699707,-1.344522833824158,0.244270920753479,0.5829337239265443,0.18475434184074402
11.884556770324709,1.8621110916137695,-2.237886428833008,0.08403003215789795,0.00152160890866071,0.26901969313621527
20.425558090209964,6.0836806297302255,-12.098847389221193,-0.18360009789466858,-1.2872279882431032,0.5398660898208618
43.604015350341804,0.6076802015304565,3.990626811981201,-0.7773870825767518,-3.5069653987884526,2.7126941680908203
59.11137390136719,20.367359161376953,51.09104919433594,-1.2604836225509646,-0.8245717287063599,1.1561149358749392
-14.361376762390138,-6.042145729064941,-0.8928054571151733,-1.1433733701705935,1.0889623165130615,0.27831125259399414
2.306126594543457,-14.170936584472656,9.693700790405273,-0.32623633742332464,-0.887330174446106,0.1466992646455765
-0.6828065514564515,-1.7600762844085693,10.13257694244385,0.43337914347648626,-0.6152326464653016,-0.27053749561309814
7.377355575561523,-0.8515372872352601,10.659581184387209,1.1652735471725466,-0.8523143529891968,-0.973951280117035
7.653997421264648,-7.48688554763794,6.967389583587647,0.8413447737693788,-0.13147154450416565,-1.0033032894134521
8.864770889282227,5.883443355560304,8.358146667480469,0.6229130625724794,0.06646566092967987,-0.8235964179039003
9.010073661804201,5.741056919097901,8.462238311767578,0.2852082550525666,0.450053483247757,-0.4294874668121338
6.089393138885499,2.717660427093506,10.009443283081055,-0.2269190698862076,0.6348117589950562,0.06655848771333696
4.125126361846925,-2.1430888175964355,10.072467803955078,-0.2917410135269165,0.49127170443534857,0.1807142347097397
4.026231288909913,-3.7111399173736577,9.721442222595217,-0.016571426764130596,0.19072946906089783,0.04594029858708382
4.561155796051026,-3.06538724899292,9.209113121032717,0.13449618220329285,0.0649934709072113,-0.17724730074405673
5.089654445648194,0.09783585369586945,9.505408287048342,0.20053666830062866,0.006408836226910354,-0.23223811388015747
5.353222846984863,1.7831032276153564,9.872792243957521,0.04256006330251694,-0.020471865311264995,-0.07944329828023912
4.977560043334961,0.005755826830863953,9.691864013671875,-0.07201148569583893,-0.06735473126173021,0.03899736702442169
4.781755924224854,-1.5314886569976807,9.404487609863281,-0.0688888430595398,-0.1196068525314331,0.01143352407962084
4.913835525512695,-1.1322181224822998,9.403252601623537,-0.01370249129831791,-0.1804015785455704,-0.06563730537891388
5.299844741821289,-0.3705129623413086,9.322659492492678,-0.017780359834432602,-0.21446518599987033,-0.08558698743581773
5.330961227416992,-0.248471200466156,9.334815025329592,-0.05604887753725052,-0.21911133825778964,-0.035431377589702606
5.082672119140625,-0.02012498676776886,9.543889045715334,-0.11251845955848694,-0.24330177903175354,0.02410121820867062
4.816012382507324,-0.28220540285110474,9.75502681732178,-0.17454297840595248,-0.33027899265289307,0.06790146976709367
4.812352657318116,-0.5658563971519471,9.534274101257326,-0.1964783221483231,-0.4487209916114807,0.06804564595222473
4.954025745391847,-0.47375547885894775,9.533671379089357,-0.19773215055465698,-0.5586101412773133,0.0738525241613388
5.119312763214112,-0.3771009743213654,9.432640075683594,-0.2512476444244385,-0.6361486911773682,0.0767379328608513
4.993938922882081,-0.561878263950348,9.40756130218506,-0.34247666597366333,-0.6779138445854188,0.06570304930210114
5.387390613555909,-1.0979959964752197,8.952138900756836,-0.31311497092247015,-0.7452137470245361,0.08480207622051239
5.428138256072999,-0.7198296189308168,9.057620048522951,-0.3468244373798371,-0.7667611837387085,0.09119277447462083
5.6751370429992685,-0.5865082740783691,8.990397453308107,-0.38064879179000854,-0.7938646078109741,0.11876731365919115
5.557905197143555,-0.8678281307220459,8.750385284423828,-0.38066112995147705,-0.782752811908722,0.14432469010353088
6.047655582427979,-0.5724248290061952,8.637561798095703,-0.379702091217041,-0.7502189278602601,0.17336674034595492
6.135962963104249,-1.1036593914031982,8.3353967666626,-0.3672637045383454,-0.6770682334899902,0.1762412637472153
6.168843746185304,-1.0478997230529785,8.180988311767578,-0.3649273812770844,-0.5808948874473573,0.17239201068878174
5.981287956237793,-1.3600356578826904,8.298384666442873,-0.34004896879196167,-0.4936499893665314,0.15529224276542664
5.93853759765625,-1.4739558696746826,8.334558486938477,-0.291805773973465,-0.41783350706100464,0.13041311502456665
5.603239059448242,-1.8245862722396853,8.19936752319336,-0.23918303847312927,-0.374544769525528,0.08736395835876465
5.956603527069093,-2.1865668296813965,8.29180908203125,-0.16549760103225708,-0.3366296887397766,0.03536516800522805
5.940112113952637,-1.949678659439087,8.14369869232178,-0.10193338245153429,-0.2925392985343933,-0.003613299457356334
5.827842712402344,-2.2257368564605717,8.157798767089844,-0.0566651038825512,-0.22862955927848816,-0.06515008211135864
5.99000120162964,-2.0286173820495605,8.014261245727539,-0.004145899787545204,-0.19023685157299045,-0.12668144702911377
6.183860301971436,-1.353595852851868,8.171207427978516,0.0387798734009266,-0.13610176742076877,-0.1620839238166809
6.137164115905762,-1.1033470630645752,8.413726806640625,0.051336359232664115,-0.08301705121994019,-0.16537971794605258
5.91691780090332,-1.1403032541275027,8.366384506225586,0.0679217129945755,-0.05774812027812005,-0.16330827772617343
5.566818714141847,-0.8822335600852967,8.573930740356445,0.07527399808168413,-0.07338778674602509,-0.15645627677440646
5.806871891021729,-0.49063587188720703,8.865604400634766,0.051032356917858124,-0.12992209196090698,-0.12043162435293199
5.474445819854737,-0.5639148950576782,8.74486827850342,-0.0011229935334995391,-0.19488778710365295,-0.09167201071977617
5.425868034362793,-0.6692667603492738,8.911380767822266,-0.04363054409623147,-0.29846251010894775,-0.07795970141887665
5.075788021087647,-0.9452465772628784,9.1454553604126,-0.05969731137156487,-0.42438727617263794,-0.08458770066499711
5.070374011993409,-1.2587099075317383,9.141218185424805,-0.07589425891637804,-0.5945236086845399,-0.10898253321647644
5.385680675506593,-1.168737292289734,8.864792823791506,-0.07461827993392944,-0.7596086859703065,-0.13893455266952515
5.666916847229004,-1.0960589647293093,9.123830795288086,-0.0682007744908333,-0.8855630159378052,-0.16179758310317993
5.429730415344238,-1.1712877750396729,9.033055305480959,-0.08557361364364624,-1.0177227258682253,-0.20045927166938782
5.84211015701294,-0.7212588787078857,9.067278861999513,-0.1354084312915802,-1.1879775524139404,-0.19871400296688083
6.191046714782715,-0.9189729094505311,9.679901123046875,-0.1661326736211777,-1.3391845226287842,-0.18517337739467624
5.606437683105469,-0.8920009136199951,9.061453819274904,-0.1159966364502907,-1.5138003826141357,-0.18480506539344788
5.880762577056886,-0.7020578384399414,9.289119720458984,-0.15150855481624606,-1.7585515975952148,-0.20294715464115146
5.748953819274902,-1.0916327238082888,8.993240356445312,-0.19621333479881287,-2.0081310272216797,-0.18596829473972323
5.789677619934082,-0.6108059287071229,8.77933120727539,-0.20964352786540988,-2.3261656761169434,-0.17800866067409518
6.336390495300293,-0.17691227793693542,8.517444610595703,-0.1610899567604065,-2.664286851882935,-0.16418443620204928
6.675907611846925,0.10119330883026123,9.101606369018555,-0.11982236057519914,-3.0152812004089355,-0.12722150981426242
7.2728028297424325,0.6100757122039795,9.509623527526857,-0.16292855143547058,-3.415259838104248,0.07015966624021532
9.110078811645508,-0.15760095417499545,10.545382499694826,-0.3208564221858979,-3.703425407409668,0.28501024842262274
11.278951644897461,-0.6832884550094604,12.162874221801758,-0.6355887651443481,-3.8014295101165776,0.5572417378425599
13.12330436706543,-1.5541691780090332,13.185032844543459,-1.0379444360733034,-3.550105571746826,0.6756369471549989
17.257484436035156,-4.401566028594972,13.044472694396974,-1.0495336055755615,-3.2676892280578613,0.4963411986827851
21.344495773315433,-4.811614036560059,12.946029663085938,-0.8709158301353456,-2.7916927337646484,0.1309527009725571
23.128274917602543,-4.440874099731445,7.779818534851074,-0.8256908059120179,-2.6946892738342285,-0.4212954640388489
26.227214813232422,-4.175806999206543,2.6632854938507085,-0.36799192428588867,-3.011469125747681,-1.2299199104309082
31.66415023803711,-3.020671129226685,6.337350845336914,-0.02162354066967964,-3.0893373489379883,-1.9293090105056765
33.86402130126953,-3.5204620361328125,8.632792472839357,0.37080132961273193,-3.0288527011871342,-2.5901145935058594
42.26005935668946,-3.4350821971893315,19.886615753173828,0.8262080550193788,-2.2331113815307617,-3.0174264907836914
26.950902938842777,-1.789398789405823,15.587337493896484,0.6065263748168945,-1.323676943778992,-3.1893491744995117
21.240915298461918,-1.1624792814254763,12.330106735229492,-0.023842016234993938,-1.5887805223464968,-3.3191542625427246
19.726205825805668,-3.328610897064209,12.318803787231445,-0.43883958458900457,-1.8882713317871094,-3.420789480209351
18.13018798828125,-5.551931858062745,13.551976203918459,-0.665007770061493,-1.9214820861816406,-3.316650867462158
16.517379760742188,-8.252044677734375,13.893125534057617,-0.4624736607074738,-1.6829354763031006,-3.1067106723785405
13.260808944702148,-9.799975395202638,13.71497917175293,0.24289654195308688,-1.308570742607117,-2.808682441711426
9.712667465209961,-8.061893463134766,13.572800636291506,0.9657524228096009,-0.8241623640060425,-2.448020696640015
5.295122146606445,-6.264671325683594,12.254777908325195,1.3362208604812624,-0.3812815546989441,-2.037299156188965
1.4171850681304932,-4.904899120330811,10.446835517883303,1.3621807098388672,-0.0374421812593937,-1.613461971282959
-2.111855983734131,-4.036028861999512,8.143832206726076,1.2053136825561523,0.18886405229568481,-1.212196469306946
-4.46833610534668,-4.02601194381714,6.531511306762695,1.0314987897872927,0.31984657049179077,-0.7959064841270448
-5.62091064453125,-3.94841742515564,5.941761493682862,0.8545483350753784,0.4870708882808686,-0.36176434159278875
-7.2076478004455575,-4.05454158782959,4.9227447509765625,0.7724958658218384,0.6543211340904237,0.014725269749760628
-8.285824775695803,-3.8003106117248535,4.417024612426758,0.7165809273719789,0.7378996014595033,0.37502986192703247
-8.337063789367678,-2.9211380481719975,4.455325126647949,0.5551396608352661,0.8326258063316346,0.7375626564025879
-8.24980354309082,-2.404370546340943,4.656989574432374,0.3292045593261719,1.021534323692322,1.0408693552017214
-7.86784553527832,-2.2476696968078613,4.876398563385011,0.1258230954408646,1.2919068336486816,1.28567111492157
-7.716196537017823,-1.972886562347412,4.853133201599121,0.013331437483429909,1.607273817062378,1.4720193147659304
-7.656248569488526,-1.3173972368240359,4.282454013824464,-0.04331812262535095,1.9454628229141238,1.5928311347961426
-7.478283405303956,-0.7086806297302246,3.5134093761444096,-0.0924251526594162,2.2351071834564213,1.66184937953949
-7.171527385711671,-0.27378082275390625,2.6244060993194585,-0.12131284177303314,2.5002911090850835,1.6934483051300049
-6.974656105041504,0.42062878608703613,1.751452922821045,-0.13103510439395907,2.708187341690064,1.6962525844573975
-6.057624816894531,1.2933093309402468,1.6268575191497803,-0.20354734361171725,2.8884243965148926,1.6943362951278689
-4.585884094238281,2.1373169422149663,1.9669083356857302,-0.3332574963569641,3.1030890941619877,1.663880228996277
-2.297704458236695,2.441955089569092,2.886626482009888,-0.4959145188331604,3.4203493595123295,1.6122632026672363
-0.04448103904724121,2.3789675235748295,2.9773874282836914,-0.5601029396057129,3.798278331756592,1.5284527540206911
0.5821542739868164,3.337802648544312,1.777672529220581,-0.5073071122169496,4.043512344360352,1.3810294866561892
2.155759334564209,5.084476470947266,1.0286033153533936,-0.579475998878479,4.100779056549073,1.1487001180648806
5.510498523712159,3.765589714050293,1.3213751316070557,-0.6530879139900209,4.09434700012207,0.772612750530243
7.9886474609375,1.4270291328430176,1.811119556427002,-0.39866435527801514,4.065008163452148,0.34287157654762274
9.819616317749023,1.121146082878113,2.0913531780242924,-0.014048999175429344,3.993942499160767,0.042800210416316986
12.673492431640625,1.817983627319336,2.2827706336975098,0.09460530430078508,3.8691515922546387,-0.034807540476322174
15.212061882019045,1.4889200925827029,1.561150074005127,0.02360094897449017,3.705394744873047,0.042687941342592246
16.74493408203125,-0.010895060375332832,0.012328281998634338,0.018942566588521007,3.423251867294312,0.1633671224117279
16.972957611083984,-0.8844262957572938,-1.7375553846359255,0.19203966856002808,2.949452638626099,0.33636152744293213
16.253658294677734,-0.24710038304328918,-2.652555465698242,0.35100072622299194,2.354584932327271,0.602047622203827
14.043920516967773,0.031982578337192535,-4.388786315917969,0.38779884576797485,1.735089421272278,0.8799312114715576
9.695219039916992,-0.4220555126667023,-6.898787021636964,0.29223519563674927,0.8533599376678467,1.207137703895569
42.83452224731446,10.69821548461914,-9.576622962951662,-1.2358251810073855,-0.9851489067077637,1.9568194150924685
87.37603759765625,27.22355461120606,37.625526428222656,-1.50130569934845,1.7546536922454834,2.2904391288757324
4.5657315254211435,0.37083154916763306,-3.8012614250183105,-1.3750349283218386,2.0713210105895996,0.6888739466667176
4.170660972595215,-8.643461227416992,13.459862709045412,-1.2934104204177859,2.7391359806060795,1.4299054145812988
-8.072620391845703,4.625458717346191,14.090304374694826,-0.33005556464195257,1.790705680847168,0.423037201166153
0.7941618561744691,-11.598318099975586,12.172033309936523,0.5091469883918763,1.2941534519195557,-0.3941792845726013
3.064494848251343,-13.370294570922852,10.079432487487795,0.5340558290481567,0.6053678393363954,-0.5481505393981934
1.6950272321701052,3.0777359008789062,11.958920478820803,0.6296827197074891,0.08442395180463792,-0.5529896020889282
5.375615119934082,0.3865678906440735,9.611551284790039,0.39224064350128174,-0.0014822949888184669,-0.6333632469177246
7.426858901977539,2.077927589416504,9.12509059906006,0.18779183924198153,0.04597638547420502,-0.3767397403717041
6.486096382141113,1.4624896049499512,8.941762924194336,0.05435002967715264,0.1317855417728424,-0.07296631485223772
6.5061540603637695,-1.031011462211609,8.296564102172852,-0.04207330197095871,0.3018714189529419,-0.008826422505080702
5.7290849685668945,-3.0973083972930913,8.150532722473146,0.1407042145729065,0.3902792036533356,-0.11606916785240173
5.1376967430114755,-1.3862153291702273,8.879806518554688,0.2550135552883149,0.4823920726776123,-0.27272045612335205
5.062763690948487,0.8546805977821351,9.842637062072756,0.19887565076351169,0.4907004237174988,-0.21250455081462863
4.235214710235597,1.2728363275527956,10.241061210632326,0.00674065062776208,0.39165464043617254,-0.016675937920808792
4.191950321197511,-0.27300435304641724,10.059853553771974,-0.10968592017889024,0.26045918464660645,0.10640197247266771
4.288185119628906,-0.6172618865966797,9.998454093933107,-0.11160828918218614,0.10919803380966187,0.11883945763111115
4.290140628814698,-0.8330833315849305,9.813165664672852,-0.10641124099493028,-0.013478247448801994,0.08637454360723497
4.532227516174316,-0.5908167958259584,9.699999809265138,-0.09347639232873918,-0.11130229383707048,0.06715308129787445
4.9306440353393555,-0.1597213298082352,9.649553298950195,-0.12979620695114136,-0.171515628695488,0.08713847398757935
5.004476547241211,-0.14585408568382263,9.518012046813967,-0.18616336584091187,-0.20800219476222995,0.13392855226993564
4.827392101287843,-0.07516048848628998,9.478975296020508,-0.24763768911361694,-0.25221112370491033,0.17772328853607178
4.8776211738586435,-0.5377480983734131,9.497168540954592,-0.2736530303955078,-0.30492961406707764,0.18420691788196566
4.805698394775391,-0.7442985773086548,9.465878486633303,-0.28796681761741644,-0.37812209129333496,0.16871790587902072
4.979067802429199,-0.9767140746116639,9.230221748352053,-0.28293821215629583,-0.40709418058395386,0.14472344517707825
5.198421478271484,-1.0607851743698122,9.083447456359865,-0.2705572843551636,-0.3939883410930634,0.125128835439682
5.192009449005128,-0.9147708415985107,9.196712493896484,-0.2750315368175507,-0.38727214932441717,0.12126873433589935
5.207481384277344,-1.159962058067322,9.104902267456055,-0.2735772132873535,-0.3805209696292878,0.11742459237575531
5.2568464279174805,-1.2433850765228271,8.969968795776367,-0.24118904769420627,-0.3526816964149475,0.10826294124126434
5.251207828521729,-1.0753655433654785,9.02669906616211,-0.22232100367546082,-0.3369192183017731,0.10069400072097778
5.225242614746094,-1.2664391994476318,8.9931640625,-0.20867708325386047,-0.32131844758987427,0.08723884075880052
5.322724342346191,-1.2804321050643923,8.946049690246584,-0.18540990352630615,-0.29378595948219305,0.08323971927165985
5.395995140075684,-1.275970458984375,8.878273010253906,-0.16774120926856995,-0.2622023522853852,0.07177635282278062
5.519111156463624,-1.2137113809585574,8.731879234313967,-0.15755289793014526,-0.2103529125452042,0.06200886517763138
5.424773693084718,-0.9775642156600952,8.806944847106935,-0.14680616557598117,-0.16149963438510898,0.0681537389755249
5.466796875,-1.0055453777313232,8.800546646118164,-0.14220868051052096,-0.12278494238853455,0.07156219333410264
5.326629161834718,-1.4572291374206543,8.698223114013672,-0.1111794486641884,-0.07326661050319672,0.05827600508928299
5.298714637756348,-1.5126894712448122,8.667778968811037,-0.06229021772742272,-0.028167955577373505,0.02297342009842396
5.411228179931641,-1.3251835107803347,8.687527656555178,-0.02147273160517216,0.016978600993752483,-3.5944278351962566e-05
5.258323192596436,-1.9122291803359988,8.576691627502443,0.018262773752212524,0.06514696031808855,-0.026223506778478622
5.148318290710449,-1.9324321746826172,8.585713386535646,0.07232073694467546,0.09767130017280579,-0.07076160609722137
5.138049125671387,-1.1740678548812868,8.855561256408693,0.0971062406897545,0.11117874085903168,-0.11183191090822221
4.931395053863526,-1.214794635772705,9.203684806823732,0.1015072762966156,0.11129681766033173,-0.13648642599582675
5.002490997314453,-1.0913128852844238,9.191534042358398,0.12275981158018114,0.07468017935752869,-0.15980868041515353
4.887413024902344,-0.9307341575622559,9.377697944641115,0.11298248171806335,0.028112137690186504,-0.17470671236515048
5.153152942657472,-0.9850476980209351,9.02056407928467,0.11952634155750275,-0.015249638818204405,-0.19951313734054565
5.000530719757081,-0.39563822746276855,9.296532630920412,0.0962483137845993,-0.044340454041957855,-0.19971843063831332
4.444770336151124,-0.6552518010139466,9.630205154418945,0.06522810459136963,-0.12871800363063815,-0.18133288621902466
4.662210464477539,-1.0578367710113525,9.42544460296631,0.06825301796197893,-0.25189048051834106,-0.18381008505821228
4.647446632385254,-1.0136678218841553,9.540295600891115,0.06867105513811113,-0.3820403814315796,-0.22053034603595736
4.837781429290772,-0.6925567984580995,9.76260757446289,0.039022594690322876,-0.5334736108779907,-0.23870535194873813
4.360689640045167,-0.9708012342453003,9.793420791625977,0.012974891811609268,-0.6893160939216615,-0.24257269501686096
3.870295524597168,-1.7871737480163574,9.708100318908693,0.01902480982244015,-0.9017524719238281,-0.31000590324401855
5.020294189453125,-0.9369211792945863,9.642641067504883,0.0666617974638939,-1.1598451137542725,-0.32498577237129217
4.96851396560669,0.053599029779434204,9.581878662109375,0.006289960350841285,-1.3537923097610476,-0.27991294860839844
4.289041996002198,-0.908395528793335,9.859329223632812,-0.04720994830131531,-1.592243313789368,-0.22058457136154175
4.229852199554444,-0.7492415308952333,9.626091957092287,0.0028964760713279247,-1.9202591180801394,-0.13635368645191195
4.703958034515382,-0.1075948402285576,9.763798713684084,-0.00466305809095502,-2.298142433166504,-0.10199718922376634
5.331272125244141,0.2050706595182419,9.737715721130373,-0.1507416516542435,-2.5882079601287846,-0.13462144136428833
5.948254108428956,-0.11468738317489624,10.164169311523438,-0.29406687617301946,-2.866363525390625,-0.13527663052082065
6.500693321228027,-0.6800633668899536,11.443052291870117,-0.31655111908912664,-3.047684669494629,-0.14249134063720703
3.377692222595215,-0.315345972776413,10.062685012817383,-0.2266281992197037,-3.4707608222961426,-0.07602738589048387
4.3593506813049325,-2.1420314311981206,9.875929832458498,0.16038557887077332,-4.208857536315918,-0.33813402056694036
5.8933730125427255,-2.2944495677948002,10.259847640991211,0.5222410559654237,-4.932097434997559,-0.4758708775043488
8.70779323577881,-2.1569900512695312,12.197711944580078,0.6401585340499878,-5.433698177337647,-0.5079548954963685
13.574318885803224,-3.027495861053467,14.925291061401367,0.4476116895675659,-5.588334560394288,-0.4303196668624878
17.154249191284183,-5.128278255462647,14.970950126647951,0.4138148725032807,-5.43574094772339,-0.5645983219146729
27.37143135070801,-3.1806871891021733,14.882051467895508,0.31599879264831543,-5.171869754791261,-0.7223836183547974
31.70398712158203,-4.3535828590393075,10.816612243652344,-0.006806356832385063,-4.729130268096925,-0.9932163357734681
30.954565048217777,-6.982286930084229,4.573539257049561,0.4084888398647309,-4.451605796813965,-1.2913523912429812
33.78786849975587,-9.044789314270021,6.162448406219483,1.3358347415924072,-4.2156877517700195,-1.2804332971572878
31.772998809814453,-3.343492031097412,4.283440113067628,1.725988268852234,-4.240146636962891,-1.0983585119247439
47.11412048339844,-1.155489444732666,20.458251953125,0.9307327270507812,-3.318145036697388,-0.8092278838157655
27.730726242065433,-0.21901437640190125,16.51358413696289,0.18806840479373935,-1.318742275238037,-0.4714993536472321
19.860565185546875,0.5289539694786073,11.775544166564943,-0.7854706048965454,-0.8390603065490723,-0.23253460228443149
14.10214614868164,-0.687810242176056,9.010639190673828,-1.4345784187316895,-0.8652492165565492,-0.29690611362457275
11.576287269592287,-2.931528806686402,8.456404685974123,-1.6994149684906006,-1.0218483209609988,-0.449618011713028
11.067310333251953,-5.317842483520508,9.996710777282717,-1.3430578708648682,-0.9889895319938661,-0.6809947490692139
10.058444023132326,-5.904945373535156,11.558929443359375,-0.5383450388908387,-0.5684716105461122,-0.8358774185180664
7.0022687911987305,-3.5410015583038335,12.080149650573732,0.22509637475013733,0.0325574241578579,-0.9418302774429321
2.9772610664367676,-1.1239129304885866,11.051483154296875,0.6068859100341797,0.6422963738441468,-1.0212301015853884
-1.3699022531509402,0.7942231297492982,8.983448028564453,0.5950744152069092,1.0936390161514284,-1.094407081604004
-5.411818027496339,1.2868772745132449,6.113885879516602,0.3552363216876984,1.2659970521926882,-1.2134807109832764
-7.19929313659668,0.3635238707065583,4.5605268478393555,0.1270733028650284,1.262401819229126,-1.2728878259658816
-7.468863964080811,-1.2680585384368896,4.562799453735352,0.04385996982455254,1.2661402225494385,-1.2310473918914795
-7.13458251953125,-2.9081196784973145,5.3912353515625,0.16875030100345614,1.386183500289917,-1.077909588813782
-7.255438804626465,-3.544356346130371,5.603908061981202,0.3626370429992676,1.6090257167816162,-0.8314754366874696
-8.439765930175781,-3.410925626754761,4.7159790992736825,0.48204314708709717,1.8213618993759157,-0.5447882413864136
-8.805167198181154,-2.9117014408111577,3.990626335144043,0.38032433390617376,1.905442237854004,-0.22068077325820923
-7.552749156951905,-2.8265485763549805,4.493752956390382,0.13156799972057345,1.9861104488372803,0.17324601113796237
-6.801335334777832,-3.117919206619263,4.351794719696046,-0.06163705885410309,2.236508846282959,0.5773137211799623
-7.271839618682862,-2.8686873912811284,3.3898167610168457,-0.13021643459796908,2.4927144050598145,0.9115397334098817
-6.838146209716797,-1.7099987268447878,2.6645307540893555,-0.23675911128520968,2.692647933959961,1.2049198150634766
-5.950541973114015,-0.6994133591651918,2.031502962112427,-0.40301281213760376,2.888346910476685,1.447889804840088
-4.941211700439453,-0.2390788197517395,1.6410564184188845,-0.5357542634010316,3.045596837997437,1.6319308280944824
-3.129117488861084,0.5714207887649536,1.969646692276001,-0.5991133451461792,3.208907842636109,1.7805230617523193
-1.4843389987945557,1.770053267478943,1.88322651386261,-0.6331160068511963,3.409178495407105,1.846203923225403
0.06915659457445146,3.590223789215088,1.5267184972763064,-0.6952790021896362,3.5583899021148686,1.7992994785308838
2.987240076065064,5.377250194549561,1.6844439506530762,-0.8946239948272705,3.696467399597168,1.64209258556366
6.29954481124878,4.769962787628175,1.6570287942886355,-1.0129572153091433,3.8738436698913574,1.330046057701111
8.004823684692383,3.838399171829224,0.5930137634277344,-0.8246196508407593,3.9857742786407475,0.8835005164146424
9.4003381729126,3.880629539489746,-0.7529758214950562,-0.5160437822341919,3.9070088863372807,0.418260395526886
11.3495569229126,4.669538497924805,-1.7252739667892458,-0.35572108626365667,3.6250116825103764,0.09642568230628967
13.89776134490967,4.049762248992921,-2.5376050472259526,-0.31898850202560425,3.235821962356568,-0.10918086767196655
16.281454086303714,1.877740263938904,-3.216111660003662,-0.15321391820907593,2.8087775707244877,-0.22653959691524508
17.494024276733402,0.4141186475753784,-4.224954605102539,0.14242684841156006,2.3301694393157963,-0.1908714771270752
16.994277954101562,-0.15924330055713656,-6.1129608154296875,0.38781449198722845,1.7259753942489626,0.04996972531080246
13.964508056640625,-0.11888056993484497,-8.572402000427248,0.47753426432609564,0.9271392822265625,0.4170797765254975
13.226587295532227,-0.8840395212173462,-7.2707886695861825,0.3712851703166962,0.05284019559621811,0.9251980781555176
19.350040435791016,5.3342180252075195,-5.782089710235597,0.05492596700787545,-0.42254185676574707,1.3888076543807986
93.26828002929688,15.737115859985352,34.75780487060547,-2.2190589904785156,-0.437224805355072,2.3212726116180424
10.332756042480469,18.259227752685547,-12.034754753112795,-0.20483526587486267,4.617950916290284,0.48939043283462524
14.249943733215334,-7.933678150177003,14.528758049011232,-1.8866244554519656,2.553201675415039,1.259246826171875
-5.418364524841309,-2.4521205425262456,16.596471786499027,-0.4272071123123169,3.4317786693573002,0.4872775077819824
-1.4747616052627566,-15.904260635375977,13.149703979492188,0.7234576344490052,2.3666565418243413,-0.5880086421966553
-2.4315905570983887,-12.42796039581299,12.367866516113281,1.1957839727401736,1.5353803634643555,-0.9525412917137147
0.450861394405365,4.828256607055664,15.648116111755373,1.109190344810486,0.3144204616546631,-0.8588594198226929
2.116044044494629,2.664287567138672,11.4090051651001,0.5173627138137817,-0.29680672287940985,-0.7996418476104736
7.611516475677491,3.2242286205291752,9.053825378417969,0.18696773052215576,-0.421167254447937,-0.42857554554939276
9.002289772033693,2.0627646446228027,7.315844058990479,0.0559094361960888,-0.24036172032356262,-0.07882270961999895
8.186113357543945,-1.604520916938782,6.959977149963379,0.02754866518080235,0.11688916385173798,-0.0031503019854426384
5.689194202423097,-2.728615522384644,8.30842399597168,0.16866326332092285,0.34313383698463445,-0.1136430948972702
4.69345760345459,-0.16274102032184604,9.722292900085451,0.18280510604381564,0.33870956301689154,-0.16237589716911316
4.847638607025147,1.2612160444259646,10.247329711914062,0.041323088109493256,0.2146151512861252,-0.03654588758945465
5.080015182495117,0.3553207516670227,9.899667739868164,-0.10173843801021576,0.10459280759096147,0.10518024116754533
5.2760210037231445,-0.33681249618530273,9.567292213439943,-0.1623372733592987,0.03956254944205285,0.16717323660850525
4.844997406005859,-0.8509771823883057,9.450210571289062,-0.17477433383464816,-0.014671237207949163,0.15005025267601013
4.782985210418702,-1.2514861822128298,9.294355392456055,-0.16618791222572327,-0.07121019810438158,0.10219977796077728
4.863225936889648,-0.9219743609428407,9.218775749206545,-0.15921401977539062,-0.112060584127903,0.04308630898594857
5.15196180343628,-0.45579731464385986,9.280763626098633,-0.16970674693584445,-0.12241697311401367,0.06408608704805376
5.374529838562012,-0.20543509721755981,9.263892173767092,-0.20147603750228882,-0.11900022625923157,0.11662656813859941
5.248465538024902,-0.31072086095809937,9.344791412353516,-0.22982208430767062,-0.13753247261047363,0.1595823019742966
5.035190582275391,-0.6630090475082397,9.340991020202638,-0.24401137232780457,-0.19018734991550448,0.16261456906795504
4.946102142333984,-1.2382215261459353,9.191205978393555,-0.23456618189811707,-0.23702631890773776,0.13760054111480713
5.005770683288574,-1.0838168859481814,9.176597595214844,-0.21493484079837802,-0.2557001411914826,0.13285976648330688
5.225809574127198,-0.857740044593811,9.237553596496584,-0.21925103664398193,-0.2753057181835175,0.12924087047576904
5.098467350006104,-0.9720121622085571,9.13664436340332,-0.2397874891757965,-0.2781511843204499,0.1250259727239609
5.153083324432374,-0.9145923852920532,9.099087715148928,-0.2535027265548706,-0.29364451766014105,0.13425973057746887
5.2404279708862305,-0.48336857557296753,9.229516983032227,-0.2628022134304047,-0.3195271790027619,0.15504330396652222
5.170524120330811,-1.188962697982788,8.929067611694336,-0.2739739120006562,-0.3195168972015381,0.13819782435894015
5.214246273040772,-1.1617133617401123,9.040447235107422,-0.2577584087848664,-0.3044259548187256,0.1297505497932434
5.2326931953430185,-1.2788426876068115,8.951529502868654,-0.2084488868713379,-0.2773906886577607,0.10423967242240906
5.300769805908203,-1.8104482889175417,8.513791084289553,-0.15577663481235507,-0.21251605451107028,0.05169559270143509
5.420267105102539,-1.8792172670364382,8.407868385314943,-0.06584328413009644,-0.15619640052318576,0.015345944091677666
5.569305419921875,-1.7040324211120605,8.35677242279053,-0.003272769507020712,-0.08158794790506364,-0.026522094383835796
5.574471950531007,-1.4611231088638308,8.331226348876953,0.019500769674777985,-0.0025504704099148516,-0.050952717661857605
5.363887786865234,-1.155649185180664,8.79317855834961,0.03479471802711487,0.04787556082010269,-0.06307593733072282
5.213954925537109,-1.1140644550323486,9.015400886535646,0.05941449478268624,0.060927726328372955,-0.0722930207848549
5.282363414764405,-1.6126114130020144,8.815096855163576,0.10623673349618913,0.06903380155563354,-0.10553234815597534
5.440371513366699,-1.4153752326965332,8.702216148376467,0.15585087239742282,0.075069859623909,-0.15849570930004123
5.295520782470703,-0.7632709741592407,8.908342361450195,0.15643435716629028,0.08532498776912689,-0.18827383220195773
5.225677967071534,-0.41283994913101196,9.131480216979982,0.13114631175994873,0.07112508267164232,-0.16462379693984985
4.911489963531495,-0.6924151182174683,9.20180892944336,0.1025376543402672,0.036371149122714996,-0.14369812607765198
4.506671428680421,-0.9754575490951538,9.540567398071289,0.09785176813602448,-0.05237927660346032,-0.16034269332885742
4.581621646881104,-1.5350191593170166,9.303328514099123,0.12153310328722002,-0.16975109279155734,-0.22673916816711426
4.991629123687745,-1.2225379943847656,9.173650741577148,0.14678159356117249,-0.27322170138359075,-0.2803742289543152
4.858192443847656,-0.9020829200744629,9.380952835083008,0.1374023407697678,-0.3643220067024231,-0.3068200945854187
4.8615312576293945,-0.566399097442627,9.777913093566896,0.12289585173130035,-0.5024186968803407,-0.27176040410995483
4.359321594238281,-0.797843337059021,10.014028549194336,0.10471345484256744,-0.7043740749359131,-0.2155156582593918
4.264774799346925,-0.8519703745841981,10.207388877868654,0.09101232141256334,-0.9711737632751465,-0.20698545873165133
3.9361400604248047,-0.6403847932815552,9.900598526000977,0.06761354207992554,-1.2888733148574831,-0.18167521059513095
4.880410671234132,0.06391607224941254,10.39495372772217,-0.049126505851745605,-1.6496020555496218,-0.1596967577934265
3.7612264156341557,-2.1843247413635254,10.683335304260256,-0.05738230049610138,-1.970778465270996,-0.18154655396938327
4.2563371658325195,-0.10520052909851074,10.399479866027834,0.09674891084432603,-2.4238429069519043,-0.2179914563894272
5.041669845581055,-0.596604883670807,10.417173385620117,0.022949762642383575,-2.7336728572845463,-0.2792292535305024
5.130532264709473,-0.3568894565105439,10.604530334472656,-0.02810473181307316,-3.0889272689819336,-0.2979199588298798
5.068302154541016,-0.23452401161193848,10.656315803527834,-0.1278763711452484,-3.3987345695495605,-0.33407232165336614
4.277427673339844,-0.39925551414489746,9.896515846252443,-0.07445847988128662,-3.9192507266998295,-0.3559238910675049
4.722015857696534,-1.3801754713058474,9.781900405883789,0.38461354374885565,-4.646276473999023,-0.5310286283493042
6.858576297760011,-1.605607032775879,11.388482093811037,0.7157008051872255,-5.399277687072754,-0.5701727271080018
11.409975051879883,-0.9689508080482484,13.428199768066406,0.6345595121383667,-5.7476654052734375,-0.438746064901352
17.867263793945312,-3.2250816822052006,15.70943355560303,0.23186299204826355,-5.644885540008546,-0.3312617540359497
22.362833023071293,-4.087378978729249,14.820858955383303,0.27346345782279974,-5.254356384277344,-0.5714346170425415
31.62075424194336,-4.632353305816651,13.316601753234865,0.4282419383525849,-4.726457595825195,-0.914710819721222
31.036136627197266,-6.404261589050293,4.443780422210694,0.9246710538864136,-4.594830513000488,-1.238896727561951
34.65485000610352,-5.626031875610352,4.904901504516602,1.637068510055542,-4.519378185272218,-1.2971060276031494
30.52526092529297,-2.5163900852203374,3.0850257873535156,2.1457605361938477,-4.198533535003663,-1.2609652280807497
42.24123764038087,2.6779506206512456,11.550424575805664,1.4314819574356081,-4.2236480712890625,-1.1052004098892214
30.744928359985355,2.9140381813049316,13.813247680664062,0.4402692019939423,-2.7850534915924077,-0.9224429130554199
22.861558914184574,2.8497040271759038,10.362276077270508,-0.8855095505714418,-2.400256633758545,-0.6454568505287172
19.823925018310547,0.6235066652297974,9.190084457397461,-1.703956127166748,-2.2828371524810795,-0.6356782317161561
15.39240837097168,-1.4950613975524902,8.15957546234131,-2.0798480510711674,-2.2110676765441895,-0.7033415436744691
13.119869232177734,-3.851557016372681,9.046581268310547,-2.0367493629455566,-2.1126604080200195,-0.8341718316078187
11.468733787536623,-6.28812074661255,10.087998390197756,-1.486279606819153,-1.8217194080352783,-0.9010949730873109
8.508089065551758,-6.601613998413086,11.15310287475586,-0.5544048547744751,-1.380853056907654,-0.9044114947319032
5.446973323822022,-4.266553401947022,11.734064102172852,0.1436539590358734,-0.8167603611946107,-0.8442459106445312
2.455431699752808,-2.348964214324951,11.392221450805664,0.4329339861869812,-0.1924126148223877,-0.6888614296913148
-1.0506590604782107,-1.5304228067398074,10.296358108520508,0.4658644199371338,0.36859789490699774,-0.520504355430603
-3.981822729110718,-1.0985894203186035,9.302474021911623,0.39962670207023626,0.8226293325424194,-0.3981306552886963
-5.153201103210449,-0.6975873708724976,8.722646713256836,0.27013838291168213,1.2158180475234988,-0.3446178436279297
-6.1294403076171875,-1.104957103729248,7.7818360328674325,0.15047767758369446,1.603424310684204,-0.27126279473304754
-7.013101577758789,-2.1040143966674805,6.732572555541992,0.16132250428199768,1.925843119621277,-0.1951548159122467
-7.744701385498047,-2.331283330917359,5.715353012084961,0.27680450677871704,2.1542499065399174,-0.1327420920133591
-8.268826484680178,-1.651219964027405,5.148774147033691,0.3141834437847138,2.3075008392333984,-0.07634585350751878
-8.363645553588867,-0.9650710225105287,4.86112928390503,0.16577218472957614,2.4643127918243413,0.011472519487142563
-7.772173881530762,-1.1392942667007449,4.64530086517334,-0.059101320803165436,2.7138655185699467,0.12942716479301453
-7.792651653289796,-1.745329022407532,3.5638568401336674,-0.1845655590295792,2.9948344230651855,0.252880334854126
-8.342846870422365,-1.9256681203842165,2.069127798080445,-0.1889311969280243,3.163331747055054,0.37500321865081787
-7.9199934005737305,-1.5162490606307986,1.2818403244018555,-0.21028178930282593,3.211991310119629,0.5088277459144593
-6.6423401832580575,-0.5947397947311401,1.1910048723220827,-0.32836848497390747,3.2563707828521733,0.6940430402755737
-5.090421676635742,-0.22621805965900424,1.3194929361343386,-0.5042979717254639,3.3549964427948002,0.8679100871086122
-2.8787863254547124,0.06085935980081558,1.8725924491882324,-0.6485535502433778,3.5411324501037598,1.0071555376052859
-1.0842248201370241,0.637629508972168,1.9087092876434326,-0.7451801300048828,3.8011107444763184,1.1189569234848025
0.2886376082897187,1.574916124343872,1.3973447084426882,-0.8041498064994813,3.9953808784484863,1.1768184900283816
2.181954622268677,2.8293292522430424,0.6350662708282471,-0.9477987289428711,4.080529689788819,1.17064106464386
4.725426197052003,2.526037454605103,0.289372593164444,-1.0013835430145264,4.0623841285705575,1.0505180358886719
7.870604515075684,2.214460134506226,0.5488343238830566,-0.8959605693817139,3.9904470443725586,0.8504487872123719
10.999327659606935,2.1877102851867676,0.3212381601333618,-0.7070062160491943,3.9101679325103764,0.6331827640533447
13.06294059753418,2.5074913501739506,-0.7327760457992554,-0.5310878157615663,3.730635643005371,0.4401776194572449
15.332498550415039,2.4093308448791504,-1.4303627014160156,-0.40866503119468695,3.420532703399658,0.32686868309974676
17.24374771118164,2.578688144683838,-2.0256049633026127,-0.3255748152732849,3.0230040550231934,0.3325474560260773
18.777879714965824,2.1337049007415776,-1.9603979587554932,-0.2472026199102402,2.565399646759033,0.31644961237907415
20.440294265747074,1.6426661014556885,-1.3613210916519167,-0.108391672372818,2.0892851352691655,0.3415104448795319
21.02021026611328,0.5752805471420288,-0.9084008336067201,0.09074808657169342,1.6541696786880495,0.4690185785293579
18.829591751098636,1.456608533859253,-2.1277594566345215,0.28383848071098333,1.2684351205825808,0.6280186176300049
13.356010437011719,1.916091322898865,-6.423134803771973,0.29425811767578125,0.6644753813743592,0.8361226320266724
19.294170379638672,10.34786128997803,-9.915806770324709,-0.22382773458957675,-0.48270183801651,1.0399956703186035
66.83312225341798,19.073125839233402,37.949066162109375,-2.401000261306763,-0.43436503410339355,1.6151045560836794
1.674851894378662,9.908103942871094,-6.271600246429444,-0.00042893321369774645,3.9800441265106206,-0.3331373929977417
14.615190505981445,-6.072840213775636,15.167863845825195,-1.3642545938491824,1.6782500743865967,0.9750989079475404
0.5114449858665467,3.6607537269592285,13.177713394165039,-0.4213476479053498,2.6241097450256348,0.5296804904937744
1.351320743560791,-10.050583839416506,12.958086967468263,0.377102255821228,2.2938911914825444,-0.4275553226470947
-0.8180808424949647,-11.746069908142092,13.666389465332031,0.5632922053337098,1.2996674776077273,-0.3065645098686218
0.2062332779169083,-1.5361032485961914,13.592679023742678,0.5683443546295166,0.32491824030876165,-0.47709304094314575
2.9100782871246342,-1.2268238067626953,11.150798797607422,0.45294082164764404,-0.23066075146198275,-0.6307428479194642
7.228777885437012,3.3887224197387695,9.243144035339357,0.3315498530864716,-0.3619498610496521,-0.4627316892147065
8.451901435852053,2.4151711463928223,7.442317485809327,0.06410714983940125,-0.1716924011707306,-0.20733197033405307
8.030894279479982,-0.056646957993507385,7.139894962310792,0.02020954340696335,0.17611373960971835,-0.06671416759490967
6.421877384185792,-0.9846163988113403,8.07377338409424,0.01909979619085789,0.45646995306015015,-0.03140268474817276
5.050565719604492,-0.86573326587677,8.997489929199219,-0.009001614525914192,0.5589967370033265,-0.037270791828632355
4.5281171798706055,-0.17135119438171387,9.727822303771974,-0.06231318414211273,0.4914283752441406,0.007647504564374686
4.4328274726867685,0.021320387721061707,9.94234371185303,-0.12577879428863525,0.34799990057945257,0.08704860508441925
4.776459693908691,-0.3234593868255615,9.769968032836914,-0.15415433049201965,0.2178783565759659,0.12550492584705356
4.821353912353516,-0.27956265211105347,9.79119873046875,-0.1540159285068512,0.10637324303388597,0.1446724236011505
4.690645694732667,-0.8545699119567871,9.544140815734865,-0.17679443955421448,0.010739779099822044,0.14723990857601169
4.651079177856445,-1.0093231201171875,9.481455802917482,-0.17543323338031772,-0.07174509763717651,0.12414725869894029
5.106707096099854,-0.5516986846923828,9.409165382385256,-0.19787776470184326,-0.12555871903896335,0.11989230662584306
5.217713356018066,-0.10049210488796234,9.363678932189943,-0.2397906929254532,-0.16518932580947876,0.15380071103572848
5.290818214416504,-0.35614848136901855,9.357845306396484,-0.28786483407020574,-0.2171694189310074,0.1949029564857483
5.143575668334961,-0.5977394580841064,9.307667732238771,-0.3062920272350312,-0.26244187355041504,0.22020001709461215
5.173474788665772,-0.8339676856994629,9.237269401550295,-0.3225299119949341,-0.294191986322403,0.23242889344692233
5.320175647735597,-0.9286983609199525,9.094019889831545,-0.3440403044223786,-0.30968552827835083,0.2459584325551987
5.368946075439453,-0.7430912852287294,9.103779792785646,-0.3787248730659485,-0.3082353472709656,0.266784280538559
5.437312602996827,-1.1317087411880495,8.932319641113281,-0.3990622460842133,-0.28691375255584717,0.2731143534183503
5.543120861053468,-1.1777504682540896,8.901818275451662,-0.3858062326908112,-0.24822133779525757,0.277252197265625
5.42463254928589,-1.2374436855316162,8.850341796875,-0.36652633547782904,-0.20592278242111206,0.263919085264206
5.428794860839844,-1.7025082111358643,8.786031723022461,-0.32588011026382446,-0.14041668176651,0.23389513790607455
5.475355625152589,-2.143560647964478,8.587020874023438,-0.2485347539186478,-0.06466998159885406,0.18569405376911166
5.538365364074707,-1.906694531440735,8.596273422241211,-0.166330486536026,0.017013868317008022,0.14314292371273044
5.428545951843262,-1.8822883367538454,8.568297386169435,-0.1074710339307785,0.094064898788929,0.11110839247703552
5.414481163024902,-2.043109893798828,8.594347953796388,-0.03345120325684548,0.16994176805019381,0.06186895817518234
5.709390163421632,-1.876681447029114,8.498555183410646,0.0321233980357647,0.24013873934745789,0.03168789669871331
5.649216651916504,-1.184422254562378,8.64933490753174,0.062230534851551056,0.32548692822456365,0.030989991500973705
5.315078258514405,-1.2974628210067751,8.565168380737305,0.07169827818870544,0.3979336321353913,0.03480794280767441
