AccX,AccY,AccZ,GyrX,GyrY,GyrZ
3.853019006783143e-05,-7.601334800710902e-06,8.555615204386413e-05,2.059709025559187e-08,-1.7277113784075482e-07,-1.3123100472967056e-07
4.332939147949219,-0.8373614549636841,9.61626720428467,0.0002468808670528233,-0.016746841371059418,-0.01341316942125559
4.365364074707031,-0.8101062774658203,9.616897583007812,-0.0001817176234908402,-0.01580939628183842,-0.012541508302092552
4.341121673583984,-0.800514817237854,9.612898826599123,0.00024329821462742984,-0.015000847168266775,-0.01049542520195246
4.298883914947511,-0.8250353932380677,9.583688735961914,-0.0005855191266164184,-0.013843619264662268,-0.009038208052515984
4.33480167388916,-0.8230581879615785,9.60418224334717,-0.0009705103584565223,-0.015162128023803236,-0.00991971604526043
4.291492938995362,-0.8439642786979676,9.649331092834474,-0.00249068858101964,-0.018545722588896755,-0.009544393047690392
4.316102981567383,-0.8392925262451172,9.62502956390381,-0.0021606541704386477,-0.02286042645573616,-0.011769255623221397
4.330671310424805,-0.8297521471977235,9.648253440856935,-0.003581258002668619,-0.023619154468178753,-0.013609705492854118
4.327118873596191,-0.8487693071365356,9.614195823669435,-0.004672015085816383,-0.024468813091516495,-0.013915582560002806
4.355552196502686,-0.806816816329956,9.61281490325928,-0.003974912688136101,-0.024118261411786083,-0.012984637171030045
4.364711284637452,-0.8582617044448853,9.60970973968506,-0.0029170257039368153,-0.02480830810964108,-0.011973815970122816
4.345973968505859,-0.8202389478683472,9.607858657836914,-0.0013139646034687757,-0.021337894722819332,-0.011594586074352264
4.348499298095703,-0.8380881547927856,9.596682548522951,-0.0013309514615684748,-0.019015859812498093,-0.012836988084018232
4.343654155731202,-0.8271739482879639,9.601190567016602,-0.0009425171301700176,-0.019134733825922012,-0.012473382987082006
4.328269004821777,-0.8382728099822998,9.600810050964357,-0.0004383706545922906,-0.019303958863019943,-0.013554802164435387
4.323534965515137,-0.8483974337577821,9.599978446960451,0.001750096562318504,-0.018584873527288437,-0.0151602765545249
4.354022979736328,-0.8500785827636719,9.60946559906006,0.0018720945809036493,-0.02097650244832039,-0.015208390541374685
4.34737253189087,-0.8256415128707886,9.615254402160646,0.004671813920140266,-0.017215328291058544,-0.017131198197603226
4.358392715454102,-0.8135265111923218,9.585894584655763,0.003207281464710832,-0.01901300624012947,-0.014939717948436737
4.342691898345948,-0.8277055025100708,9.606679916381836,0.0006281600217334927,-0.015622090548276901,-0.012568277306854727
4.359015464782715,-0.8106876611709595,9.594842910766602,0.0006927880458533764,-0.017058953642845154,-0.011141913942992689
4.35430669784546,-0.8153613209724427,9.60867214202881,-0.0002966345055028796,-0.01265112776309252,-0.012633226811885834
4.343687534332276,-0.8318730592727661,9.612585067749023,0.00045077074901200836,-0.01333995908498764,-0.011095840483903885
4.347661018371582,-0.8312670588493348,9.619513511657717,0.0017408706480637195,-0.013379672542214394,-0.012394507415592672
4.352185726165772,-0.8420991301536561,9.606482505798342,0.000819235690869391,-0.013845676556229591,-0.0130755165591836
4.327007293701172,-0.8255726099014282,9.612558364868164,0.00194873521104455,-0.014587500132620336,-0.012714080512523651
4.328730106353761,-0.8558666110038758,9.626724243164062,0.002723934361711145,-0.01522301696240902,-0.013432500883936882
4.355467796325684,-0.8308972716331483,9.61700439453125,0.0021693850867450237,-0.01775130815804005,-0.015751782804727554
4.374253749847413,-0.7933374643325806,9.610204696655273,0.0008387748384848237,-0.018295761197805405,-0.013701676391065122
4.386867046356202,-0.789628565311432,9.631062507629396,-0.002182681811973453,-0.01359444297850132,-0.012051300145685674
4.376312732696534,-0.8053877949714662,9.625773429870607,0.0011395099572837353,-0.013378526084125044,-0.010359776206314565
4.335767269134522,-0.8320728540420532,9.604685783386232,-0.001046175020746887,-0.009736686944961548,-0.0066932723857462415
4.338561058044434,-0.8321632742881776,9.613041877746584,0.001947523909620941,-0.013019776903092863,-0.009696239605545998
4.353888988494874,-0.8658686876296997,9.588393211364748,0.0003620261850301177,-0.010834364220499992,-0.00971843767911196
4.341521739959718,-0.8432896137237549,9.578521728515625,0.0024823958519846205,-0.012190591543912888,-0.01267210952937603
4.363924980163574,-0.8138738274574281,9.594550132751467,0.002814026782289148,-0.011276926845312119,-0.012149025686085226
4.350273609161378,-0.8390600085258485,9.597698211669922,0.001276242546737194,-0.00924738496541977,-0.011442554183304312
4.35599422454834,-0.8124006986618042,9.583051681518555,0.003440875327214599,-0.009956670925021172,-0.012795520015060903
4.352010726928711,-0.8233029842376709,9.60329341888428,0.003457251936197281,-0.007919556461274626,-0.01180755626410246
4.3373990058898935,-0.827668607234955,9.592658042907717,0.003865403356030584,-0.009421486407518387,-0.01196794491261244
4.324120044708253,-0.8124066591262817,9.63404655456543,0.0006564570358023047,-0.01106562651693821,-0.011058055795729162
4.313718795776367,-0.8407140970230103,9.589331626892092,0.0021114756818860774,-0.011258520185947418,-0.01144974958151579
4.356295585632324,-0.8033338785171509,9.619839668273928,0.0018484020838513973,-0.01477484218776226,-0.013073716312646866
4.341046810150147,-0.8241130709648133,9.587271690368654,4.5807577407686047e-05,-0.013661352917551994,-0.01001087296754122
4.35716438293457,-0.8517762422561646,9.60158443450928,-0.0010482138022780418,-0.011661883443593979,-0.009556676261126997
4.324814319610597,-0.8278964757919312,9.61617946624756,0.0003690316225402057,-0.014919481240212919,-0.011494606733322144
4.331002235412598,-0.8380752801895142,9.595890045166016,0.002058030338957906,-0.01395738311111927,-0.012092268094420433
4.366913795471191,-0.8346309065818788,9.581400871276857,0.002535094041377306,-0.014109135605394842,-0.011712517589330673
4.342698574066163,-0.8442010879516602,9.612754821777344,0.0018125597853213549,-0.015126951038837433,-0.01212581153959036
4.356912612915039,-0.8329994678497314,9.604926109313967,0.000538536929525435,-0.013681429438292982,-0.013828249648213387
4.367047786712647,-0.8287301063537598,9.601019859313967,0.0018890777137130499,-0.014206058345735075,-0.012977330945432188
4.366447925567628,-0.8349882364273071,9.593992233276367,0.002564139198511839,-0.014149862341582777,-0.014232171699404716
4.3719072341918945,-0.8056336045265199,9.61166000366211,0.00270560709759593,-0.01322043314576149,-0.013566578738391401
4.36696720123291,-0.7967241406440736,9.628619194030763,0.0009028020431287588,-0.01249709166586399,-0.013611418195068838
4.379940986633301,-0.8070406913757324,9.586388587951662,0.0010937713086605072,-0.009545593522489073,-0.009982033632695677
4.354637622833253,-0.8212639689445497,9.611491203308107,-0.00034374743700027466,-0.009371568448841574,-0.009992120787501335
4.361400604248047,-0.8141378164291382,9.590093612670898,0.00047382869524881244,-0.010922892019152641,-0.010165142826735975
4.346837997436523,-0.8334959149360658,9.579569816589357,-0.0005764891975559295,-0.011530689895153046,-0.008436779491603376
4.3537187576293945,-0.8415409326553345,9.576035499572756,0.0004878429463133216,-0.012554134242236616,-0.008586506359279157
4.3584942817688,-0.8449810743331909,9.604345321655273,0.002277072984725237,-0.012355281971395017,-0.011385651305317879
4.356461048126222,-0.8528776168823242,9.597989082336428,0.00395139679312706,-0.011870069429278374,-0.011412181891500952
4.384573459625245,-0.8160033822059632,9.626949310302734,0.00350576126947999,-0.009814585559070112,-0.01230778731405735
4.369905948638917,-0.8190142512321473,9.5973596572876,0.003093505976721645,-0.010034624487161636,-0.0127633698284626
4.356447219848633,-0.8134701848030091,9.593382835388185,0.002389637753367424,-0.008695681579411032,-0.011178508400917053
4.330554962158203,-0.8449195623397827,9.644088745117188,0.004443895537406207,-0.00964342709630728,-0.01124836876988411
4.3528456687927255,-0.8336132764816284,9.60817050933838,0.0048564919270575055,-0.00934547558426857,-0.012716102413833143
4.3571014404296875,-0.7988061904907227,9.63751220703125,0.005250217858701945,-0.009382672607898712,-0.01283380389213562
4.33987855911255,-0.8211885690689087,9.605916023254396,0.0027036485262215137,-0.008638883940875532,-0.010698093101382256
4.359504222869874,-0.8270975947380067,9.585278511047365,0.0041267485357821,-0.009156829677522184,-0.011382017284631729
4.344933986663819,-0.7928661108016968,9.580492973327638,0.0020309649407863617,-0.008646552450954916,-0.010555580258369446
4.3753204345703125,-0.8239139318466187,9.60177230834961,-8.58380226418376e-05,-0.007551844697445632,-0.009531610645353796
4.370752811431886,-0.8068346977233887,9.598596572875977,-0.00032383747748099273,-0.0069624148309230804,-0.006886867340654136
4.3570556640625,-0.8056886196136475,9.604898452758789,0.00014912062033545229,-0.0051291254349052915,-0.008457187563180923
4.359617233276367,-0.8416914343833924,9.574115753173828,1.784859341569245e-05,-0.0035000813659280543,-0.007604734972119331
4.333923816680909,-0.8495280742645264,9.586807250976562,0.001048976555466652,-0.001392248901538551,-0.006833030376583339
4.33222532272339,-0.8624064922332764,9.582949638366701,0.0025167067069560294,-0.0018630670383572578,-0.00968534965068102
4.3569231033325195,-0.8221611976623535,9.609427452087404,0.004516873043030501,-0.0033109721262007956,-0.011344265192747116
4.357908248901367,-0.8488146066665649,9.62623405456543,0.003636691253632307,-0.002683769213035703,-0.010322755202651024
4.364490032196046,-0.8216753005981445,9.603252410888672,0.004314431920647621,-0.002481369068846107,-0.01079042721539736
4.391116142272949,-0.810097336769104,9.61160182952881,0.0033936558756977324,9.795796358957887e-06,-0.009432115592062475
4.366937160491944,-0.8325831294059755,9.623714447021484,0.004274426959455013,0.0007268966874107718,-0.008035927079617979
4.359951972961426,-0.8518198728561401,9.617512702941896,0.005103252828121185,0.002450954401865602,-0.00998714566230774
4.361265182495117,-0.822437047958374,9.63111686706543,0.0061131250113248825,0.007134226616472007,-0.008264795877039434
4.374728202819824,-0.8250267505645752,9.616975784301758,0.008287385106086731,0.010325101204216482,-0.008016221225261688
4.382401943206788,-0.8122599124908447,9.630102157592773,0.010620983317494392,0.01453380100429058,-0.00807303097099066
4.350695133209229,-0.8498976826667787,9.584490776062013,0.013491308316588402,0.019499825313687328,-0.008438067510724068
4.250196933746339,-0.8983794450759888,9.62531852722168,0.015357386320829391,0.020207421854138378,-0.01041171792894602
4.345990657806397,-0.7992074489593506,9.644490242004396,0.016560252755880356,0.014305065385997297,-0.011861983686685562
4.333744525909425,-0.7927339673042298,9.652973175048828,0.012504559941589834,0.01419989299029112,-0.010346019640564919
4.353945732116699,-0.7825064063072206,9.64427375793457,0.010093489661812782,0.012313644401729109,-0.007899424061179161
4.3371381759643555,-0.7952806353569032,9.644128799438477,0.009671034291386604,0.013663872145116331,-0.004332066047936679
4.3815979957580575,-0.8006693124771118,9.627474784851076,0.00846689846366644,0.01648617908358574,-0.003449261421337724
4.367393016815186,-0.7581050395965576,9.613501548767092,0.006264540366828442,0.02074316143989563,-0.0019516031024977567
4.296672344207765,-0.8634357452392578,9.605249404907227,0.008500590920448303,0.0244488287717104,0.000887236325070262
4.329677104949952,-0.8704738020896913,9.636281013488771,0.013216078281402588,0.023808451369404796,-0.002629489870741964
4.321250438690186,-0.8270312547683716,9.603118896484375,0.016120903193950653,0.02666338719427586,-0.003300548531115055
4.267518997192383,-0.8421530723571777,9.633795738220217,0.01807316951453686,0.025741064921021465,-0.003701420035213232
4.310953140258789,-0.8218982219696045,9.620248794555664,0.01942861266434193,0.02455028146505356,-0.007399966474622489
4.282100677490234,-0.7994344830513002,9.614191055297852,0.018871434032917023,0.023728167638182644,-0.0047385026700794705
4.245988368988038,-0.7989506721496582,9.646329879760742,0.015660949051380157,0.019440518692135814,-0.005528944544494152
4.276785373687745,-0.7574728131294252,9.648259162902834,0.011982578784227371,0.015368213877081871,-0.007284275721758605
4.272238731384277,-0.776682198047638,9.63151264190674,0.005250271875411273,0.011895585805177689,-0.0011515071382746103
4.299761772155762,-0.7527623176574707,9.640140533447266,0.0007077950285747647,0.009517886675894262,-0.0005206369678489865
4.33933973312378,-0.7430463433265687,9.627206802368164,-0.0008145973552018404,0.009114836342632772,0.0017308196984231472
4.2989563941955575,-0.8190847635269165,9.609012603759766,-0.0004982957616448402,0.012377656996250153,0.0023818986956030135
4.290870189666749,-0.8116065263748169,9.635589599609375,9.690441220300273e-05,0.011560069397091866,0.004040733445435763
4.263669013977051,-0.8531770706176758,9.656407356262209,4.3032683606725186e-05,0.009523234330117704,0.0018282938981428745
4.227328300476074,-0.8189176917076112,9.655459403991701,0.003241309663280845,0.0071571264415979385,-0.0022652137558907275
4.248740196228027,-0.8588937520980835,9.654874801635742,0.002451570006087423,0.001732862903736532,-0.004812282510101795
4.251951217651367,-0.7687310576438905,9.604092597961428,0.0037516732700169086,-0.0019557059276849036,-0.0053115226328372955
4.248570442199707,-0.7517722845077515,9.636860847473146,-0.0005824898253194989,-0.005918456241488457,-0.0047632064670324326
4.227129459381104,-0.8173273801803589,9.6513147354126,-0.004259885754436255,-0.011381469666957855,-0.007029443513602019
4.227567672729492,-0.7944494485855103,9.649163246154787,-0.007672498468309642,-0.01540107559412718,-0.007996620610356331
4.302879810333253,-0.7994691729545594,9.630990982055664,-0.008280060254037382,-0.016000039875507355,-0.006738824304193259
4.247825622558594,-0.7810910940170288,9.60915756225586,-0.00963022466748953,-0.01518343761563301,-0.005499863997101784
4.276147842407227,-0.831788182258606,9.644022941589357,-0.010498644784092903,-0.016793871298432354,-0.00564336683601141
4.2369046211242685,-0.8288496732711792,9.622970581054688,-0.007251634728163482,-0.018363045528531078,-0.008005496114492416
4.24115800857544,-0.8897654414176942,9.678929328918459,-0.007655334658920765,-0.023374525830149654,-0.012864997610449791
4.298913478851319,-0.8361377716064453,9.641632080078125,-0.00529064703732729,-0.02584086172282696,-0.015152518637478353
4.314431190490723,-0.8743796944618226,9.59817886352539,-0.0029140620026737456,-0.02263795956969261,-0.016153944656252864
4.282322883605957,-0.8278794288635254,9.633792877197266,0.0002874407800845802,-0.019880570471286774,-0.017464535310864452
4.34200382232666,-0.8384392857551576,9.62289810180664,0.0019604179542511706,-0.01723245531320572,-0.017110640183091167
4.257028102874757,-0.8052302598953247,9.644829750061037,0.005118746310472488,-0.014710863120853903,-0.01818555407226086
4.297234058380128,-0.7792994976043701,9.665132522583008,0.003796330187469721,-0.016430342569947246,-0.018299903720617294
4.325725555419922,-0.762035608291626,9.633730888366701,-0.0011426367564126851,-0.014947970397770407,-0.014993719756603241
4.317285537719727,-0.8054957985877992,9.62025260925293,0.0019314320525154474,-0.012520849704742432,-0.015931332483887676
4.288066864013672,-0.7508585453033447,9.635564804077148,0.0028319105040282015,-0.009442342445254326,-0.01586192101240158
4.283733844757081,-0.789131760597229,9.63446044921875,-0.001836036681197584,-0.005451333709061146,-0.012082395143806936
4.238127231597901,-0.842047154903412,9.638103485107422,-0.004314684309065342,-0.008383391425013542,-0.011919007636606695
4.2849578857421875,-0.7784060835838319,9.642970085144045,-0.006935521960258484,-0.01252609957009554,-0.01234545186161995
4.3044633865356445,-0.7392084002494813,9.642771720886232,-0.010871167294681074,-0.014159154146909714,-0.010266179218888283
4.380705356597901,-0.672629714012146,9.618195533752443,-0.013638129457831383,-0.002230178797617555,-0.004035181365907192
4.402273654937745,-0.6567248106002808,9.614705085754396,-0.021117387339472774,0.010319762863218786,0.004323934204876423
4.355640888214112,-0.8076701760292054,9.59660053253174,-0.02354690060019493,0.02421245910227299,0.01338428258895874
4.257078647613526,-0.899287223815918,9.615406036376953,-0.017824811860919002,0.029234953224658966,0.010810872539877892
4.297085762023926,-0.8280963301658631,9.65039920806885,-0.016821308061480526,0.027977362275123596,0.009807401336729528
4.286969184875488,-0.8862404227256776,9.656572341918945,-0.017697203904390335,0.02959318459033966,0.011789713986217977
4.267468929290772,-0.8914307355880737,9.62020778656006,-0.016708007082343105,0.03196784108877182,0.009846285916864874
4.258042335510254,-0.8715014457702637,9.669181823730469,-0.00964122824370861,0.03284207358956338,0.00818468350917101
4.228638172149659,-0.8852568864822388,9.689351081848146,-0.008835067041218283,0.030937999486923218,0.009371195919811727
4.2269558906555185,-0.9523913860321045,9.709517478942873,-0.008408899419009687,0.028523063287138942,0.005150143057107925
4.259486198425293,-0.890591025352478,9.681346893310547,-0.004404976498335601,0.023516163229942322,0.00227323709987104
4.254572391510011,-0.7800099849700928,9.7258996963501,-0.006259275134652854,0.013913501054048538,0.00321353692561388
4.244295120239258,-0.8053529262542725,9.772229194641115,-0.015227482654154302,0.003473246470093727,0.006701617967337371
4.244013786315918,-0.8927661776542665,9.711018562316896,-0.0179237499833107,-0.003760779742151499,0.00899090524762869
4.199217319488526,-1.0000888109207156,9.66478157043457,-0.014009031467139723,-0.011415643617510796,0.0014794933376833799
4.247181415557862,-1.017970085144043,9.639556884765625,-0.0021378870587795977,-0.012807551771402359,-0.006729802116751671
4.262144088745117,-0.9474389553070068,9.632213592529297,0.0070548304356634626,-0.008958466351032257,-0.017045667394995693
4.233808040618897,-0.9037618041038514,9.63227939605713,0.014857399277389051,-0.008547560311853887,-0.021529335528612137
4.270566940307617,-0.8318654298782349,9.681309700012209,0.020276887342333797,-0.005552522838115692,-0.026344487443566326
4.218578338623047,-0.7594904899597168,9.711388587951662,0.016428114846348766,-0.009120602160692215,-0.024001162499189377
4.23464298248291,-0.7310401201248169,9.766138076782227,0.0026371025014668707,-0.019400477409362793,-0.019347677007317546
4.239853858947754,-0.7914474010467529,9.72585678100586,-0.0067327991127967834,-0.028047330677509308,-0.016915192827582363
4.242848873138429,-0.8064316511154175,9.672771453857422,-0.009230765514075758,-0.031078506261110306,-0.01380113046616316
4.244884967803956,-0.7554805278778076,9.686193466186523,-0.01510549709200859,-0.03185636922717095,-0.012266042642295362
4.277154445648194,-0.7900258898735047,9.683893203735352,-0.020066240802407268,-0.03710620105266571,-0.01065648626536131
4.2647109031677255,-0.8686215281486512,9.634405136108398,-0.02112661674618721,-0.0378812700510025,-0.006791931111365558
4.289729595184327,-0.876953125,9.613892555236818,-0.0167386457324028,-0.03523244336247445,-0.009991150349378586
4.254336357116699,-0.954516351222992,9.641905784606935,-0.012887660413980484,-0.0333160050213337,-0.01045105326920748
4.278254032135011,-0.9496947526931763,9.598062515258789,-0.006153820548206569,-0.03253250569105148,-0.017551867291331295
4.307106018066406,-0.8269196152687074,9.625381469726562,-0.0006225427496246995,-0.02761694230139256,-0.021433565765619278
4.36796760559082,-0.7573682665824891,9.614871978759766,-0.00013486963871400806,-0.01946956291794777,-0.017938526347279552
4.243223667144776,-0.7426639795303345,9.63748550415039,-0.0033835293725132942,-0.010528662241995336,-0.008746293373405935
4.214310646057129,-0.7516493797302246,9.704644203186037,-0.013373322784900665,-0.021591598168015484,-0.0013916792813688517
4.187285423278809,-0.9690341353416444,9.675353050231935,-0.016396231949329376,-0.03516942262649536,-0.003927888814359904
4.225002288818359,-0.8986200094223022,9.66073226928711,-0.0165085531771183,-0.04308107867836953,-0.010242538526654243
4.253343105316163,-0.8018121123313905,9.659687995910646,-0.020991142839193344,-0.05145975574851037,-0.009616897441446783
4.272528648376465,-0.8532992005348207,9.666069030761719,-0.02440266497433186,-0.05391775071620941,-0.008906300179660322
4.198306560516358,-0.848136305809021,9.702485084533693,-0.025739291682839397,-0.06180946901440621,-0.009918306022882462
4.267336368560792,-0.8911310434341431,9.651509284973146,-0.029735218733549118,-0.07326404005289079,-0.011828208342194557
4.310199737548828,-0.9041143059730531,9.592611312866211,-0.030005482956767086,-0.07412177324295044,-0.014408852905035019
4.304563522338867,-0.8390666246414185,9.605157852172852,-0.0251581072807312,-0.07246176153421403,-0.016433879733085632
4.33226203918457,-0.8818445205688477,9.568163871765138,-0.024276344105601314,-0.06542979925870897,-0.011909276247024536
4.227088928222656,-1.0570765733718874,9.620994567871094,-0.018463375046849254,-0.061495326459407806,-0.01778732426464558
4.171507358551026,-0.9407159686088563,9.637230873107912,-0.010827435180544853,-0.07583140581846239,-0.0316036306321621
4.279443264007569,-0.7732418775558472,9.64503288269043,-0.01257795933634043,-0.08863374590873718,-0.03654951229691506
4.3331875801086435,-0.7477144598960878,9.58575439453125,-0.02293338254094124,-0.09531046450138092,-0.030300924554467205
4.360762119293214,-0.7710437774658203,9.565971374511719,-0.029349287971854213,-0.09061242640018463,-0.02603060565888882
4.4457745552063,-0.7648543119430542,9.58780288696289,-0.03336379677057266,-0.0818874165415764,-0.015903702005743984
4.37756109237671,-0.8238611817359925,9.519630432128906,-0.037002772092819214,-0.07205291837453844,-0.011283205822110176
4.205511093139648,-0.8889867067337036,9.51827621459961,-0.038086794316768646,-0.07107344269752502,-0.01272582355886698
4.232247352600098,-0.7866120338439941,9.651015281677248,-0.04626585915684701,-0.0894189178943634,-0.01765394397079945
4.149493217468262,-0.6607537269592285,9.68949604034424,-0.06174366921186447,-0.11632744222879411,-0.008654261939227583
3.8421225547790527,-1.0596207380294802,9.665960311889648,-0.06563401967287065,-0.15736865997314453,-0.02654683776199818
4.161190986633301,-0.9584484100341797,9.805953025817873,-0.047681547701358795,-0.21402516961097717,-0.05342861637473107
4.210266590118409,-0.6346221566200257,9.86612319946289,-0.061313509941101074,-0.260028749704361,-0.05178074538707733
4.341412067413331,-0.3939852714538574,9.72051525115967,-0.08679664880037309,-0.3081427216529846,-0.04713747650384903
4.263125419616699,-0.5701267123222352,9.622822761535646,-0.10719709843397142,-0.34061819314956665,-0.04344377294182778
4.282365798950195,-1.2118412256240847,9.627184867858888,-0.08650495111942291,-0.37281614542007446,-0.06719573587179185
4.103214263916016,-1.225846529006958,9.646928787231445,-0.05650146305561066,-0.42107579112052923,-0.09885966777801514
4.1088929176330575,-0.8460237383842469,9.791075706481935,-0.06923022866249084,-0.49378439784049993,-0.11342430859804155
4.132258892059327,-0.6177874207496644,9.909237861633303,-0.08262821286916734,-0.5896346569061279,-0.09330383688211442
3.7005295753479004,-0.7540197968482972,10.059030532836914,-0.09964345395565033,-0.7363245487213135,-0.07920972257852556
3.4821312427520756,-0.9960348010063172,10.0197229385376,-0.08654101192951202,-0.9326032996177674,-0.0811731219291687
3.5052695274353027,-1.3910388946533203,10.087480545043945,-0.04654637351632119,-1.1575908660888672,-0.09913620352745056
3.5141489505767827,-1.8244103193283083,9.92627811431885,0.03686237335205078,-1.3867307901382449,-0.16066911816596985
4.125199317932129,-1.3534493446350098,9.95290279388428,0.0921480655670166,-1.596769094467163,-0.21630857884883883
4.1784682273864755,-1.2258877754211426,10.027285575866701,0.11378592997789384,-1.7774672508239746,-0.24525345861911776
4.468766689300538,-0.7499264478683472,10.101138114929201,0.1143011599779129,-1.9619816541671755,-0.2722539603710175
4.824293613433839,-0.40260249376296997,10.196251869201662,0.07385796308517456,-2.145922422409058,-0.2801850438117981
4.656766891479492,-0.05793455243110657,10.268660545349123,0.008439668454229833,-2.336624383926392,-0.2643197178840637
4.5880126953125,-0.4150710701942444,10.125611305236818,-0.04789756238460541,-2.582675695419312,-0.2564353942871094
4.805222511291504,-0.7634714841842651,9.996894836425781,-0.06615453213453294,-2.8342480659484863,-0.274591326713562
4.228187561035156,-1.3141753673553467,9.152987480163576,0.07386022806167603,-3.184141874313355,-0.3758837580680847
4.869725227355957,-1.8517835140228271,9.069555282592773,0.34499895572662354,-3.6272521018981934,-0.4996767938137055
5.93593692779541,-1.5375124216079714,9.661377906799318,0.5474910140037538,-4.043696403503418,-0.5336175560951234
7.306405067443848,-1.6631976366043093,10.7689208984375,0.6314512491226196,-4.40281629562378,-0.530223309993744
9.220645904541016,-2.0910634994506836,11.915899276733398,0.6269899606704712,-4.61006784439087,-0.48625051975250244
12.338009834289553,-2.5413975715637207,13.26331901550293,0.5871258974075317,-4.605733871459961,-0.420562356710434
14.14458751678467,-3.8228321075439453,13.47155284881592,0.8387007117271424,-4.47160530090332,-0.5072088837623597
18.880434036254886,-2.4125363826751713,14.90243434906006,1.0278799533843994,-4.299829959869386,-0.5552895665168763
24.481267929077152,-1.5036671161651611,13.414058685302734,0.9246566891670228,-3.945629119873047,-0.558369815349579
27.19196319580078,-4.61768913269043,7.5311479568481445,0.9428712725639344,-3.664671659469605,-0.7538223266601562
28.945196151733402,-5.062171936035156,6.524130821228027,1.9081432819366455,-3.4911658763885502,-1.0852539539337158
27.998353958129886,-3.477522373199463,6.350222587585449,2.762259006500244,-3.072245359420777,-1.1215142011642458
35.761127471923835,0.23782086372375488,11.242481231689453,2.680968523025513,-3.065479278564453,-0.8821677565574647
35.82284927368165,1.3686673641204834,20.63472175598145,1.720541596412659,-1.6662222146987917,-0.6098514795303345
22.750246047973636,0.7979798316955566,13.878561019897461,0.5841042399406434,-0.9836229085922241,-0.37978640198707586
18.525123596191406,-0.4388461709022522,11.554163932800295,-0.23925684392452243,-1.0978195667266846,-0.41586577892303467
15.300165176391602,-1.465837001800537,9.990787506103516,-0.731408953666687,-1.366929888725281,-0.589324951171875
14.313735008239748,-3.1851000785827637,10.495243072509766,-0.8826990127563477,-1.6128430366516113,-0.8382346034049989
13.561132431030273,-5.209928035736085,11.769506454467773,-0.6325505375862123,-1.5636751651763916,-1.0437303781509402
11.569984436035156,-5.885636806488038,12.604117393493654,-0.11019940674304962,-1.28953492641449,-1.0929833650588991
9.282140731811523,-4.824235916137695,12.863754272460938,0.35849350690841675,-0.9070823788642884,-1.025399923324585
6.851984024047852,-2.8761203289031987,12.711711883544922,0.5538848638534546,-0.3929010033607483,-0.8644031882286073
3.8151710033416752,-1.5834929943084717,11.552388191223146,0.4690518379211426,0.16698698699474337,-0.7123290300369263
0.9627186655998231,-1.3306629657745361,10.507325172424318,0.23558475077152255,0.6305437088012695,-0.6027621030807495
-0.44895538687706,-1.523374319076538,9.563138961791992,0.02147023007273674,1.0715981721878054,-0.45728760957717896
-2.9181995391845703,-2.0203638076782227,6.889564514160156,0.04384497925639153,1.485847592353821,-0.3231222629547119
-5.154711246490479,-2.02740478515625,4.902797222137452,0.15952001512050631,1.7116742134094238,-0.19008298218250277
-5.818906784057617,-1.2817974090576172,4.72695016860962,0.19954659044742587,1.83847975730896,-0.02908596768975258
-5.045072078704835,-0.9582095146179199,5.663036346435547,0.08511960506439209,2.1138775348663335,0.15305021405220032
-5.850767612457276,-1.7148193120956423,4.552273750305176,0.030333951115608215,2.5373382568359375,0.31515768170356756
-8.28062152862549,-1.3264812231063845,1.7509043216705322,0.05667435750365258,2.7591705322265625,0.4194981753826142
-9.430216789245607,-0.02535153180360794,-0.3753671646118164,-0.09526026248931885,2.7081000804901127,0.5142334103584291
-9.638036727905273,0.04008771479129791,-1.1482328176498415,-0.33729010820388794,2.5411169528961186,0.608504056930542
-7.815251827239991,-0.7983607053756714,0.5644088983535767,-0.5376956462860107,2.462597370147705,0.7361224293708802
-5.640411853790284,-1.450078010559082,2.573665857315064,-0.5931123495101929,2.6896193027496342,0.8883533477783203
-5.125449657440186,-1.091874122619629,2.6606609821319585,-0.560828983783722,3.071873188018799,1.0213048458099365
-4.796935081481934,-0.22026517987251282,1.9368023872375488,-0.6209339499473573,3.3682780265808105,1.1431170701980593
-4.258441925048828,0.12547634541988376,0.7019158005714418,-0.6973982453346254,3.572405099868775,1.2591705322265625
-3.7798409461975098,1.2440054416656494,-0.3274152576923371,-0.7733442783355713,3.6330025196075444,1.3573272228240967
-2.2738506793975835,2.4276719093322754,0.151103675365448,-0.9352789521217347,3.6066198348999023,1.4203145503997803
0.4728683829307556,2.908143281936646,1.915865778923035,-1.0657862424850466,3.6468372344970703,1.3947016000747683
2.6300470829010014,3.1055328845977788,2.640322685241699,-1.0380431413650515,3.823001623153687,1.2893030643463135
3.1788141727447514,3.5437996387481694,2.079588651657105,-0.8454057574272157,3.9141645431518555,1.0970257520675661
4.242818355560304,4.26623296737671,2.447508573532105,-0.6517097353935243,3.8306732177734375,0.8405197858810425
6.071656227111816,4.247377395629883,3.0783286094665527,-0.4756594002246857,3.733893394470215,0.5268445611000062
7.693869590759277,3.7652924060821538,3.1067357063293457,-0.25782954692840576,3.6232810020446777,0.21530793607234958
9.556859016418459,3.6194005012512207,2.628880500793457,-0.07196476310491563,3.4040212631225586,-0.009886198677122595
11.772791862487795,2.9670538902282715,2.6468467712402344,0.06310167908668518,3.0351846218109135,-0.1633373945951462
14.511154174804688,2.3547630310058594,4.220461845397949,0.1312943696975708,2.6421139240264897,-0.20313456654548645
16.540863037109375,2.381251335144043,5.450453281402589,0.16204611957073214,2.374162912368775,-0.1406809389591217
17.398372650146484,2.6832492351531987,5.421497821807862,0.07100208103656769,2.1636183261871342,-0.00911051407456398
16.610095977783203,2.119351863861084,4.06244993209839,-0.017011268064379696,1.8435616493225098,0.1026105135679245
14.972648620605469,1.9030658006668093,3.4659833908081055,-0.007048899773508311,1.4013018608093262,0.1647147983312607
14.023228645324709,1.8153190612792969,3.6355299949645996,0.004696956370025874,1.0187388658523562,0.17029303312301636
11.825454711914062,1.205588221549988,2.0998699665069585,0.03392492607235909,0.6985181570053101,0.20466755330562594
7.504224300384522,0.4579595029354096,-2.3743834495544434,0.0314704030752182,0.19036082923412326,0.3682673275470734
38.58831024169922,5.755646228790284,1.5934706926345827,-1.606809973716736,-2.2951226234436035,1.6232663393020632
61.620819091796875,25.056991577148438,52.76427459716797,-3.1034903526306152,-0.3323543071746826,1.3595560789108279
-6.605896472930909,-0.2710202932357788,5.854548454284668,-0.24388551712036133,2.2350084781646733,0.3690451383590698
-1.25374710559845,-20.680982589721683,8.599222183227539,-0.10299693048000336,0.37446978688240057,0.6807485222816468
-7.174074649810792,-0.20420546829700473,6.976972103118897,-0.2303886264562607,-0.09454330801963806,0.4122570455074311
5.364735126495362,-0.8655799627304077,13.718320846557617,-0.22068338096141818,-0.7492665648460389,-0.3762199282646179
3.29412841796875,-9.797651290893555,7.307661533355714,0.1403365433216095,-0.5311320424079896,-0.6977494955062866
8.497861862182617,4.702822208404542,10.963547706604006,0.11655520647764207,-0.443514883518219,-0.41367197036743164
8.125408172607422,4.6259355545043945,8.762143135070803,-0.031268771737813957,0.014544010162353516,-0.19591654837131503
7.290495395660401,-0.4873655736446381,8.85737419128418,-0.15410061180591586,0.35763064026832586,0.12497028708457947
5.317615985870362,-1.1205904483795166,9.144010543823242,-0.1043699011206627,0.519986629486084,0.18460546433925631
4.410147190093995,-3.561779022216797,9.41801643371582,0.04842814803123474,0.5869233012199403,0.08925274759531023
3.881107807159424,-2.014187097549439,9.903468132019045,0.11205082386732103,0.5602895021438599,0.031088275834918026
4.016212940216065,-0.7056987285614014,9.793222427368164,0.11949966847896576,0.4975261688232422,-0.002261631423607469
4.138936519622804,-0.29130762815475464,10.034795761108398,0.09933418780565263,0.44303905963897705,0.029111316427588466
3.7072279453277592,-0.49711501598358154,10.162494659423828,0.054964691400527954,0.35754343867301946,0.0778898671269417
3.410892963409424,-1.5952467918395996,9.933435440063477,0.0626673698425293,0.2619110047817231,0.05622221529483795
3.6611092090606694,-1.707679033279419,9.946765899658203,0.10699735581874847,0.18169426918029785,-0.019514588639140133
3.971004009246826,-1.0275311470031738,9.936947822570803,0.11517374962568284,0.12483471632003784,-0.060692321509122855
4.150951385498047,-0.19151553511619568,9.9680871963501,0.08988239616155626,0.08874773979187012,-0.042620882391929626
4.302653789520265,0.016244620084762573,9.960687637329102,0.02147495746612549,0.05489832535386086,0.027191471308469772
3.902704000473023,-0.2944992780685425,9.80286502838135,-0.05321641266345978,0.02355222776532173,0.09430939704179765
3.3633921146392827,-0.6641228199005127,10.03736209869385,-0.11144492775201799,-0.050783321261405945,0.1034737601876259
3.425731658935547,-0.6241278648376465,10.067611694335938,-0.16143786907196045,-0.14769826829433444,0.07903323322534563
3.775413990020752,-0.4733019173145295,10.09482192993164,-0.20105111598968506,-0.22030757367610934,0.07149948179721832
3.772007465362549,-0.8845853805541992,9.854984283447266,-0.23533095419406894,-0.2840294539928437,0.06708437204360962
4.070221900939941,-0.9751629829406738,9.782007217407227,-0.2690660655498505,-0.32834088802337646,0.0588805340230465
4.259454727172852,-0.7900322675704956,9.87066650390625,-0.2863166928291321,-0.3576554954051972,0.07163009792566301
4.029340267181397,-1.083957076072693,9.718749046325685,-0.2995856106281281,-0.39066463708877563,0.06990992277860643
4.263232707977296,-1.129038214683533,9.807275772094727,-0.3092604577541352,-0.4187972247600556,0.061565153300762177
4.488303184509277,-1.627754092216492,9.46113681793213,-0.3063639998435974,-0.4148708879947663,0.05037815868854523
4.595717906951905,-1.2710235118865967,9.322919845581055,-0.2792817056179047,-0.4029594659805298,0.03379230946302414
4.497805595397949,-1.2153314352035525,9.423576354980469,-0.2916832268238068,-0.3787376284599304,0.03691735491156579
4.708215236663819,-1.1361174583435059,9.45374393463135,-0.2857693731784821,-0.3686749637126923,0.030325699597597122
4.554353713989258,-1.4873362779617312,9.256467819213867,-0.2667683064937592,-0.339280903339386,0.03428302332758904
4.603864192962647,-1.4033138751983643,9.224696159362795,-0.2491755187511444,-0.31985595822334295,0.019354483112692836
4.497867107391358,-1.4923279285430908,9.288422584533693,-0.2371455729007721,-0.29333308339118963,0.023610170930624008
4.256677627563477,-1.9399363994598389,9.27466678619385,-0.2090214192867279,-0.30850154161453247,0.010067091323435308
4.492993831634522,-1.6415247917175293,9.371958732604982,-0.1834758222103119,-0.3223125636577607,-0.007383028976619244
4.6333966255188,-1.5997325181961062,9.2824182510376,-0.16521236300468445,-0.3107156455516816,-0.01679131202399731
4.555290699005128,-1.6898131370544434,9.262946128845217,-0.14156375825405124,-0.31720757484436035,-0.039188135415315635
4.725100040435792,-1.3829454183578493,9.355153083801271,-0.12912894785404208,-0.30619236826896673,-0.03863171488046646
4.724775314331055,-1.3725441694259646,9.219459533691406,-0.11430144309997559,-0.304664820432663,-0.042265161871910095
4.722229480743409,-1.2454309463500977,9.214780807495117,-0.11202088743448259,-0.3044167757034302,-0.048279911279678345
4.521761894226074,-1.0176126956939697,9.594906806945803,-0.12928356230258944,-0.3217772841453552,-0.03829548880457879
4.424471378326417,-1.410398840904236,9.383008003234865,-0.13837237656116488,-0.36319503188133245,-0.048121653497219086
4.439944744110108,-1.6305222511291504,9.267623901367188,-0.13406893610954285,-0.3977616131305695,-0.0759279727935791
4.836764335632324,-1.5172154903411865,9.00065803527832,-0.11392943561077118,-0.4162977039813996,-0.09447892755270006
4.906448841094972,-1.0017004013061523,9.2342004776001,-0.1004394218325615,-0.43230122327804565,-0.0858622118830681
4.773685455322266,-1.0867209434509277,9.366811752319336,-0.13240021467208862,-0.4631463885307312,-0.06720317155122758
4.564802169799805,-1.048202157020569,9.577249526977539,-0.1665991693735123,-0.5435017347335815,-0.06053468212485314
4.667240619659425,-0.7157095670700073,9.600390434265138,-0.19518381357192993,-0.6258006691932679,-0.04845909401774407
4.79904842376709,-1.1546994447708132,9.259812355041506,-0.2089877426624298,-0.7066261172294618,-0.04953879117965698
4.248007774353027,-1.4250317811965945,9.140244483947756,-0.16927498579025269,-0.791851282119751,-0.07467358559370042
4.102874279022218,-2.1168437004089355,9.277451515197756,-0.12984542548656466,-0.9036985635757446,-0.13971664011478427
4.998689651489258,-2.1516523361206055,8.912915229797365,-0.07786622643470764,-1.0003284215927126,-0.2236115783452988
5.4155473709106445,-1.6770806312561035,8.807593345642092,-0.048076361417770386,-1.0081425905227663,-0.2545778751373291
5.651460647583008,-2.089723348617554,8.466617584228516,0.02190522477030754,-0.9674662351608276,-0.28492203354835516
5.4211697578430185,-2.0355753898620605,8.392949104309084,0.127750426530838,-0.9606246352195741,-0.3349766135215759
6.234183311462402,-1.641678810119629,8.509690284729006,0.1563190221786499,-0.9404543042182923,-0.33612087368965154
5.667407512664796,-1.4763226509094238,8.92820453643799,0.1980600357055664,-0.9100430607795716,-0.3207106590270996
5.0426788330078125,-1.6127536296844482,9.273228645324709,0.23193934559822083,-0.9951170682907104,-0.34089830517768865
4.62619686126709,-2.019809484481812,9.823362350463867,0.32733157277107244,-1.1499781608581543,-0.3525482118129731
4.794174671173097,-1.6150078773498535,9.658534049987795,0.3861238360404968,-1.366566300392151,-0.3936068713665009
4.859292984008789,-1.8183250427246094,9.725861549377443,0.41104897856712347,-1.5793533325195312,-0.431710034608841
5.017114162445069,-1.6659600734710693,9.542362213134766,0.4562184810638428,-1.7899668216705322,-0.4724320471286774
4.9433302879333505,-1.4423203468322754,9.384681701660156,0.5159726142883301,-2.030542612075806,-0.5264937877655029
5.1702423095703125,-0.9097835421562196,8.981836318969727,0.5741184353828431,-2.3068056106567383,-0.5718072652816772
5.2128143310546875,-0.49576094746589666,8.585315704345703,0.5925203561782837,-2.616165399551392,-0.58211350440979
5.4812726974487305,-0.1903226375579834,8.517453193664553,0.6066110134124756,-2.9945569038391113,-0.5763285756111146
5.351090908050538,-1.2701632976531982,8.403523445129396,0.6800313591957093,-3.4294066429138184,-0.6202535033226014
5.822848320007324,-1.3777335882186892,8.483060836791992,0.7585710883140565,-3.9559578895568848,-0.632941484451294
6.178118705749512,-1.1274932622909548,8.620269775390625,0.7866106629371644,-4.553513526916504,-0.6558272242546083
7.2141995429992685,-0.7081555128097534,8.973107337951662,0.7615185976028442,-5.161079406738281,-0.653716266155243
9.345753669738771,-0.2658537924289704,9.838909149169922,0.6325315237045288,-5.525481700897218,-0.5714898109436035
12.011354446411133,0.1752694845199585,10.513586997985842,0.501124382019043,-5.543711185455323,-0.4146974384784699
15.28968143463135,-0.43589699268341064,11.607258796691896,0.473408043384552,-5.168390750885011,-0.21892979741096497
19.573247909545902,-0.718345046043396,12.46143436431885,0.6357458829879761,-4.488526344299316,-0.17283569276332858
24.611009597778324,-1.4722925424575808,12.197228431701662,0.28635990619659424,-3.7561595439910893,0.0539427250623703
23.609970092773438,-2.2694799900054936,10.127449035644531,-0.18422736227512362,-2.8924989700317383,0.07327358424663544
19.229364395141605,-1.7672199010849001,3.7708206176757812,-0.3630205094814301,-2.3610153198242188,-0.24653692543506625
18.99257850646973,-4.019522666931152,-1.8543738126754763,0.17062218487262729,-2.649102926254273,-0.9163649082183838
22.58356475830078,-2.8439829349517827,-3.592987537384033,0.9766155481338501,-2.892065763473511,-1.3459241390228271
20.5558032989502,-3.3773322105407715,-5.844675064086914,1.89276123046875,-3.1624381542205815,-1.9385584592819216
20.45511054992676,0.03203286975622177,-5.285210132598878,2.547819137573242,-4.235433101654054,-2.607974052429199
27.902200698852543,3.1903324127197266,6.523405551910401,2.2372560501098633,-4.677328109741211,-2.919927835464478
22.426509857177734,4.808354854583741,6.406154155731202,1.1158523559570312,-4.322002887725831,-2.914336681365967
22.021923065185547,4.400138378143311,7.656384468078613,-0.19704017043113708,-4.205775737762452,-3.050892591476441
19.483819961547855,1.7407200336456299,8.365118980407717,-1.2199486494064333,-3.8388304710388184,-3.12872862815857
16.61684608459473,-0.9419771432876587,8.107669830322266,-1.8022489547729492,-3.5590872764587402,-3.206967115402222
14.017640113830568,-4.768747806549073,8.631720542907717,-1.8375357389450075,-3.28873872756958,-3.3046143054962163
11.179662704467773,-8.461724281311037,8.656782150268555,-1.25589919090271,-3.1009471416473393,-3.214281797409058
9.055976867675781,-9.419855117797852,8.548259735107422,-0.19145238399505615,-2.9461438655853276,-2.9789018630981445
6.497336864471436,-7.592376232147218,9.051855087280273,0.7057465910911561,-2.7920296192169194,-2.5876426696777344
4.1801724433898935,-5.469367027282715,9.595215797424318,1.1003937721252441,-2.5953938961029057,-2.0751123428344727
2.3959574699401855,-4.047945022583008,10.110490798950195,1.0863360166549685,-2.367344856262207,-1.4788734912872314
1.0672737360000613,-3.306025981903076,10.597214698791506,0.8531371951103212,-2.064065933227539,-0.8875270485877992
0.6668100953102113,-3.0441513061523438,11.705992698669435,0.4623597264289856,-1.6720867156982422,-0.3290956914424897
1.7465262413024902,-3.1262378692626953,13.736661911010742,0.0032784778159111743,-1.0638470649719238,0.18739093840122226
3.000823497772217,-3.6590356826782227,15.577267646789553,-0.3836640417575837,-0.152127206325531,0.6418076753616333
3.2863585948944096,-4.159778594970703,15.86022472381592,-0.6108282804489136,0.9638575911521913,1.0517640113830566
2.283324718475342,-4.4313702583313,14.588882446289062,-0.6819499731063843,2.0563817024230957,1.42759644985199
0.6285703182220459,-4.014788627624512,12.722856521606445,-0.6377954483032227,2.930230855941773,1.7246413230895996
-1.2076871395111084,-3.1908457279205327,10.472533226013185,-0.4688584506511689,3.5144710540771484,1.9013004302978516
-2.614133834838867,-1.8221445083618164,8.51021480560303,-0.32013091444969183,3.822531223297119,1.9866605997085574
-3.1984806060791016,0.26607498526573187,7.191486358642578,-0.3114880919456482,3.9705023765563965,2.0691111087799077
-3.5125520229339604,1.507127046585083,6.306641101837159,-0.48498412966728216,3.999455451965332,2.163369417190552
-3.182004451751709,2.2986314296722417,5.939566612243652,-0.6776496171951294,3.961849927902222,2.197407484054566
-2.3839497566223145,2.604134321212769,6.026103496551515,-0.8795692324638368,3.9488048553466797,2.1619422435760502
-1.3886165618896484,2.564711093902588,6.482204437255859,-1.008427381515503,3.9704947471618652,2.0666205883026127
0.10364894568920135,2.2824440002441406,7.430572032928468,-1.0341855287551882,4.061179161071777,1.9295140504837038
1.9352781772613525,1.9911841154098513,8.329573631286623,-0.9471659660339355,4.2734436988830575,1.7828320264816286
3.160718679428101,2.2163398265838627,8.872012138366701,-0.8371157646179199,4.5744080543518075,1.629725456237793
3.9499616622924805,2.9325373172760014,8.946456909179688,-0.8209503293037416,4.878915309906007,1.471555471420288
4.683464050292969,3.8353760242462163,8.7073974609375,-0.988581955432892,5.120492935180664,1.3410037755966189
5.4217543601989755,4.408616065979004,8.398367881774904,-1.3001794815063477,5.294927120208741,1.2479261159896853
6.437491893768311,4.120079517364503,8.20533084869385,-1.6257456541061404,5.434728622436523,1.1794754266738894
7.4433393478393555,2.5192353725433354,7.983525276184082,-1.756502389907837,5.525514602661133,1.1187757253646853
8.142911911010742,1.426932215690613,7.929363250732422,-1.607961654663086,5.526591777801515,1.088824987411499
8.886991500854492,1.8639754056930544,8.270944595336914,-1.3814245462417605,5.433718681335449,1.069162130355835
10.395618438720703,2.448140382766724,8.632514953613281,-1.298325538635254,5.344140529632569,1.0475082397460938
11.441604614257812,2.39363431930542,8.976805686950685,-1.296492099761963,5.240431785583496,1.0231155157089236
11.72091579437256,2.122957706451416,9.285408020019531,-1.2720385789871218,5.07122802734375,0.948505461215973
12.16513442993164,2.0667064189910893,9.797197341918945,-1.2294069528579714,4.859295845031738,0.7988506555557251
13.84413814544678,2.024688005447388,10.39807987213135,-1.1479058265686035,4.668857097625733,0.6143759489059448
15.386317253112795,3.221158504486084,10.797577857971193,-1.099460005760193,4.4841980934143075,0.41691458225250244
16.584407806396484,5.574398994445801,10.766656875610352,-1.2705740928649902,4.288469791412354,0.19163057208061218
16.786170959472656,7.907400608062745,10.052337646484375,-1.7127659320831299,4.04548215866089,-0.11251140385866167
16.985540390014652,8.84897232055664,9.334692955017092,-2.2156274318695073,3.7321982383728027,-0.5659064650535585
18.05199241638184,9.048900604248047,8.78371334075928,-2.5823132991790776,3.4299390316009526,-1.089651346206665
18.36587142944336,10.054550170898438,8.032172203063967,-2.832954645156861,3.1536636352539062,-1.6216233968734743
17.94324493408203,11.895388603210451,6.17011833190918,-3.1997580528259277,2.8374235630035405,-2.131560564041138
16.783443450927734,12.732975006103516,3.6911861896514897,-3.6036207675933842,2.417837619781494,-2.637692213058472
16.207609176635746,12.208404541015625,1.4059013128280642,-3.867531538009644,1.8551141023635866,-3.156641960144043
16.67824745178223,11.249722480773928,-0.464624971151352,-3.973681926727295,1.2169238328933718,-3.630777359008789
17.0517578125,10.020621299743654,-1.9690703153610232,-4.045465469360352,0.5975753664970399,-3.944989919662476
17.585905075073246,8.230911254882812,-2.927916765213013,-4.113454341888429,0.04624190926551819,-4.029736042022706
18.292369842529297,6.498027801513672,-3.280890226364136,-4.16363286972046,-0.38503596186637884,-3.888950824737549
38.62620162963868,-11.281942367553711,5.488379955291749,-1.7215031385421755,-0.29726171493530273,-5.173853397369386
25.117191314697266,-18.25704383850098,3.4783053398132324,2.2944815158844,0.6085183620452881,-4.953203201293945
14.585418701171875,-14.795513153076172,-1.0035113096237185,2.906117200851441,0.8238993883132935,-2.9848239421844487
14.86895751953125,-6.718270778656007,9.38577651977539,3.769552230834961,0.543809175491333,-1.3608587980270388
6.141517639160156,12.127215385437013,21.459344863891605,1.7663021087646484,1.4833234548568728,-0.35485947132110596
-4.695204734802246,15.955562591552734,9.618483543395998,0.7140551209449769,1.0638771057128906,-0.28445446491241455
1.3152099847793581,-4.680258750915527,11.282788276672365,0.7780798077583314,0.2068849503993988,-0.6311418414115907
6.822908401489258,-4.380284309387207,11.471059799194336,0.7908071875572206,-0.2655735909938813,-0.4763704538345337
6.130993366241456,10.339529991149904,12.536782264709474,0.5458151698112489,0.025006800889968872,-0.2671662867069245
4.949227333068848,5.539871692657472,11.850378990173342,0.1967018693685532,0.1143043041229248,-0.16382038593292236
3.50579833984375,-0.4024754762649536,9.723541259765625,0.06400970369577409,0.05851376801729202,-0.03752052411437035
4.37065076828003,1.43247926235199,10.129940032958984,-0.02007604949176312,0.022454304620623592,-0.008255798369646072
4.912845134735108,-0.547187328338623,9.800226211547852,-0.1135108843445778,0.04757963865995407,0.04103272035717965
4.330437660217285,-1.7379947900772097,9.622016906738281,-0.11762357503175737,0.05327097326517105,0.0502191036939621
4.4240312576293945,-1.1796113252639773,9.692858695983888,-0.11640589684247972,0.027499865740537643,0.04626342281699181
4.706648349761964,-2.1436951160430913,9.658502578735352,-0.08567190915346147,0.03352132812142373,0.05168306827545166
4.296976089477539,-1.3656878471374512,9.80341911315918,-0.049542173743247986,0.020400190725922588,0.05548255890607834
3.92125153541565,-1.077535629272461,9.697694778442383,-0.05670153349637985,-0.02265320532023907,0.059840980917215354
3.7999498844146733,-1.1789256334304812,9.832964897155763,-0.07268809527158739,-0.09708535671234131,0.05498935654759408
4.361836910247804,-0.8279561400413514,9.88797378540039,-0.08875110000371934,-0.12618510425090793,0.052168555557727814
4.6136274337768555,-0.6528358459472656,9.90928363800049,-0.12225165218114854,-0.12391464412212372,0.07664001733064653
4.520729541778565,-0.8015424013137817,9.876455307006836,-0.15056270360946655,-0.11519519239664079,0.09929279237985612
4.258371829986573,-0.9975061416625977,9.809079170227053,-0.1609569489955902,-0.11652878671884538,0.1051660031080246
4.281546115875245,-1.0397686958312988,9.673212051391602,-0.16642627120018005,-0.1242775171995163,0.1035115495324135
4.158439159393311,-1.1141023635864258,9.6498498916626,-0.1737794578075409,-0.13622297346591952,0.10467371344566345
4.2425274848938,-0.9449264407157899,9.732710838317873,-0.18393579125404358,-0.15435357391834262,0.10455062240362169
4.4629864692688,-1.2063789367675781,9.674075126647951,-0.1786105185747147,-0.15501970052719116,0.0998128578066826
4.222943782806397,-1.5633609294891357,9.346319198608398,-0.15764816105365756,-0.14437030255794528,0.09356509149074554
4.062487602233887,-1.678871273994446,9.309880256652834,-0.14151722192764282,-0.1591332703828812,0.07715532183647156
4.26525640487671,-1.6981292963027956,9.32925319671631,-0.12076723575592041,-0.1687368601560593,0.058110829442739494
4.523862838745117,-1.474121332168579,9.46331310272217,-0.10552111268043518,-0.1540380567312241,0.046521060168743134
4.55335569381714,-1.451923131942749,9.430074691772461,-0.08822667598724365,-0.1294143795967102,0.04631852731108666
4.447750091552734,-1.3829712867736816,9.42495632171631,-0.08164463192224504,-0.11398200690746307,0.042288456112146385
4.216385364532472,-1.6436598300933838,9.235261917114258,-0.07508278638124467,-0.10271920263767242,0.03637080639600754
4.31696367263794,-1.5969648361206055,9.31599521636963,-0.06253834813833238,-0.12712785601615906,0.025194177404046062
4.574078559875488,-1.500678896903992,9.387947082519531,-0.0537828654050827,-0.11660361289978027,0.01581208966672421
4.533356666564941,-1.208834767341614,9.370530128479006,-0.05612881109118462,-0.09601849317550659,0.02034511230885983
4.499712467193604,-1.3574841022491455,9.373707771301271,-0.06287954002618791,-0.0782575011253357,0.02917381376028061
4.321868419647218,-1.6432671546936035,9.409996032714844,-0.06087244302034378,-0.07331079989671709,0.019279468804597855
4.211529731750488,-1.8226094245910645,9.293560028076172,-0.04881583526730538,-0.08669430762529375,0.005114126019179821
4.277678966522218,-1.4635559320449831,9.389303207397461,-0.05088385194540024,-0.10708390921354295,-0.012128777801990509
4.19138240814209,-1.572893023490906,9.324360847473146,-0.031234238296747208,-0.13148950040340426,-0.03239011391997338
3.952075481414795,-1.7247397899627686,9.263758659362795,0.04929964244365692,-0.18658386170864108,-0.08950318396091461
4.405935287475586,-1.3896154165267947,9.503699302673342,0.06233300268650055,-0.22458142042160034,-0.11479983478784563
4.199114799499512,-1.3519095182418825,9.473539352416992,0.09888993203639984,-0.25236168503761297,-0.15425825119018555
4.446332931518555,-1.1421468257904053,9.633254051208498,0.08578429371118547,-0.28333377838134766,-0.16806745529174805
4.455082893371582,-1.468407392501831,9.702857971191406,0.05196384713053704,-0.3155284523963928,-0.17681659758090976
4.510691165924073,-1.1493263244628906,9.667944908142092,0.0013051695423200729,-0.34555050730705267,-0.20552480220794678
4.60499143600464,-1.1815818548202517,9.680160522460938,-0.04405660182237625,-0.3638784587383271,-0.17873689532279968
4.399333477020265,-1.3034263849258425,9.665575981140138,-0.07652099430561066,-0.39537480473518377,-0.19316782057285312
4.309784889221191,-1.5139552354812624,9.531771659851076,-0.12251177430152893,-0.44734117388725286,-0.20137211680412292
4.279447078704835,-1.3268588781356814,9.586042404174805,-0.15478216111660006,-0.5047268271446229,-0.2306782603263855
4.5888214111328125,-1.6576249599456787,9.483907699584961,-0.19544281065464023,-0.5759810209274292,-0.2369378060102463
4.294823169708253,-1.2033376693725586,9.592206954956055,-0.25134035944938665,-0.6693135499954224,-0.21582216024398804
3.8740038871765137,-0.7624406814575195,9.794687271118164,-0.33647760748863226,-0.8370265960693359,-0.20527015626430514
3.62241268157959,-0.8910323977470399,9.902636528015138,-0.4287622272968293,-1.0499583482742312,-0.2137986123561859
3.2740027904510502,-0.9060978889465332,9.921758651733398,-0.46623891592025757,-1.339961647987366,-0.21718737483024597
3.2987177371978764,-0.5080018043518066,10.033848762512209,-0.5043178796768188,-1.6606887578964236,-0.22269655764102939
3.5538549423217773,-0.4369070231914521,10.152545928955078,-0.5496847629547119,-1.9904519319534304,-0.2194785475730896
3.5889732837677006,-0.060322850942611694,10.434440612792969,-0.6062748432159424,-2.346099376678467,-0.1772369295358658
3.327120780944824,0.19611553847789767,10.325778007507326,-0.7372290492057801,-2.751528263092041,-0.13811795413494113
3.7762310504913335,0.06499886512756348,10.48048496246338,-0.805514931678772,-3.2532746791839604,-0.07435231655836107
3.3741147518157963,0.2670940160751343,10.398673057556154,-0.8500900864601136,-3.815037250518799,-0.05613161996006966
3.8981404304504395,-0.0656675398349762,11.133969306945803,-0.8735803961753846,-4.503263950347901,0.03973301500082016
3.5239851474761967,-0.4616115093231201,11.46268939971924,-0.982325851917267,-5.262133598327637,0.1968658417463303
3.8259005546569824,-0.5824744105339051,12.825005531311037,-1.195036292076111,-6.283378601074219,0.44784754514694214
4.555769920349121,-0.6891318559646606,17.330072402954105,-1.7626433372497559,-7.432500362396241,0.6565309762954712
9.294960021972656,-1.4010900259017947,19.61474418640137,-2.5970413684844975,-8.304759025573732,0.640832781791687
13.072994232177734,-3.972165584564209,18.301446914672855,-3.3717665672302246,-8.915562629699709,0.6366933584213257
18.93509101867676,-5.706571102142335,19.711719512939453,-4.00044059753418,-9.156590461730959,0.3583188354969025
23.605413436889652,-6.288811683654785,22.621358871459964,-4.452649593353272,-9.018171310424805,-2.044439497694839e-05
28.14608955383301,-7.418816566467285,20.886354446411136,-5.265614986419679,-8.311976432800295,-0.3018385171890259
32.47094345092774,-5.947582721710206,22.990386962890625,-6.859271526336671,-6.965001106262207,0.08539987355470659
23.498025894165043,0.9654455184936523,24.362762451171875,-9.605015754699709,-5.098459243774414,0.6705935001373291
17.282672882080078,-8.616839408874513,17.852865219116214,-10.377051353454592,-2.687213897705078,0.15639413893222812
30.582138061523438,-16.197574615478516,19.07383537292481,-7.029503345489503,-0.9432170987129213,-2.4001822471618652
30.196243286132812,-19.65623283386231,30.33128929138184,-2.711094856262207,3.471026182174683,-3.044984817504883
8.13584613800049,-7.577895641326905,14.077404022216797,-0.6358202099800111,4.714919090270996,-2.863910675048828
3.029311895370484,1.707243323326111,6.641643047332765,-0.3439047932624817,4.9065518379211435,-2.717172622680664
1.9129654169082644,5.291922092437745,4.371403694152832,-0.9678299427032471,4.707021713256836,-2.597295999526978
2.380129814147949,5.40495252609253,3.3292567729949956,-1.7773759365081787,4.552157878875733,-2.371711254119873
0.12125694751739502,2.4678246974945073,2.198227882385254,-2.1220304965972905,4.559903144836426,-2.160160541534424
-1.2297619581222536,0.6819284558296205,2.359017610549927,-1.8402190208435059,4.537851810455323,-2.0102548599243164
-0.9808005094528198,0.6799563765525819,3.634899616241455,-1.3744970560073855,4.479542255401612,-1.7898876667022705
0.08800516277551652,2.568326473236084,5.31541633605957,-1.0441893339157107,4.6434125900268555,-1.4378563165664675
-0.2744655907154084,3.758595228195191,5.290557384490968,-0.9974151849746704,4.977002620697022,-1.0421389341354372
-1.2394740581512451,3.650820732116699,3.9139192104339604,-1.004477143287659,5.2286834716796875,-0.7339263558387757
-1.956120252609253,4.223531246185304,2.4640612602233887,-0.9448665976524354,5.28205156326294,-0.5052469968795776
-2.1935319900512695,5.179705619812012,1.7768377065658572,-0.9099002480506898,5.234203338623047,-0.3703663051128388
-1.107771873474121,5.9838576316833505,2.214085102081299,-0.9762526154518129,5.21889591217041,-0.3008304238319397
-0.09239808470010759,6.34498167037964,2.8974254131317143,-1.0191280841827393,5.264976024627686,-0.31836676597595215
0.8553171157836914,6.437617778778077,3.166878938674927,-1.002598762512207,5.397947311401367,-0.45762637257575994
1.9438380002975466,6.346781253814698,2.803019762039185,-0.9648527503013612,5.526341438293457,-0.7074397206306459
3.6342086791992188,5.556479930877686,2.002658605575562,-0.8668003082275391,5.603759288787843,-0.952717959880829
4.794986724853516,4.8589749336242685,0.7951608896255493,-0.7283366918563843,5.584421634674073,-1.058359146118164
6.099282264709473,4.508251190185547,0.13720355927944186,-0.6383056640625,5.464153289794922,-0.9894970059394838
7.857603549957276,4.025917053222656,-0.2441571056842804,-0.577703595161438,5.289384365081788,-0.8123639822006226
10.034817695617678,3.4559412002563477,-1.0121995210647585,-0.49629917740821844,5.0528106689453125,-0.5834994316101074
11.899250030517578,2.4788436889648438,-2.342683076858521,-0.318795531988144,4.627025604248047,-0.33340188860893255
13.564043998718263,1.97408401966095,-3.235254526138306,-0.01131911389529705,3.9859132766723633,-0.10213992744684221
15.836238861083984,2.078458309173584,-3.3457381725311284,0.32240545749664307,3.2318513393402104,0.039271771907806396
18.251129150390625,1.75549852848053,-3.3088915348052983,0.6148434281349183,2.475736141204834,0.06576274335384369
19.952550888061527,2.3423972129821777,-3.117947340011597,0.8975307941436768,1.6955116987228396,0.03644891828298569
21.956949234008793,4.323118209838867,-2.5447726249694824,0.9392866492271424,0.9418219923973085,-0.06691616773605347
23.758314132690433,4.281085968017578,-1.8677765130996706,0.7842336297035218,0.30505460500717163,-0.3043979704380036
24.267398834228516,3.028775691986084,-1.6188173294067383,0.734183669090271,-0.18917216360569003,-0.6075354218482972
21.72817420959473,2.8506832122802734,-2.55557918548584,0.7150053381919862,-0.6593145132064819,-0.8337848782539369
17.01260566711426,1.8537451028823855,-5.336742401123047,0.5256617665290834,-1.2653232812881472,-0.8556857109069824
58.95337677001953,9.106937408447266,8.586374282836914,-2.2051033973693848,-3.758644819259644,0.4069706201553345
40.43388366699219,26.833271026611328,23.004112243652344,-3.2053272724151616,-0.19682109355926514,0.4740450382232666
0.7792972326278687,6.993863105773926,6.706755161285401,-1.275715231895447,1.0355401039123535,0.6476265788078309
9.985976219177248,-10.468029022216797,17.03128433227539,-1.1503677368164062,0.7705398797988892,0.6963979601860047
-5.811748504638672,-4.496421813964844,6.119814395904542,-0.40371769666671753,0.9774895310401918,0.39006179571151733
4.841997146606445,-10.49520015716553,11.364351272583008,0.0009851972572505474,0.5613456368446351,-0.27270457148551946
-0.5783130526542665,-11.62984848022461,10.416785240173342,0.40853348374366766,0.2900395393371582,-0.6877633929252626
4.480890750885011,3.5910675525665288,11.098749160766602,0.47190845012664795,0.033290550112724304,-0.9726315140724183
7.717048645019531,5.964917182922363,9.698174476623537,0.21025681495666504,-0.04502174630761147,-0.5962018966674805
7.906091213226319,2.9224157333374023,9.235702514648438,0.0419854260981083,0.07029783725738525,-0.1324157416820526
5.497815608978272,0.16429737210273743,8.947529792785646,-0.009829726070165634,0.23073606193065646,0.1018848866224289
4.682578563690186,-3.589150190353394,9.456400871276857,0.09880127757787706,0.2799180448055268,-0.01678764447569847
3.9863710403442383,-2.803678035736084,9.744580268859865,0.21608078479766846,0.282739669084549,-0.20737767219543457
4.1784987449646005,0.30968767404556274,10.048048973083498,0.25727382302284246,0.21586090326309204,-0.25188666582107544
4.557001590728761,1.8415393829345703,10.196898460388185,0.11288872361183167,0.11573275178670885,-0.11466087400913239
4.601158618927003,0.6585006713867188,9.953867912292482,-0.015578073449432852,0.05333856120705605,0.029297251254320145
4.209286689758301,-0.4771638512611389,9.876990318298342,-0.06067637354135513,0.013193507678806784,0.07548023760318756
3.992893695831299,-0.6846634149551392,10.038002014160156,-0.06311450898647308,-0.06216511502861977,0.051401775330305106
4.010759353637695,-0.23657220602035522,10.049482345581055,-0.0836211070418358,-0.13915503025054932,0.03726164624094964
4.14622688293457,0.2337649613618851,10.023723602294922,-0.13818667829036715,-0.21589340269565585,0.057596057653427124
4.297093868255616,0.4120510220527649,9.980031967163086,-0.2126615792512894,-0.28420424461364746,0.10683255642652513
4.341492176055909,-0.08425432443618774,9.789647102355959,-0.2695298194885254,-0.34664264321327215,0.1401598006486893
4.432305812835694,-0.35597193241119385,9.735173225402834,-0.3086853623390198,-0.3789313733577729,0.15595704317092896
4.245034217834473,-0.44160032272338867,9.830042839050295,-0.3335584104061127,-0.43222674727439886,0.15371379256248474
4.483108043670655,-0.6152170300483705,9.7542200088501,-0.3626422882080078,-0.4727643430233002,0.1524120569229126
4.622157573699952,-1.0245709419250488,9.387979507446289,-0.3753646314144135,-0.5030848979949951,0.14998510479927063
5.004575729370117,-0.550735354423523,9.503662109375,-0.385472983121872,-0.5019751787185669,0.11710988730192186
4.915893077850343,-1.3338786363601687,9.108499526977539,-0.36067739129066473,-0.4572570621967316,0.1152893453836441
5.003150939941406,-0.9200403690338135,9.29168701171875,-0.3484256565570832,-0.4282596707344055,0.11009318381547929
4.8102874755859375,-0.41475462913513184,9.368850708007812,-0.4146769046783447,-0.42051354050636297,0.10479339212179185
4.6578946113586435,-0.7403258681297303,9.326744079589844,-0.4343035519123078,-0.454742431640625,0.07356051355600358
4.693415641784668,-1.2238110303878786,9.424095153808594,-0.4120263457298279,-0.4660269618034363,0.08221369236707689
4.75754451751709,-1.1582143306732178,9.218616485595703,-0.36470144987106323,-0.5019381642341615,0.067270427942276
4.6956753730773935,-1.4728649854660036,9.097666740417482,-0.34100583195686346,-0.48252540826797485,0.06849856674671173
4.832643985748292,-1.6461398601531982,8.96471691131592,-0.267771989107132,-0.4996992349624634,0.028982130810618404
4.925004482269288,-1.1058155298233034,8.979938507080078,-0.2528800368309021,-0.49351561069488525,0.029821505770087246
4.768890857696534,-1.2228541374206543,9.125813484191896,-0.2205454856157303,-0.5062631368637085,0.012808426283299925
4.990834712982179,-1.5406731367111208,9.036900520324709,-0.18836650252342224,-0.5144696831703187,-0.010375230573117735
4.919463157653809,-1.7764035463333132,8.754998207092287,-0.130305752158165,-0.5066953897476196,-0.035294283181428916
5.057270526885987,-1.371955394744873,8.842781066894531,-0.10355316847562791,-0.5003615021705629,-0.060892462730407715
5.630913734436035,-0.9064270257949829,8.74301052093506,-0.10303907096385956,-0.48382380604743963,-0.05824907869100571
4.972466468811035,-1.0601128339767458,8.793292999267578,-0.07502186298370361,-0.45828148722648626,-0.06276413053274156
4.602499008178711,-1.272705674171448,9.121850013732912,-0.05668412894010544,-0.5127982497215272,-0.08319094777107239
4.744115352630616,-1.5960867404937744,9.121818542480469,-0.057815492153167725,-0.5972862243652344,-0.11868344992399217
4.802875995635987,-1.555107593536377,9.03790283203125,-0.03524581342935562,-0.6960666775703431,-0.1601048707962036
5.085843563079835,-1.3804655075073242,8.788164138793945,-0.017340507358312607,-0.7705247998237611,-0.18934987485408786
5.015744209289551,-0.5290969610214233,9.260237693786623,-0.02624685689806938,-0.8681467175483705,-0.17595282196998596
4.708130359649659,-0.9286816716194154,9.300191879272461,-0.03788936883211136,-1.0033180713653564,-0.16767255961894992
4.329437255859375,-1.5754157304763796,9.343000411987305,-0.01616638340055943,-1.2035796642303467,-0.20643605291843417
4.8413405418396005,-0.8490684032440186,9.386699676513672,-0.026464279741048813,-1.4316612482070925,-0.24443028867244723
5.076262474060059,-0.7192180752754213,9.623995780944826,-0.09644930809736253,-1.6038868427276611,-0.27308776974678045
4.927729606628418,-1.2614731788635254,9.444543838500977,-0.09392083436250688,-1.8111313581466677,-0.30856412649154663
5.95352840423584,-1.315644145011902,9.391040802001953,-0.0758739709854126,-2.024807691574097,-0.34588921070098877
5.868174076080323,-1.6796735525131228,9.221332550048828,0.04648779332637787,-2.160812616348267,-0.36019566655159
5.077218055725098,-0.34956949949264526,9.211880683898928,0.15074615180492404,-2.458503246307373,-0.33417698740959173
5.357905387878418,-0.7945777177810669,8.867015838623047,0.1717772334814072,-2.777699708938599,-0.3342549204826355
5.661410331726074,-0.5561257004737855,8.786447525024414,0.20199744403362277,-3.169680118560791,-0.3005491197109223
6.072339534759522,0.18062807619571689,9.155876159667969,0.22646923363208774,-3.5940184593200684,-0.22157543897628784
7.1196026802063,-0.09584863483905792,10.148036003112795,0.24819888174533847,-3.988694667816162,-0.08014320582151414
8.363135337829592,-0.668563723564148,11.716341018676758,0.21621067821979525,-4.301826000213624,0.07005730271339417
10.304577827453615,-1.9066866636276247,12.639059066772461,0.12931916117668152,-4.420290470123292,0.16826710104942322
12.263218879699709,-3.6941237449645996,12.492804527282717,0.10199481993913652,-4.381569862365723,0.1516399383544922
16.35971260070801,-3.4316134452819824,13.226193428039553,0.28265470266342163,-4.320843219757081,0.09146939218044281
20.53927803039551,-3.5397796630859375,13.70640277862549,0.3257910907268525,-4.02588701248169,-0.01921406388282776
27.183778762817386,-3.2102782726287846,11.109286308288576,0.14953224360942843,-3.752814292907715,-0.11888846009969713
27.47818183898926,-6.324912071228027,1.7318029403686523,0.6327716112136841,-3.469089269638062,-0.6541995406150819
31.373950958251953,-7.329710960388184,2.372683525085449,1.7415341138839724,-3.6419315338134766,-1.0486704111099245
29.370431900024418,-5.101010322570801,1.9167212247848513,2.7354333400726323,-3.5387642383575444,-1.2053098678588867
36.04299545288087,-1.114685654640198,6.152147769927979,2.9969975948333745,-3.9618587493896484,-1.335522532463074
40.337913513183594,1.6778272390365603,20.744014739990234,2.1295826435089116,-2.8039417266845703,-1.2260539531707764
26.555339813232422,2.401363611221314,16.44466590881348,0.8342725634574891,-1.5203089714050293,-0.9140043854713441
23.736942291259766,1.6661957502365115,16.18360137939453,-0.4587071239948273,-0.9755592942237855,-0.7999446392059326
18.313425064086918,-0.6232596635818481,14.633604049682617,-1.3386040925979616,-0.46175748109817505,-0.8031452298164369
13.71119499206543,-2.775080680847168,13.575441360473633,-1.7318664789199831,-0.19479086995124817,-0.9391474723815918
9.735898017883303,-6.244546413421632,13.362357139587404,-1.3517154455184939,0.05262424051761627,-1.2167376279830935
6.603637218475343,-7.921164989471436,13.709071159362795,-0.3387826681137085,0.32218801975250244,-1.4240816831588747
4.61375617980957,-5.555565357208253,15.200672149658203,0.49229386448860174,0.758338451385498,-1.5021046400070193
2.4671835899353027,-3.0594198703765874,16.082956314086918,0.7121192216873169,1.4559408426284792,-1.4005635976791384
-2.093159914016724,-1.7794262170791628,13.692876815795898,0.5284072756767274,2.3011841773986816,-1.2224842309951784
-9.322625160217287,-2.3242685794830327,8.678839683532717,0.44352355599403387,2.841803312301636,-1.177706003189087
-13.271066665649414,-2.7848920822143555,4.676177024841309,0.38049596548080444,2.7545144557952885,-1.24537992477417
-14.589951515197756,-2.54343056678772,2.2671728134155273,0.2938117682933808,2.46658992767334,-1.2995624542236328
-13.621810913085938,-2.3020160198211674,2.8741714954376225,0.06207039579749108,2.1818509101867676,-1.2496525049209597
-11.350093841552734,-2.940365076065064,5.0964860916137695,-0.3048475384712219,2.1732492446899414,-1.0219255685806277
-10.48835563659668,-4.621098041534425,5.374636650085449,-0.542941987514496,2.5041966438293457,-0.6793214678764344
-10.944435119628906,-5.242316246032715,3.931877613067627,-0.5653167366981507,2.848224639892578,-0.3005610704421997
-11.018216133117678,-4.057826042175293,2.440664768218994,-0.6472823023796083,3.0055556297302246,0.13418664038181308
-9.363997459411623,-3.206705808639527,2.3918745517730717,-0.88062584400177,3.1295504570007324,0.6129477620124818
-8.082949638366701,-3.3264744281768803,2.0716407299041752,-1.0172566175460818,3.317892074584961,1.04950487613678
-6.642441749572754,-2.415624380111695,1.652614235877991,-1.0293244123458865,3.4999942779541016,1.4445626735687256
-5.111161231994629,-0.48317274451255804,0.8857054710388184,-1.0657155513763428,3.63272500038147,1.8051702976226807
-2.8453187942504883,1.2937356233596804,0.5054036378860474,-1.1941713094711306,3.6931884288787846,2.075650691986084
-0.057090647518634796,2.3914923667907715,0.8525188565254213,-1.262923836708069,3.742152214050293,2.1988599300384526
2.9898350238800053,3.307851791381836,1.9976701736450195,-1.2282890081405642,3.840855121612549,2.1490659713745117
6.508544921875,4.211525440216065,3.3608348369598393,-1.1136910915374756,3.986669778823853,1.9353806972503662
10.269790649414062,5.3584747314453125,3.4544472694396973,-0.9718398451805116,4.162809848785401,1.5887861251831055
13.082030296325685,4.800854682922363,1.479097604751587,-0.7591226100921631,4.201942920684815,1.1046149730682373
15.113741874694826,3.5971353054046635,-0.42539674043655396,-0.3910635709762573,3.9339535236358647,0.5907368063926698
17.459453582763672,2.479514837265015,-1.2885935306549072,-0.0136538976803422,3.452535629272461,0.19769500195980075
18.28878211975098,0.81648987531662,-1.9535653591156006,0.3330266177654267,2.8949396610260014,-0.011469881981611252
17.524667739868168,0.25847324728965765,-2.881675481796265,0.6486315727233887,2.239038228988648,-0.05559903383255005
16.634044647216797,1.2333906888961794,-3.7062256336212163,0.7335495948791504,1.5175901651382449,0.0013190993340685966
15.183291435241701,0.3405243754386902,-4.8494839668273935,0.732595682144165,0.7883921265602113,0.09647969901561737
11.865240097045898,-0.4524423778057099,-6.011985778808594,0.8714600801467896,-0.0011666365899145603,0.21815140545368197
13.495793342590334,4.1050992012023935,-5.196506023406983,0.9752957820892334,-0.7649934887886048,0.28513455390930176
99.46114349365236,31.02099609375,47.56456756591797,-4.017978191375733,-2.3903307914733887,1.1396090984344482
8.843437194824219,9.894969940185547,-15.400032043457031,-0.7088868021965028,3.8408632278442383,-0.6386613249778749
14.44282627105713,-10.942230224609375,14.378555297851562,-1.296042323112488,2.3670237064361577,1.210848093032837
-9.97459125518799,7.836339473724366,12.813725471496584,-0.6821027994155884,2.525461912155152,0.7578318119049072
-4.40077018737793,-10.844900131225586,15.57288932800293,-0.3720354437828064,1.0802904367446902,0.23956106603145602
-1.5914456844329834,-12.076674461364748,13.543724060058594,-0.15397492051124573,-0.05208751186728478,-0.04563380777835846
2.6007883548736577,0.18264082074165344,11.591986656188967,-0.024955028668046,-0.6206695437431337,-0.41234320402145386
7.284143447875977,-1.3118797540664675,8.168848037719727,-0.0014382106019183996,-0.5457195043563843,-0.41774907708168035
9.11424446105957,2.1477890014648438,7.8450379371643075,0.05277626588940621,-0.2514303922653198,-0.2559175491333008
7.249813079833984,1.3464295864105225,8.39021396636963,-0.014704114757478239,0.12471650540828705,-0.04896028712391854
5.338342189788819,-0.14957073330879211,9.344022750854492,-0.05791367590427399,0.32486796379089355,0.08008214086294176
4.162786006927491,-2.072226047515869,9.607007026672365,-0.029176911339163784,0.31014758348464966,0.08463952690362932
4.13343095779419,-1.68237578868866,9.696009635925295,0.0022350111976265907,0.24276347458362582,0.028693018481135372
4.72380018234253,-0.6502693891525269,9.658083915710451,0.005722649395465851,0.21784628927707675,0.011102473363280296
4.762044429779054,-0.20517469942569735,9.651191711425781,-0.032848183065652854,0.23413847386837008,0.06613020598888397
4.390110969543457,-0.6564489006996156,9.809603691101076,-0.04722683504223824,0.21451306343078613,0.09938354045152666
3.9650440216064453,-1.0268265008926394,9.963114738464357,-0.04983536526560784,0.15103566646575928,0.10435023903846741
3.8017144203186035,-1.2805843353271484,9.971231460571289,-0.03491713479161263,0.05399157106876373,0.0654641017317772
4.211444854736328,-1.2548243999481201,9.76968288421631,-0.010444040410220625,-0.004910129588097335,0.02255837619304657
4.152041912078858,-0.9152308106422425,9.636938095092773,0.000856362166814506,-0.033508811146020896,-0.0008243105839937925
4.368286609649659,-0.6773261427879335,9.72249984741211,-0.018652819097042084,-0.07206506282091142,-0.002888167509809137
4.538601875305176,-0.9863203763961792,9.59962558746338,-0.028379730880260468,-0.08147501200437547,0.014961658045649529
4.533433437347413,-1.232180953025818,9.465787887573242,-0.011365313082933426,-0.08713877201080322,0.005103736650198699
4.547415256500245,-0.7427102327346802,9.581541061401367,-0.021081559360027313,-0.07642082124948503,0.020035993307828903
4.482208251953125,-0.8610085248947144,9.562252998352053,-0.039632320404052734,-0.07192351669073106,0.04737159982323647
4.593493461608887,-1.004992961883545,9.482218742370607,-0.01485741138458252,-0.07838962227106096,0.03276962786912918
4.613502502441406,-0.815260648727417,9.475195884704592,-0.012868726626038551,-0.06405667960643768,0.030815707519650463
4.54998779296875,-0.4494447112083435,9.586886405944826,-0.018050435930490494,-0.05158056691288949,0.04697740823030472
4.371227264404297,-0.8823574781417847,9.562180519104006,-0.029866000637412075,-0.06551285088062286,0.04709234833717346
4.493799686431886,-1.3343518972396853,9.374648094177248,-0.016321640461683273,-0.06040628626942635,0.0324016809463501
4.488887786865234,-1.1409574747085574,9.157648086547852,-0.012256636284291746,-0.04132309928536416,0.029896780848503113
4.101352214813233,-1.145111680030823,9.37705707550049,-0.007740100845694542,-0.05706239119172097,0.010951165109872818
4.059645175933839,-0.8420029878616333,9.803795814514162,-0.02395167201757431,-0.10185513645410539,0.003340244991704822
3.9195494651794434,-1.427751064300537,9.560810089111328,-0.00813271850347519,-0.143460288643837,-0.02341054379940033
4.35178279876709,-1.546156644821167,9.256927490234375,0.024373799562454224,-0.17750394344329834,-0.08585516363382341
4.558768749237061,-0.9313400387763978,9.225340843200685,0.03276054188609124,-0.16871413588523865,-0.11013799160718919
4.559832096099854,-0.28280225396156317,9.484681129455568,0.010099343955516815,-0.1704318076372147,-0.08708735555410387
4.212009429931641,-0.986577033996582,9.409157752990724,-0.01234711427241564,-0.18435078859329224,-0.07146620005369188
4.012750148773194,-1.2177115678787234,9.611152648925781,-0.007824904285371305,-0.23410882055759433,-0.10402727127075195
4.144687175750733,-1.676976203918457,9.500753402709961,0.03783339262008667,-0.2909649312496186,-0.1518450379371643
4.52741289138794,-1.1882777214050293,9.238917350769045,0.08354648202657701,-0.3312184810638428,-0.18825384974479675
4.46320676803589,-0.6420875787734985,9.52611827850342,0.10346223413944244,-0.36963692307472235,-0.18802684545516968
4.228991508483887,-0.392000675201416,9.635800361633303,0.09870250523090363,-0.4401419758796692,-0.15726538002491
3.74213194847107,-0.9824743866920472,10.056137084960938,0.09297563880681993,-0.567916989326477,-0.16066111624240878
3.826611042022705,-1.3573864698410036,10.10964584350586,0.12698611617088318,-0.765128791332245,-0.1905978173017502
3.680020809173584,-1.3981001377105713,9.935981750488281,0.19117817282676697,-0.9694494605064393,-0.24609452486038208
4.435035705566406,-0.4595254063606262,9.616754531860352,0.1911192536354065,-1.1624078750610352,-0.2712837755680085
4.674326419830323,-0.05186834931373596,10.096654891967773,0.1204417496919632,-1.332783102989197,-0.23176753520965576
3.519934415817261,-1.0353381633758545,10.397802352905273,0.17727366089820862,-1.4624584913253786,-0.2170539349317551
4.3742170333862305,-0.62713760137558,10.28907585144043,0.23421807587146762,-1.7290656566619873,-0.23771323263645175
4.198927402496339,-1.1507266759872439,10.004056930541992,0.2381493300199509,-1.964344382286072,-0.29577338695526123
4.461204051971436,-0.6115021705627441,9.77205562591553,0.20309035480022433,-2.229322910308838,-0.3386870920658112
5.332326889038086,-0.21015302836894992,9.829679489135742,0.14984813332557678,-2.435304403305054,-0.35258826613426214
5.016962528228761,-0.12339012324810028,9.786031723022461,0.09705410152673723,-2.6503424644470215,-0.36953762173652654
5.522086620330811,0.04755197465419769,9.689931869506836,0.03352547436952591,-2.872084140777588,-0.3891435563564301
4.750152587890625,-0.7334797978401185,8.967302322387695,0.040784422308206565,-3.145681858062744,-0.42574951052665716
4.942573070526124,-0.1487930417060852,9.1333703994751,0.26422667503356934,-3.6297919750213627,-0.507808029651642
5.75578498840332,-0.08897253125905992,9.41188144683838,0.4760708808898926,-4.143391132354737,-0.4752979874610901
7.843173027038574,-0.6045328974723817,10.552470207214357,0.6032744050025941,-4.563271045684815,-0.3643620014190674
9.741930961608888,-0.31745424866676336,12.225796699523928,0.5103230476379395,-4.723968029022218,-0.15326455235481262
12.832564353942873,-0.3580353260040283,13.444664955139162,0.12292970716953278,-4.715898990631104,0.06994646042585374
15.742659568786623,-1.623572587966919,13.426937103271484,-0.1311461329460144,-4.571988582611085,0.11920849978923798
22.07477569580078,-0.39222782850265503,14.146507263183594,-0.45064854621887207,-4.290536880493164,0.057228047400712974
26.61772727966309,-0.0886506736278534,10.270663261413576,-1.1310731172561648,-3.9961929321289062,-0.13675920665264132
28.291507720947266,-7.48620367050171,2.1027064323425293,-0.6941638588905336,-3.8218488693237305,-0.7224451303482056
32.22408676147462,-8.925100326538086,2.9747765064239506,1.006024241447449,-3.9669365882873535,-1.4406334161758425
30.474248886108402,-5.034636020660401,3.1724450588226323,2.515933752059937,-3.8275897502899174,-1.785552740097046
40.77472686767578,0.06370076537132263,12.257158279418945,2.5880806446075444,-3.904989242553711,-1.8484460115432741
35.75033187866212,3.2072007656097417,20.568408966064453,1.5990453958511355,-2.4372735023498535,-1.6516036987304688
25.22789764404297,3.8144168853759766,15.486507415771484,-0.003160471329465509,-1.611156940460205,-1.4451705217361452
19.86517333984375,1.4185808897018435,12.944390296936037,-1.1397789716720583,-1.2628523111343386,-1.4961042404174805
15.788145065307617,-1.53114652633667,11.157994270324709,-1.78495192527771,-1.2188495397567751,-1.5996761322021484
13.261704444885256,-5.939307689666749,11.02188014984131,-1.6882007122039795,-1.1525713205337527,-1.7790330648422243
11.008511543273928,-10.052743911743164,11.759976387023928,-0.6693865060806274,-0.975379765033722,-1.8768136501312256
8.717875480651857,-9.230587959289553,12.949366569519045,0.5624751448631288,-0.645585596561432,-1.7772016525268555
5.7798919677734375,-5.92568063735962,14.014924049377443,1.22129225730896,-0.1696380823850632,-1.523550033569336
2.556043386459351,-2.855658531188965,14.16727924346924,1.1533874273300173,0.45239853858947754,-1.1616621017456055
-0.6691244840621948,-2.3439986705780034,12.504524230957031,0.7235856056213379,1.1350122690200808,-0.8029108047485352
-5.105893135070801,-3.065323114395142,9.317253112792969,0.462512731552124,1.7062311172485352,-0.594164550304413
-8.39552116394043,-3.516249179840088,6.597197055816651,0.3668378293514252,1.9446930885314941,-0.4450592696666718
-9.857128143310547,-3.040399312973023,4.714728832244874,0.19681249558925631,1.9667468070983887,-0.22544103860855103
-10.239098548889162,-3.3685305118560795,4.165729999542237,0.08475592732429504,1.915504336357117,-0.002989206463098526
-9.470513343811037,-3.0984642505645756,5.074658870697022,-0.13865900039672852,1.9661426544189453,0.322137326002121
-8.852965354919435,-3.155801773071289,5.3764405250549325,-0.31973695755004883,2.1949226856231694,0.6661239862442017
-8.929052352905273,-2.9210400581359863,4.72319221496582,-0.4396899044513703,2.511843681335449,0.9503501653671265
-9.706227302551271,-2.265781164169312,2.633439064025879,-0.497595101594925,2.747591018676758,1.1843210458755495
-10.469483375549318,-0.7265768051147461,0.558509647846222,-0.5778176784515381,2.75563907623291,1.351389527320862
-9.696045875549318,0.29772630333900457,0.1702864319086075,-0.7712695002555848,2.6345996856689453,1.5090979337692263
-7.626918315887452,0.04849749058485031,1.3526158332824707,-0.8960031867027284,2.6178812980651855,1.6243278980255127
-5.308537960052491,0.048961713910102844,2.971728801727295,-0.837827205657959,2.808898210525513,1.6914606094360352
-3.3503963947296147,1.0283195972442627,3.840645551681519,-0.7537757754325868,3.149659872055054,1.752384901046753
-2.0523695945739746,2.0745363235473633,3.598416805267334,-0.7416921854019165,3.489455938339234,1.8012144565582275
-0.6041401624679565,3.268490552902222,3.2559890747070312,-0.7840309739112855,3.7222213745117188,1.7991559505462646
1.7360494136810303,4.324407100677491,2.937239646911621,-0.828144907951355,3.8808434009552006,1.6927385330200195
4.559544563293457,4.643468379974366,2.587307214736939,-0.7877053022384644,3.972108840942383,1.4502865076065066
6.900904655456543,3.9801931381225586,1.8039633035659792,-0.5350570082664491,3.99090576171875,1.0872355699539187
8.925032615661623,3.4652318954467773,0.6182253360748291,-0.1115543395280838,3.87958836555481,0.6754419207572938
10.748438835144045,3.24219822883606,-1.0216473340988161,0.28977212309837347,3.6159396171569824,0.36105522513389593
11.730099678039553,3.4239671230316167,-2.6754980087280273,0.5881168246269227,3.160509824752808,0.16735249757766724
13.631526947021484,3.6787805557250977,-2.4929974079132085,0.7174714207649232,2.63008451461792,0.04303492978215218
16.598491668701172,3.1289021968841557,-0.880940318107605,0.7383832335472108,2.2298970222473145,-0.0096021369099617
17.83012199401856,2.656618118286133,-1.0231554508209229,0.6283414959907533,1.9650301933288574,0.08498019725084306
17.501379013061527,1.1073869466781618,-2.3358240127563477,0.31386992335319525,1.63243305683136,0.46206188201904297
15.269040107727053,-1.3519375324249268,-5.906279563903809,0.014028053730726242,1.1473001241683962,1.0960514545440674
15.598936080932617,2.899998664855957,-11.259284973144531,-0.33540007472038275,0.17240458726882935,1.7397642135620117
94.91973876953125,24.937301635742188,30.2458667755127,-4.4937481880188,-2.6061487197875977,2.33714509010315
18.75830078125,18.20169258117676,-2.6693675518035893,-0.7769102454185487,4.464584827423097,0.18164542317390442
11.984789848327638,-14.210136413574219,11.868350982666016,-1.9920971393585205,2.027857065200806,1.4945387840270996
-3.985819578170777,4.061260223388672,16.700555801391605,-0.4163002371788025,3.2339599132537846,1.0331295728683474
-1.9133327007293701,-15.424859046936037,10.169800758361818,-0.07684237509965898,2.4836621284484863,-0.3023041784763337
-1.1386035680770876,-18.170490264892578,9.023915290832521,0.630778729915619,1.7186948060989382,-0.767690896987915
-0.22002458572387695,3.2287492752075195,15.412960052490234,0.7588061690330506,0.7863752841949463,-0.7280096411705018
1.2418928146362305,2.7514207363128667,12.22652816772461,0.38696286082267767,0.09702499210834503,-0.68216872215271
6.547550678253175,4.436884403228761,10.101933479309084,0.18015535175800326,-0.1430814564228058,-0.35761585831642156
7.124777793884277,2.0537023544311523,8.855164527893068,-0.017309684306383133,-0.05548681318759918,0.019234472885727886
6.66941785812378,-1.3306223154067995,8.113259315490724,-0.07781519740819932,0.2377479374408722,0.14351581037044528
5.055985927581788,-3.6965770721435547,8.35177516937256,0.04207057878375054,0.4075009226799011,0.045175060629844666
4.370583534240723,-1.3155367374420166,9.507496833801271,0.15035739541053772,0.4409299790859223,-0.0705956220626831
4.223933219909668,0.30578476190567017,9.991674423217773,0.11173672229051591,0.41761729121208196,-0.02674616128206253
4.394584178924561,0.8551736474037172,10.189102172851562,0.023413976654410366,0.3583965301513672,0.07510340958833696
4.185112953186035,-0.41773200035095215,9.89092540740967,-0.06418821960687639,0.30868470668792725,0.1479443907737732
4.002246856689453,-0.6610155701637269,9.91392707824707,-0.076973557472229,0.2278810888528824,0.13916528224945068
3.5445899963378906,-0.7741961479187012,10.176244735717773,-0.0850185751914978,0.12211588025093079,0.12167463451623918
3.712881088256836,-0.7951951622962953,10.185585021972656,-0.1072530820965767,0.003927635028958321,0.09584579616785051
4.0751752853393555,-0.7856625318527222,9.946835517883303,-0.1332051604986191,-0.08527101576328278,0.08049643039703369
4.402164936065675,-0.6322423219680786,9.75762939453125,-0.14318208396434787,-0.12794485688209534,0.09360709041357042
4.663703918457031,-0.5609490871429443,9.738677978515625,-0.15345437824726108,-0.14603213965892795,0.11219210922718048
4.478222846984863,-1.1406333446502686,9.500406265258789,-0.16389940679073337,-0.1358083188533783,0.12680824100971225
4.586795806884766,-1.0903654098510742,9.55625629425049,-0.14411112666130066,-0.12248662859201433,0.13524441421031955
4.364727497100831,-1.2954602241516113,9.486898422241211,-0.13307555019855502,-0.11516346037387848,0.11435840278863908
4.743360042572022,-1.4413468837738037,9.372032165527344,-0.12018901109695435,-0.08149565756320953,0.10822171717882158
4.860820770263672,-0.8716395497322084,9.386643409729006,-0.08392682671546936,-0.05326561257243157,0.10415637493133545
4.848190784454347,-0.7221534848213197,9.448917388916016,-0.08717501908540727,-0.014945650473237038,0.12562021613121033
4.706266880035401,-0.8127716779708862,9.42481327056885,-0.10185973346233368,0.005891252774745227,0.14106667041778564
4.683492183685304,-0.7562726736068726,9.4542932510376,-0.10739085823297502,0.02890121750533581,0.15829667448997498
4.381257057189941,-0.995795488357544,9.547062873840334,-0.12302899360656738,0.04287127777934075,0.16096660494804382
4.202773094177246,-1.0674159526824951,9.57063388824463,-0.14955447614192965,0.03052615374326706,0.1468866765499115
4.144431591033936,-1.5526779890060427,9.351511955261232,-0.1577020734548569,0.029550746083259583,0.13034601509571078
3.992408275604248,-1.6814343929290771,9.421350479125977,-0.13598985970020297,0.028305029496550563,0.11132556200027466
4.161709785461426,-1.8173646926879883,9.275689125061037,-0.12060186266899109,0.03138727322220803,0.0843210220336914
4.522808074951172,-1.7063672542572021,9.171812057495117,-0.07987232506275177,0.05209073796868325,0.051123317331075675
4.827095985412598,-1.1853053569793701,9.173871994018555,-0.04333067685365677,0.10935723036527635,0.044503554701805115
4.733366966247559,-1.2125188112258913,9.065879821777344,-0.02566460520029068,0.16601765155792236,0.061921451240777976
4.309218883514405,-1.0010852813720703,9.45498561859131,-0.018348053097724915,0.19613672792911532,0.08888721466064453
3.9260668754577637,-1.3619229793548584,9.339198112487795,0.0008510540355928243,0.18945565819740295,0.06172052025794983
3.649813175201416,-1.2022539377212527,9.52268695831299,0.015974124893546108,0.16174083948135376,0.03302693739533425
3.4454061985015874,-1.3763443231582644,9.785196304321289,0.027938524261116985,0.094355545938015,-0.0023610014468431473
3.174487590789795,-1.535792946815491,9.66134548187256,0.021200891584157944,-0.004282319452613593,-0.04636615514755249
3.3405039310455327,-1.3258126974105837,9.90651607513428,0.04804448038339615,-0.10971892625093461,-0.10750045627355577
3.4722166061401367,-0.8079794049263002,10.146122932434084,0.05253874137997628,-0.21510696411132812,-0.13954065740108493
3.374663591384888,-1.0642300844192507,9.979351043701172,0.009643756784498693,-0.3194084465503693,-0.1558912992477417
3.179198503494263,-1.299731969833374,9.968801498413086,0.00038474393659271305,-0.4485131502151489,-0.19855187833309176
3.838129281997681,-1.1979435682296755,10.034469604492188,-0.010305389761924744,-0.574634611606598,-0.22491233050823214
3.8106787204742436,-1.3678890466690066,10.08601188659668,-0.00012130570394219832,-0.6736928224563599,-0.26286754012107855
4.372696876525879,-1.6079156398773193,9.922731399536133,0.03722680732607842,-0.761893928050995,-0.33301466703414917
5.021432876586914,-0.5485230684280396,9.99849605560303,0.04781102761626244,-0.8485431671142578,-0.32758566737174993
4.151895523071289,-0.6134198307991029,10.106971740722656,0.029576225206255916,-0.9535845518112183,-0.28653568029403687
3.440638542175293,-0.8507520556449891,10.457128524780273,0.018612638115882874,-1.1766160726547243,-0.2582007050514221
3.6482911109924316,-1.16626513004303,10.210331916809084,0.03922229632735253,-1.5117818117141726,-0.23534893989562988
3.171356201171875,-0.7185732126235962,10.241519927978516,-0.015161681920289993,-1.8359881639480593,-0.21450364589691162
3.5795571804046635,-0.09872595965862274,10.679872512817383,-0.03810426220297814,-2.2320446968078613,-0.19889220595359802
3.5311324596405034,-2.2378571033477788,11.22649669647217,0.030272142961621288,-2.4457201957702637,-0.256355494260788
3.633281707763672,-1.131271004676819,10.40052890777588,0.11244471371173859,-2.8838748931884766,-0.32759913802146917
4.32447624206543,-0.9031463265419007,10.321741104125977,0.12652365863323214,-3.1811037063598633,-0.4081637561321259
3.6184322834014897,-0.7729539275169374,10.302896499633789,0.34774103760719305,-3.6672182083129883,-0.46188241243362427
4.475175380706788,-2.696402788162232,10.400426864624023,0.672869384288788,-4.249045372009277,-0.59820693731308
5.434803485870362,-2.4985568523406987,10.80167007446289,1.0230035781860352,-4.8657026290893555,-0.6801038384437562
8.097256660461428,-1.2218695878982546,12.603915214538576,1.0383816957473757,-5.2280073165893555,-0.5759764313697816
11.538114547729492,-1.8606656789779665,15.04432773590088,0.8476829528808594,-5.298155307769776,-0.482150286436081
13.945927619934084,-4.633527755737305,13.639205932617188,0.991383731365204,-5.180533409118652,-0.6093551516532899
22.261066436767578,-3.1387608051300053,14.758993148803711,1.4018185138702393,-5.169137001037598,-0.8439180254936219
32.04703903198243,-0.10869356989860535,14.144393920898438,1.2116225957870486,-4.705944061279297,-0.8629984259605409
31.516437530517578,-1.3721925020217898,8.40700912475586,0.8373880386352539,-4.0629334449768075,-0.7628633379936219
31.585641860961918,-2.105517148971558,8.960533142089844,0.8934010863304139,-3.4560999870300293,-0.7129083275794984
26.313699722290043,0.16313292086124423,5.564570426940918,0.7943275570869447,-3.444778680801392,-0.7082809209823608
38.53657531738281,-0.28304600715637207,19.018108367919922,-0.05586565658450127,-2.904114246368408,-0.6707972884178163
24.297594070434574,-1.3086903095245361,14.899683952331545,-0.5665456056594849,-1.7925583124160769,-0.5092851519584657
18.528907775878906,-1.2584505081176758,11.135541915893555,-1.1116281747817995,-1.6602075099945068,-0.5184918045997621
15.13559341430664,-1.5173046588897705,9.590658187866211,-1.2969632148742676,-1.739814281463623,-0.7426448464393617
12.528608322143555,-2.6129453182220463,8.842571258544922,-1.2882028818130495,-1.8632354736328125,-0.9791774153709413
12.191845893859865,-3.720247745513916,10.353194236755373,-1.050887107849121,-1.8395036458969118,-1.2240871191024782
11.313068389892578,-4.557538986206055,12.484067916870117,-0.6458542943000795,-1.5257248878479004,-1.3416527509689333
9.735157966613771,-4.204219341278077,13.657367706298828,-0.2962551712989807,-0.9902219772338867,-1.2772160768508913
6.306277275085449,-3.0691466331481934,12.684493064880373,-0.07517834752798082,-0.3525735139846802,-1.144508481025696
2.604169130325318,-2.4814660549163823,11.323354721069336,0.025206800550222397,0.16528601944446566,-1.0709859132766726
0.028602540493011475,-2.011923313140869,10.317543983459474,0.000989196007139981,0.537529468536377,-0.9800553917884828
-1.9587178230285645,-1.8810347318649294,8.752910614013672,0.006335096433758736,0.8973672389984131,-0.8986472487449647
-4.072954654693604,-1.5067095756530762,7.0971574783325195,0.05084639415144921,1.1948261260986328,-0.8741117119789125
-5.295951843261719,-1.270749807357788,6.42231321334839,0.056328114122152335,1.3820576667785645,-0.8527024984359741
-5.3164944648742685,-1.263857960700989,6.302432060241699,-0.0016603461699560287,1.5694422721862793,-0.7530872225761415
-6.352661609649659,-2.2655692100524902,5.358292102813722,0.03367724269628525,1.7627019882202148,-0.6630961298942567
-6.940606594085694,-2.5506019592285156,4.994672775268555,0.15976682305335999,1.8960791826248171,-0.5550700426101685
-6.912136077880859,-2.057002544403076,4.679297924041749,0.18552045524120334,2.049363613128662,-0.4090367555618286
-6.537957668304444,-1.3825911283493044,4.407448768615723,0.047252606600523,2.271777629852295,-0.2264613062143326
-6.863564968109132,-1.5337493419647217,3.167678594589234,-0.15992687642574313,2.5038120746612553,0.0011312030255794525
-7.545082092285156,-2.2710735797882085,1.7704306840896609,-0.26212856173515325,2.616212844848633,0.2276059836149216
-6.620809555053711,-2.2530713081359863,1.8133559226989746,-0.3130762577056885,2.6683566570281987,0.4747214019298554
-5.16297721862793,-1.8748840093612673,2.28865385055542,-0.39169806241989136,2.81814455986023,0.7499686479568481
-4.235564708709718,-1.7497690916061404,2.18153715133667,-0.48957869410514837,3.062644720077515,1.0289866924285889
-3.1792418956756596,-1.472722887992859,2.0441567897796635,-0.5561506748199463,3.2898590564727788,1.308814287185669
-2.114786863327027,-0.1704252064228058,1.678835391998291,-0.6397669315338135,3.510262250900269,1.5541304349899294
-1.3957579135894775,1.5363800525665283,0.7050150632858276,-0.8090311288833618,3.6489498615264897,1.7149760723114014
-0.23672941327095032,2.5140037536621094,0.09922759234905243,-0.9783657789230347,3.690876007080078,1.7278422117233279
1.7112150192260742,3.0013632774353027,0.8290943503379823,-1.011576056480408,3.672445774078369,1.5668438673019411
4.48914909362793,4.111640453338624,2.2881546020507812,-0.9690978527069092,3.7324998378753667,1.3098896741867068
7.5534868240356445,4.5981202125549325,3.0314841270446777,-0.9143509268760682,3.8954262733459473,0.9436861872673036
9.45040035247803,3.8873274326324467,1.882157564163208,-0.7075431942939759,4.019109249114991,0.4738662838935852
10.510329246520998,3.350703716278076,0.12338947504758836,-0.38598769903182983,3.908265352249146,0.02407771348953247
11.731369018554688,2.912566423416138,-0.9832189679145814,-0.13261117041110995,3.5599331855773926,-0.28318125009536743
13.710044860839844,1.9356908798217773,-0.7672365307807923,0.08646316826343536,3.1280610561370854,-0.39419859647750854
14.953352928161623,2.679156064987183,-0.9223127961158754,0.19108682870864868,2.7295079231262207,-0.3021651208400727
14.326495170593263,2.1921472549438477,-3.1811184883117676,0.09736189991235734,2.2886099815368652,-0.060568433254957206
10.449643135070803,0.4492159187793732,-8.144968986511232,0.018161509186029434,1.5617722272872927,0.4063880145549775
4.70929765701294,-0.4212386310100556,-13.099303245544435,-0.050290916115045554,0.3269197344779968,1.007113575935364
90.09366607666017,29.853281021118168,34.24711990356446,-4.5795793533325195,-4.035445213317871,2.358009576797486
35.75730514526368,33.56309127807618,3.054580926895142,-0.5453147888183594,6.813729763031007,-0.15958437323570251
14.801192283630373,-21.713434219360355,21.321582794189453,-1.5831983089447021,2.70000433921814,1.6940776109695437
-22.825689315795902,-2.8872845172882085,10.045215606689453,-0.2804913222789765,2.821127414703369,0.8736069798469545
-8.377222061157227,-14.067673683166506,15.604917526245117,-0.1514522582292557,0.49415203928947454,0.1342974305152893
-0.6523151397705078,-9.309444427490234,14.279388427734375,0.2713616788387299,-0.5350337028503418,-0.7935020327568055
4.826609134674073,1.1797373294830322,10.935671806335451,0.25295889377593994,-0.8804792761802674,-0.896479904651642
10.83559799194336,3.455665826797486,6.760986804962159,0.23764383792877197,-0.5814102292060853,-0.6068991422653198
10.043646812438967,4.251932621002198,7.006126880645753,0.11670633405447008,-0.0593843199312687,-0.17271018028259277
6.216605663299561,1.608840584754944,8.758976936340334,-0.0510694943368435,0.36681222915649414,0.13375203311443332
3.6958227157592773,-2.1961290836334233,10.049960136413576,-0.06628075987100603,0.42391544580459595,0.16947704553604126
2.979500055313111,-3.4157862663269043,10.018099784851076,0.02627173438668251,0.2565294802188874,0.031775474548339844
3.865273237228394,-0.4096750020980835,9.894353866577148,0.04699863120913506,0.13708572089672091,-0.05801880359649658
4.832732677459718,1.4069273471832275,9.993616104125977,-0.05366253480315209,0.08529023826122284,0.021408757194876674
4.896366119384766,0.2868451476097107,9.768115997314453,-0.17248331010341647,0.11097580194473267,0.1554194688796997
4.035593509674073,-1.0349056720733643,9.875858306884766,-0.20649001002311707,0.09307222813367845,0.19285079836845398
3.3321254253387456,-0.979875922203064,10.36939811706543,-0.22587913274765015,-0.03326305001974106,0.15764336287975314
3.5453474521636967,-1.1586436033248904,10.172834396362305,-0.22835811972618103,-0.1936941891908646,0.09844249486923218
4.245208740234375,-0.6177386641502381,9.93502426147461,-0.25273793935775757,-0.27744403481483465,0.08615014702081682
4.875239849090577,-0.25515243411064154,9.667683601379396,-0.29482045769691473,-0.28807276487350464,0.13162438571453097
4.682331085205078,-0.5362375974655151,9.426547050476076,-0.30743134021759033,-0.2920690178871155,0.1488938480615616
4.354131221771241,-0.9748308658599854,9.686699867248537,-0.324674129486084,-0.29997041821479803,0.15398097038269043
4.4438323974609375,-0.9905797839164735,9.729441642761232,-0.33384004235267645,-0.3362886905670166,0.15953215956687927
4.667889118194581,-1.2875933647155762,9.663558959960938,-0.34287792444229126,-0.36224362254142767,0.1392856240272522
4.659259319305421,-0.9130935668945312,9.537817001342773,-0.3618314266204834,-0.3442949652671814,0.16675792634487155
4.7806105613708505,-0.9558367729187012,9.552244186401367,-0.36315596103668213,-0.33299282193183904,0.17793434858322144
4.619183540344238,-0.9958220720291138,9.600780487060547,-0.3782705366611481,-0.31464046239852905,0.22694024443626404
4.633924961090089,-0.9737601280212402,9.668922424316406,-0.37996798753738403,-0.32621553540229803,0.24381041526794434
4.517216205596925,-1.436136603355408,9.44617557525635,-0.3792110085487366,-0.33606958389282227,0.22274114191532138
4.719722747802734,-1.372319221496582,9.357806205749513,-0.3746605217456818,-0.3240833878517151,0.2220634371042252
4.795401573181152,-1.162041425704956,9.23433017730713,-0.3706485331058503,-0.3097454905509949,0.2202191948890686
4.856977462768555,-1.7087892293930056,8.977577209472656,-0.3365636765956879,-0.28229957818984985,0.20341844856739047
4.769461154937745,-2.028316020965576,8.798005104064943,-0.2872276604175568,-0.22612650692462924,0.19798025488853455
4.883634567260742,-1.7103849649429324,8.888050079345703,-0.2534976005554199,-0.1968694180250168,0.1712852418422699
4.613696575164796,-2.01913332939148,8.952690124511719,-0.21402323246002197,-0.1402046233415604,0.16661961376667025
4.597587108612061,-2.309793472290039,9.074323654174805,-0.16249850392341614,-0.12338509410619737,0.1088549941778183
4.79351806640625,-2.475453615188599,8.814712524414062,-0.09966619312763214,-0.09111811220645905,0.052949238568544395
5.012165069580078,-2.0202832221984863,8.727074623107912,-0.056612994521856315,-0.03438796103000641,0.033564109355211265
4.9323468208313,-1.7008129358291628,8.967330932617188,-0.028383757919073105,0.0031050557736307387,0.02216724865138531
4.7185516357421875,-1.595121145248413,8.966444969177248,-0.02469485439360142,0.03431588411331177,0.024487564340233806
4.662353515625,-1.862640619277954,8.987037658691406,-0.026386165991425518,0.04085551574826241,0.011386768892407417
4.683832168579102,-1.7470879554748535,9.087749481201172,-0.015101994387805464,0.040289074182510376,0.004552088212221862
4.221797466278077,-1.8683156967163086,9.129252433776857,-0.013076809234917166,0.029790494590997696,-0.01171291247010231
4.385593414306641,-1.8488504886627197,9.237702369689943,-0.0037635273765772585,-0.025726810097694397,-0.03639373555779458
4.661070346832276,-1.3770998716354372,9.181498527526857,0.0009501874446868896,-0.04775293916463852,-0.05114701017737389
4.051671028137207,-1.1706550121307373,9.428556442260742,-0.002464329125359655,-0.09222093224525452,-0.04895379021763802
4.0779480934143075,-1.4060533046722412,9.398279190063477,0.004399146884679794,-0.1854462176561356,-0.07285732775926591
4.264667987823487,-1.522783398628235,9.62519931793213,0.01144306641072035,-0.2703225016593933,-0.0984070971608162
4.003883361816406,-1.681084394454956,9.658020973205568,0.0015054378891363742,-0.3648348152637482,-0.13122177124023438
4.295989513397218,-1.3030955791473389,9.931855201721193,-0.0444018691778183,-0.49390235543251043,-0.15934404730796814
4.605618476867676,-0.9981892108917236,9.898921966552734,-0.1308107078075409,-0.6064015030860902,-0.15722282230854037
4.016904830932617,-1.375257968902588,9.845256805419922,-0.17487376928329468,-0.7481946349143983,-0.13854041695594788
4.010784149169922,-1.1579012870788574,9.907844543457031,-0.20122878253459933,-1.007749915122986,-0.12258794903755188
3.8377151489257812,-1.480417609214783,9.665741920471193,-0.22379562258720398,-1.278414607048035,-0.12351132929325104
4.034444808959961,-0.2356606423854828,10.054909706115724,-0.2944463789463044,-1.5237009525299072,-0.1455640196800232
3.6578400135040288,-1.2247695922851562,9.763293266296388,-0.32773005962371826,-1.7990485429763796,-0.17015740275382996
3.848019599914551,-1.0496020317077637,9.987848281860352,-0.31074249744415283,-2.1453700065612793,-0.19205485284328463
4.39445686340332,-1.547526001930237,9.902767181396484,-0.318764477968216,-2.438866138458252,-0.23959894478321078
3.9842245578765874,-1.5538011789321902,9.700531005859375,-0.2810982167720795,-2.8131723403930664,-0.30081623792648315
4.3819475173950195,-2.675204277038574,10.033502578735352,-0.046362005174160004,-3.207373380661011,-0.3389855623245239
4.722321033477784,-0.38314908742904663,10.584263801574709,0.09859686344861986,-3.680787801742554,-0.371785044670105
4.669822216033936,-3.0644395351409917,10.472919464111328,0.22346423566341403,-4.239704132080078,-0.37365600466728216
6.045106887817383,-4.348584175109863,11.491229057312013,0.34125706553459173,-4.796500205993652,-0.3753923773765564
7.8130998611450195,-4.14390516281128,12.673846244812013,0.3885086178779602,-5.139208316802979,-0.3300635814666748
11.35293483734131,-5.141867637634277,14.554127693176271,0.4014857709407807,-5.127541065216065,-0.3983975648880005
15.449104309082031,-7.563085556030273,13.796533584594727,0.8614802360534668,-5.090154170989991,-0.6352661848068237
23.230718612670902,-6.812182903289796,16.05087661743164,1.5538438558578493,-4.88548469543457,-0.8465319871902466
28.973051071166996,-3.20987343788147,13.760583877563477,1.7852092981338503,-4.421660423278809,-1.0174440145492556
27.47505378723145,-2.564972400665283,6.652308940887452,2.0079545974731445,-4.0233306884765625,-1.362129092216492
29.622089385986328,-1.2880176305770876,6.571480751037598,2.2378664016723633,-4.160983562469483,-1.615248203277588
26.556427001953125,1.5078309774398806,3.5912406444549565,2.1913552284240723,-4.099290370941163,-1.8843070268630984
39.76757049560547,2.535365104675293,13.913699150085451,1.1495275497436523,-4.150558948516847,-1.9985737800598145
32.934528350830085,0.5934767723083496,18.689014434814453,0.18968744575977328,-2.541045427322388,-1.853731393814087
25.213699340820312,-0.4557919502258301,15.004924774169922,-0.9010990262031556,-1.8389506340026855,-1.6428798437118532
22.155014038085938,-2.366623878479004,13.913246154785156,-1.4517027139663699,-1.3775451183319092,-1.6252539157867432
17.137941360473636,-4.436643600463867,11.838714599609375,-1.6241375207901003,-1.1256723403930664,-1.6553989648818972
14.193226814270021,-6.761583805084229,11.223783493041992,-1.3312098979949951,-0.9217097759246826,-1.7175432443618777
10.691321372985842,-8.68671989440918,10.56881332397461,-0.4227072596549988,-0.6881473660469056,-1.7441542148590088
7.307216644287109,-7.91352415084839,10.373529434204102,0.5952543616294862,-0.4412339925765991,-1.6589393615722656
4.56617021560669,-5.633427619934082,10.529641151428224,1.1801241636276247,-0.15043801069259644,-1.4938143491744997
2.446834802627564,-3.6845498085021973,10.885193824768068,1.300783395767212,0.22789210081100464,-1.297047019004822
-0.17068737745285034,-2.7975676059722905,9.76293468475342,1.0981025695800781,0.7787382006645204,-1.0882220268249512
-3.559744358062744,-2.8915340900421147,7.448695182800293,0.842874586582184,1.2435369491577148,-0.9193856716156006
-6.210819721221925,-3.169619560241699,4.979744911193848,0.6324144601821899,1.4760266542434695,-0.7912734746932983
-8.077995300292969,-3.276521682739258,3.121424674987793,0.4742057025432587,1.4835993051528933,-0.6732139587402344
-8.142080307006836,-3.220139503479004,3.1355593204498295,0.24911347031593323,1.384169936180115,-0.4898165464401245
-6.426887035369874,-3.286832809448242,4.688589572906495,-0.07399270683526994,1.4655427932739258,-0.1789097785949707
-5.66429090499878,-4.3333282470703125,5.103944778442383,-0.2661415934562683,1.8311253786087038,0.1732279360294342
-7.245378971099854,-5.335999011993409,3.44167971611023,-0.19484652578830722,2.190642595291138,0.48401033878326416
-8.4695520401001,-4.468142509460449,1.4593213796615603,-0.08138420432806016,2.3188443183898926,0.7797916531562806
-8.45277500152588,-2.9099531173706055,0.5759543180465698,-0.145693376660347,2.3083744049072266,1.0675537586212158
-7.331521034240723,-1.879197120666504,0.8775988221168519,-0.3954260647296906,2.3265609741210938,1.3551086187362673
-6.196764945983887,-1.8928121328353884,1.180498242378235,-0.6155132055282593,2.467164993286133,1.6066304445266726
-5.507012367248535,-2.061807632446289,0.9343934059143066,-0.6537209749221802,2.663760900497437,1.7859883308410645
-4.887676239013672,-1.2223060131072998,0.39882841706275945,-0.6147567629814149,2.824152946472168,1.9425880908966064
-3.712350368499756,0.529108226299286,0.33290079236030584,-0.6897610425949097,2.9558126926422124,2.0904507637023926
-2.3599801063537598,1.745546817779541,0.3417343199253083,-0.8724576830863954,3.1073396205902104,2.1852235794067383
-1.4722608327865603,3.2022144794464116,0.3110729455947876,-1.015455722808838,3.243993997573853,2.158435344696045
0.8609136939048768,4.820119857788086,0.8224304914474487,-1.1889259815216064,3.3484289646148686,1.9652327299118044
4.784107208251953,3.4195601940155034,1.3769079446792605,-1.1828045845031738,3.4732363224029545,1.6053400039672852
7.274312973022461,2.1412248611450195,1.0410571098327637,-0.7329006791114808,3.5320785045623784,1.1759393215179443
9.005102157592773,3.004245519638062,0.5510218739509584,-0.25551614165306097,3.4627552032470703,0.7271972298622132
12.206692695617678,2.932847023010254,1.3901448249816895,-0.043592114001512534,3.3174667358398438,0.36274248361587524
15.568754196166992,1.6101583242416384,2.5740809440612793,0.12889145314693454,3.238900661468506,0.13467504084110263
18.141271591186527,0.35905316472053533,2.9337694644927983,0.37230396270751953,3.2373313903808594,0.03166687116026879
18.71745109558106,0.27421930432319647,1.4024300575256348,0.5804848074913026,3.174799919128418,0.09940219670534135
17.301500320434574,1.7293912172317507,-1.0896546840667725,0.542129397392273,2.848887205123902,0.30889603495597845
16.498773574829105,2.1579444408416752,-2.5084939002990723,0.25962927937507635,2.310194969177246,0.5691816210746766
15.519437789916992,1.6282459497451784,-2.8481748104095463,0.05215941369533539,1.7136549949645996,0.8122636675834657
13.997798919677734,1.5417861938476562,-3.2861552238464355,0.0010704845190048218,1.137259364128113,1.0192482471466064
7.537997245788574,2.970457077026367,-9.405876159667969,-0.08629297465085985,0.37293344736099243,1.1755716800689697
70.6802444458008,20.823461532592777,18.785814285278324,-2.322051525115967,-2.4456951618194585,0.6891670227050781
26.282634735107422,22.10605049133301,23.411466598510746,-0.7648478746414185,4.847237586975098,-0.38811394572258
8.611659049987795,-7.762706756591797,6.366241931915284,-1.478991985321045,1.8631709814071657,0.449526846408844
-1.5896096229553223,-0.6856498718261719,15.601533889770508,-0.36303430795669556,3.2370865345001225,0.7553651928901673
-4.078862667083741,-9.660221099853516,13.399120330810547,-0.014393668621778488,2.3402025699615483,-0.27253419160842896
-1.3813258409500124,-15.067088127136232,11.823654174804688,0.6617366671562196,1.2634552717208865,-0.7586169242858887
0.17685078084468844,4.167699337005616,14.533473014831545,0.5816885828971864,0.29839861392974854,-0.60854309797287
2.058588266372681,0.9682389497756958,10.89814853668213,0.3602583408355713,-0.29600015282630926,-0.6495938897132875
8.093129158020021,5.422501087188722,9.621334075927734,0.17346166074275973,-0.42143404483795166,-0.29854425787925726
7.351135730743409,1.8766855001449587,8.542219161987305,-0.07500346750020982,-0.19652606546878817,0.08956079185009003
5.805049419403077,-3.2835278511047363,8.064987182617188,-0.09843777120113373,0.04798087105154992,0.1316998302936554
4.582220077514648,-2.541796445846558,8.790514945983888,0.047374937683343894,0.11556769907474518,0.011983189731836319
4.202385425567628,-0.41860514879226685,9.83911991119385,0.03606785461306573,0.08094517886638641,-0.033413749188184745
4.667827129364015,0.7723330855369569,10.240714073181154,-0.0500858798623085,-0.022818859666585922,0.03392960503697396
4.789953231811523,0.14667245745658875,9.880164146423342,-0.17148576676845553,-0.07311858236789703,0.1452157944440842
4.566176891326905,-0.7554652094841005,9.570523262023928,-0.2305337339639664,-0.10432422161102295,0.18217915296554565
4.753843784332276,-0.9855910539627075,9.652743339538576,-0.25084093213081365,-0.16400066018104553,0.1738432198762894
4.4881086349487305,-1.240100383758545,9.552361488342287,-0.2514227628707886,-0.22086292505264282,0.13927753269672397
4.346266746520996,-0.8043299913406372,9.819516181945803,-0.26823365688323975,-0.3058253228664399,0.10556095838546753
4.40014410018921,-0.48590201139450073,10.043617248535156,-0.3437416851520539,-0.4073312282562256,0.12202721834182739
4.403455257415772,-0.6072343587875366,9.951653480529787,-0.41277477145195013,-0.5231269598007202,0.13286410272121432
4.479355335235597,-1.4267528057098389,9.628960609436037,-0.44785404205322266,-0.5938129425048828,0.18995802104473117
4.552929878234863,-0.42439043521881104,9.727104187011719,-0.4774490892887116,-0.7056503295898438,0.20392449200153354
4.526488780975343,-1.4673582315444949,9.086061477661133,-0.48874720931053167,-0.7622034549713135,0.20489317178726196
5.130263328552246,-1.0497844219207764,9.282584190368654,-0.5010359883308412,-0.8042042255401611,0.20376311242580417
5.092122554779054,-1.0872250795364382,9.045054435729982,-0.5141431689262391,-0.8317294716835023,0.20380598306655884
4.814142227172852,-1.3729023933410645,8.924084663391115,-0.5261443853378296,-0.862733542919159,0.19046595692634583
4.892799854278565,-1.7491058111190798,9.04010009765625,-0.49223163723945623,-0.8997375965118408,0.17396560311317444
4.75346565246582,-2.520519256591797,8.725573539733888,-0.39042264223098755,-0.9620355963706971,0.09746545553207397
4.75908088684082,-1.8616077899932861,8.76612186431885,-0.32418292760849,-1.0318963527679443,0.019956136122345928
5.427367687225343,-1.9558374881744385,8.713741302490234,-0.3037656545639038,-1.0499075651168825,-0.007056933827698231
5.620133876800538,-1.8894827365875244,8.722596168518068,-0.248497411608696,-1.049008846282959,-0.010168679058551788
5.403934001922608,-2.240736961364746,8.374982833862305,-0.15861351788043979,-1.0449516773223877,-0.0438649170100689
5.881217956542969,-2.071097612380982,8.46142101287842,-0.13378424942493441,-1.028771758079529,-0.05510019510984421
6.243704795837402,-2.0957837104797363,8.162705421447756,-0.08529742807149888,-1.001235008239746,-0.08914514631032945
6.233936786651612,-2.050743579864502,8.050443649291992,-0.07577060163021088,-0.9230350852012635,-0.07962920516729356
6.325149059295655,-1.7518757581710818,7.9802260398864755,-0.04667602851986886,-0.8601162433624268,-0.08488593250513078
6.687806129455566,-1.7467851638793945,8.014454841613771,-0.05273969843983651,-0.7604238390922547,-0.0601993128657341
6.403345584869386,-1.9474419355392458,7.860889911651612,-0.02992060594260693,-0.6716663837432861,-0.06814462691545488
6.745524883270265,-2.2511229515075684,7.539170742034913,-0.0013409330276772382,-0.5433900356292725,-0.0929955542087555
7.063133716583253,-2.096300840377808,7.687059879302979,0.031792853027582176,-0.3952363133430481,-0.10918933898210527
6.766786575317383,-2.02736759185791,7.4768128395080575,0.06965355575084686,-0.25792139768600464,-0.12537880241870883
6.5664944648742685,-1.7695059776306152,7.838353633880616,0.09696742147207262,-0.16248008608818054,-0.128233477473259
6.285699367523194,-1.6660842895507812,7.897318363189698,0.11471569538116455,-0.11402597278356554,-0.12911553680896762
6.414506435394288,-1.8110719919204714,7.976827621459961,0.1440197229385376,-0.0844019576907158,-0.14337527751922607
6.295357704162598,-1.752772569656372,8.02315425872803,0.159250408411026,-0.05988752096891403,-0.15736116468906405
6.036089420318604,-1.694239854812622,8.158596992492678,0.15921519696712497,-0.06811884045600891,-0.17634622752666476
6.1541714668273935,-1.473126292228699,8.346774101257326,0.15759068727493286,-0.08522266894578935,-0.18188346922397616
6.078930377960206,-1.1844569444656374,8.2916259765625,0.14788903295993808,-0.11938720941543579,-0.18967519700527194
6.083970546722413,-0.9069436192512513,8.51192378997803,0.12114311009645463,-0.15066988766193393,-0.18021902441978455
5.783514976501465,-1.3203375339508057,8.552143096923828,0.13781413435935974,-0.1920808702707291,-0.20259061455726624
5.829505443572999,-1.498276948928833,8.343778610229492,0.17608392238616943,-0.2556931674480439,-0.22744111716747287
6.089399337768555,-1.0469379425048828,8.546811103820803,0.18592078983783725,-0.3256075978279114,-0.22562830150127414
5.89075803756714,-1.5822280645370486,8.449254989624023,0.1820526570081711,-0.3787935674190522,-0.24072915315628052
5.730682849884034,-1.9540985822677615,8.578663825988771,0.220722496509552,-0.46752497553825384,-0.28837043046951294
5.496861457824707,-2.135325193405152,8.655175209045412,0.2645471394062043,-0.5987759828567505,-0.35397666692733765
6.050347805023194,-1.694573521614075,8.380996704101562,0.31817242503166204,-0.7195495367050171,-0.381469339132309
5.623817920684815,-1.38944673538208,8.92953395843506,0.35109925270080566,-0.8535555601119995,-0.39560499787330633
5.254732608795167,-2.1058053970336914,9.205629348754883,0.39926713705062866,-1.0608633756637575,-0.454711377620697
5.362797737121582,-2.307450771331787,8.95962429046631,0.5144586563110352,-1.3128465414047243,-0.5477411150932313
5.721380233764648,-1.0991771221160889,8.777013778686523,0.5737258791923524,-1.5637812614440918,-0.5999087691307069
5.7183990478515625,-1.0877183675765993,8.76707649230957,0.6154970526695253,-1.8277527093887331,-0.6077471971511841
5.672278881072999,-0.9795014262199403,8.803680419921875,0.6665629148483276,-2.1666657924652104,-0.6311496496200562
5.472771644592285,-1.6316766738891602,8.573267936706545,0.7366181015968324,-2.5964531898498535,-0.6654702425003052
5.929400444030762,-1.1858842372894287,8.61117935180664,0.8478853106498719,-3.0513739585876465,-0.7434377074241639
6.115228176116944,-0.8359408974647523,8.347160339355469,0.9038810133934022,-3.584725618362427,-0.8074899911880493
6.765735149383546,-0.3764883279800415,8.373377799987795,0.9211292266845703,-4.135548114776612,-0.8268688917160034
7.9659180641174325,0.6875864863395692,9.190023422241211,0.9007471203804017,-4.5960493087768555,-0.7503457069396973
10.88811779022217,1.286954998970032,10.007678985595703,0.743650257587433,-5.011885643005371,-0.4500098526477814
11.055233001708984,1.1273977756500244,10.693265914916992,0.49923220276832586,-5.155094623565675,-0.21379438042640686
13.591777801513672,0.24543437361717224,11.0528564453125,0.4395370185375214,-4.824784278869629,-0.1730349808931351
16.662843704223636,-0.4224544167518616,10.851896286010742,0.3830716609954834,-4.394999980926515,-0.1622625440359116
23.463624954223636,1.6973068714141846,11.568107604980469,-0.37607628107070923,-3.9906432628631596,0.24091264605522156
21.029058456420902,0.6523045301437378,8.442123413085938,-1.4275060892105105,-3.5860712528228764,0.42703479528427124
20.08867454528809,-0.2978088855743408,5.879362106323242,-2.3333652019500737,-3.446808338165283,0.2460920959711075
19.279277801513672,-4.258826732635499,-2.5696935653686523,-2.054054975509644,-3.74296236038208,-0.4532957077026367
19.675254821777344,-6.645848274230957,-7.767245292663574,-0.4329110383987427,-4.458531856536866,-1.5243115425109863
24.036703109741214,-3.3173553943634038,-3.7153866291046147,1.2736665010452273,-5.137712955474854,-2.405550956726074
23.420963287353516,0.6476708054542543,-2.7567520141601562,2.10491156578064,-5.480066299438477,-2.9068768024444585
31.582134246826172,4.453276634216309,1.7547339200973513,2.1639974117279057,-5.93448543548584,-3.508859157562256
33.987079620361335,4.527274131774902,12.485812187194826,1.587250351905823,-4.788763046264648,-3.700905084609986
25.126356124877933,5.091217994689941,9.718913078308107,0.4354864656925202,-3.641816854476929,-3.641533851623535
22.47177505493164,1.3953583240509033,9.582853317260742,-0.4409133195877075,-2.9690458774566655,-3.7455153465270996
