AccX,AccY,AccZ,GyrX,GyrY,GyrZ
2.7993743060505952e-05,-6.109908554208233e-06,6.294392369454728e-05,-3.3487144168731224e-09,-2.7814334657705336e-07,-1.705601277990354e-07
4.312030792236328,-0.868466079235077,9.650048255920412,0.0007748650386929512,-0.03429078683257104,-0.023320022970438004
4.265063762664796,-0.8899778127670288,9.599611282348633,0.0030795633792877197,-0.027082117274403576,-0.022155927494168285
4.260227203369141,-0.8848803043365479,9.644996643066406,0.00497290724888444,-0.024844195693731308,-0.023025510832667354
4.296598434448242,-0.9095020890235902,9.655244827270508,0.005663971416652203,-0.019139565527439117,-0.01935573108494282
4.262023448944093,-0.888506293296814,9.650593757629396,0.008938062936067581,-0.019307481124997142,-0.020156733691692352
4.2862915992736825,-0.8847380876541138,9.667844772338867,0.007435415871441364,-0.016360783949494365,-0.01983638666570187
4.232289791107179,-0.9183622598648071,9.621150970458984,0.008541971445083618,-0.011348455213010313,-0.021146170794963837
4.231393337249757,-0.8773162364959717,9.649991989135742,0.009901534765958786,-0.013822076842188835,-0.0229779314249754
4.234715461730957,-0.8386728763580322,9.699578285217287,0.008129091933369637,-0.014426897279918196,-0.018349267542362213
4.253724098205566,-0.8319234251976014,9.699604988098146,0.002524642972275615,-0.014867298305034637,-0.01699349656701088
4.279482364654542,-0.8521685004234315,9.651038169860842,0.0010196993825957181,-0.016897816210985184,-0.014101537875831129
4.276457786560059,-0.8718209266662598,9.667187690734865,-0.0009294937481172384,-0.016703920438885692,-0.012586209923028946
4.27445125579834,-0.9101940393447876,9.647590637207031,0.00021367460431065413,-0.015492258593440056,-0.011698917485773565
4.2614760398864755,-0.8805485963821411,9.632418632507326,0.004699067678302527,-0.01256505399942398,-0.014497792348265648
4.239572048187257,-0.8965483903884888,9.607889175415039,0.006012303289026023,-0.010375633835792542,-0.01646647043526173
4.215707302093507,-0.8820270299911499,9.646646499633789,0.006569316610693932,-0.013328179717063904,-0.01837088726460934
4.257975101470948,-0.9035869240760804,9.645684242248537,0.009694589301943779,-0.013352996669709684,-0.018321029841899872
4.260346412658691,-0.8535216450691224,9.677065849304201,0.010330844670534134,-0.01248323265463114,-0.018851099535822872
4.266053199768066,-0.8447675704956055,9.679065704345703,0.008262149058282377,-0.010676596313714981,-0.017041517421603206
4.263195991516113,-0.8624886870384217,9.654994010925295,0.008911927230656149,-0.008982320316135885,-0.013591988012194633
4.289543628692628,-0.8501439094543457,9.629691123962404,0.009337669238448143,-0.006548893172293902,-0.014625245705246925
4.271320343017578,-0.8956105709075928,9.601901054382326,0.011685798875987531,-0.0012034971732646227,-0.012909531593322754
4.273263454437257,-0.9097011089324951,9.649784088134766,0.014378399588167669,0.0033475360833108425,-0.015905024483799938
4.25428342819214,-0.9167941212654115,9.642955780029297,0.015105496160686018,0.007099652197211982,-0.017949838191270828
4.265848159790039,-0.9067647457122803,9.647967338562013,0.020208390429615978,0.012520648539066315,-0.021229216828942302
4.254549503326417,-0.896855354309082,9.655418395996094,0.02310599386692047,0.0149622755125165,-0.0228590089827776
4.214978218078613,-0.95203697681427,9.632753372192383,0.02862648852169514,0.013687558472156525,-0.025246953591704372
4.164484024047852,-0.7621560096740723,9.726397514343263,0.02405781112611294,0.00463187461718917,-0.02486451342701912
4.260429382324219,-0.8014126420021058,9.675442695617678,0.017275352030992508,-0.001913796295411885,-0.018313627690076828
4.24657964706421,-0.8091257214546205,9.657704353332521,0.014935894869267942,-0.0013370390515774488,-0.019333787262439728
4.239459037780762,-0.7702405452728271,9.658912658691406,0.013176395557820799,-0.0050727445632219315,-0.016837203875184063
4.239762306213379,-0.8137781023979188,9.692700386047365,0.007546359207481147,-0.005429220851510764,-0.013292230665683746
4.257488250732422,-0.8005197644233705,9.638603210449219,0.003945494536310435,-0.003455492202192545,-0.011353156529366972
4.22219181060791,-0.824859619140625,9.622003555297852,0.005020765587687492,-1.4769147128390616e-05,-0.00986368674784899
4.233241081237793,-0.8296349644660951,9.640050888061523,0.0018092094687744977,0.0012594559229910374,-0.00869265664368868
4.215337276458741,-0.761179029941559,9.689430236816406,-0.002162022283300758,-0.0027312480378896002,-0.0055688414722681046
4.2059340476989755,-0.8851120471954346,9.678401947021484,-0.006031186319887638,-0.0045942370779812345,-0.0036683366633951664
4.201313495635987,-0.9833735823631288,9.676986694335938,-0.0010785788763314486,-0.012537208385765554,-0.007289686705917121
4.202239990234375,-0.8605409264564515,9.705366134643555,0.0002896425139624626,-0.01771707832813263,-0.013025761581957342
4.28004026412964,-0.8023655414581299,9.643674850463867,-0.0010553766041994095,-0.017684675753116608,-0.009448909200727941
4.3036298751831055,-0.8134263753890991,9.629169464111328,-0.003057995112612844,-0.011305907741189003,-0.007017224561423064
4.269242286682129,-0.7996828556060791,9.649876594543459,-0.00016262604913208636,-0.003230887930840254,-0.00497144740074873
4.269448280334473,-0.8598496317863465,9.659122467041016,-0.0010404258500784636,0.0016953066224232318,-0.0025059818290174007
4.213552474975586,-0.9301493167877197,9.626535415649414,0.004642223473638297,0.005331586580723525,-0.009097535163164139
4.169249534606934,-1.2191246747970583,9.616519927978516,0.042259100824594505,0.008547164499759674,-0.03137611225247384
4.208529472351074,-1.1326764822006228,9.612645149230959,0.07373867928981781,0.013475024141371252,-0.05672240629792214
4.161613941192628,-0.9959564805030824,9.67507076263428,0.08144897967576982,0.017934754490852356,-0.06657353788614274
4.215519905090332,-0.7186580896377563,9.734701156616211,0.08264154940843584,0.028212355449795726,-0.0564296692609787
4.308610439300538,-0.816696286201477,9.68620491027832,0.0666758641600609,0.02052677795290947,-0.05915435031056405
4.218360424041749,-0.7874546051025391,9.683980941772461,0.06523923575878143,0.0175668727606535,-0.05638574436306954
4.269015789031983,-0.613943636417389,9.658781051635742,0.05727757513523102,0.018147377297282222,-0.05057720094919205
4.179995059967042,-0.5473497509956361,9.73983383178711,0.03902314230799676,0.01048038061708212,-0.03831188380718231
4.277338981628418,-0.5402584075927734,9.754373550415039,0.021102681756019592,0.0015787697630003097,-0.024081259965896606
4.227701663970948,-0.6783279776573182,9.68701171875,0.005908470135182143,-0.0007451530545949936,-0.009594254195690155
4.228302478790284,-0.7957355976104736,9.669502258300781,0.00026667639031074947,-0.0023641795851290226,-0.0065821423195302495
4.214264869689941,-0.9297931790351869,9.630182266235352,0.009812255389988424,0.003076282097026706,-0.010246260091662407
4.257683753967285,-1.0067557096481325,9.603960037231445,0.02945402078330517,0.014181891456246376,-0.02528525330126286
4.309865474700929,-1.0300514698028564,9.590912818908693,0.05440392717719079,0.032116688787937164,-0.038269683718681335
4.290674686431886,-0.9017412066459657,9.572086334228516,0.07426429539918901,0.05478417128324509,-0.049098912626504905
4.27762269973755,-0.7166938781738281,9.65266227722168,0.07593531906604767,0.07116015255451202,-0.045296858996152885
4.197997570037843,-0.7405691146850586,9.706091880798342,0.07277007400989532,0.07850774377584459,-0.039492636919021606
4.198705196380616,-0.7355546355247499,9.692654609680178,0.06819725781679155,0.07993181049823761,-0.035942018032073975
4.217863082885742,-0.7249001860618592,9.662734985351562,0.0673106461763382,0.08200152963399888,-0.03199547529220581
4.2250871658325195,-0.7397890090942383,9.683303833007812,0.06310383975505829,0.09248830378055573,-0.025956137105822567
4.10578203201294,-0.8384554386138916,9.682323455810547,0.06724490225315094,0.09753756970167161,-0.02633161097764969
4.110037326812745,-0.7789003252983094,9.781117439270021,0.06700894981622697,0.09111779928207397,-0.03120671957731247
4.139254570007324,-0.7100066542625428,9.79423713684082,0.06637279689311981,0.08584240823984148,-0.03195873647928238
4.075160503387452,-0.5545428991317749,9.830453872680664,0.05634103715419769,0.07701359689235687,-0.02952234633266926
4.084899425506593,-0.484825074672699,9.850282669067383,0.035583328455686576,0.056360915303230286,-0.020938808098435405
4.047606468200684,-0.49089890718460083,9.830368995666506,0.013183783739805222,0.0341380499303341,-0.009190713055431845
4.023041248321534,-0.43272656202316284,9.85511112213135,-0.007375758606940509,0.010485723614692688,-9.709530422696845e-05
4.082233428955078,-0.5734943151473999,9.838671684265138,-0.030673447996377945,-0.007400174625217915,0.009664767421782018
4.101006031036378,-0.6847666501998901,9.779664039611818,-0.037212222814559937,-0.018545934930443767,0.014629408717155457
4.15863037109375,-0.6387372016906738,9.761007308959961,-0.03914663940668106,-0.021564194932579998,0.014692082069814207
4.180590629577637,-0.7762117981910707,9.779306411743164,-0.035132721066474915,-0.01704771257936955,0.01270795427262783
4.130463123321534,-0.8263736963272095,9.697445869445803,-0.02048263140022755,-0.011085788719356062,0.006554784253239632
4.13214921951294,-0.8312386870384217,9.702432632446289,-0.011339813470840454,-0.012122486717998983,-0.00018667455879040062
4.103824138641358,-0.7648895978927612,9.66825580596924,-0.005038665607571602,-0.00655994424596429,-0.005800006445497275
4.064284801483155,-0.7558884620666504,9.724349975585938,-0.00565981911495328,-0.010255109518766403,-0.00925284717231989
4.087872982025147,-0.7099830508232118,9.759466171264648,-0.009255210869014265,-0.018209179863333706,-0.009894326329231262
4.125486850738526,-0.7023616433143617,9.71450424194336,-0.011489457450807096,-0.020504195243120193,-0.008743380196392538
4.1454434394836435,-0.6724480390548706,9.743659973144531,-0.016178522258996964,-0.01842089928686619,-0.005694884341210128
4.145378112792969,-0.7524905800819398,9.732131958007812,-0.01751535199582577,-0.018656466156244278,-0.0027434320654720072
4.149515628814698,-0.7256036996841431,9.710026741027834,-0.021023206412792206,-0.018422488123178482,9.737182153912728e-06
4.168556690216065,-0.7717823386192323,9.717968940734865,-0.01738976873457432,-0.010957319289445877,3.729091622517445e-05
4.1746840476989755,-0.7118680477142334,9.75799560546875,-0.01565442979335785,-0.0063092135824263105,-0.0013370580272749069
4.211909294128418,-0.7118353247642518,9.727944374084474,-0.012049727141857147,-3.0040673664188947e-05,0.002363971434533596
4.0567336082458505,-0.8160945177078247,9.677296638488771,-0.0084221251308918,0.006231189705431461,0.0026034142356365923
4.113654136657715,-0.7756552696228027,9.739541053771974,-0.00823489297181368,0.0003246110281907022,-0.003077801084145904
4.133427619934082,-0.6714685559272767,9.72189235687256,-0.009017783217132093,0.0019302286673337221,-0.0011772504076361656
4.135397911071777,-0.6562862396240234,9.667915344238281,-0.011950062587857246,0.004738645162433387,0.004294831305742264
4.128172397613526,-0.6326930522918701,9.738314628601076,-0.01780964806675911,0.0025665750727057457,0.010263913311064245
4.052084922790527,-0.7606484293937684,9.76614761352539,-0.0262091588228941,-0.004910942167043686,0.013719881884753706
4.079205036163331,-0.7050927281379701,9.77406406402588,-0.028457190841436386,-0.011776641942560674,0.01330335717648268
4.098998069763184,-0.619013011455536,9.773368835449219,-0.03731317445635796,-0.019065838307142258,0.01726179383695126
4.101909160614015,-0.7383536696434022,9.764527320861818,-0.04456865042448044,-0.020343825221061707,0.02259030751883984
4.076859474182129,-0.8513658046722412,9.690732955932617,-0.04031569138169289,-0.023678038269281387,0.017407046630978588
4.022630214691163,-0.9196194410324097,9.725727081298828,-0.03309426829218865,-0.026893828064203262,0.009439622983336449
4.132071495056152,-0.788108229637146,9.692626953125,-0.02941316924989224,-0.027745112776756287,0.004148983862251044
3.982270956039429,-0.7752044796943666,9.639598846435547,-0.028290413320064545,-0.027683787047863007,0.0011126574827358129
4.019059181213379,-0.6532767415046693,9.794987678527834,-0.042426828294992454,-0.04601719230413437,0.004758764524012805
4.000811100006104,-0.8444498777389526,9.789969444274904,-0.053099021315574646,-0.06425861269235612,0.003951714839786292
3.982975959777832,-0.9173523783683778,9.666274070739748,-0.044158950448036194,-0.07625064998865129,-0.005553167313337326
3.9497635364532475,-0.6840254068374634,9.760723114013672,-0.04975247755646706,-0.09729876369237901,-0.008463624864816666
4.002081871032715,-0.6441632509231567,9.768290519714357,-0.06549499928951263,-0.1230762228369713,-0.005032308399677277
3.892574548721314,-0.6556063294410707,9.747762680053711,-0.07271406799554826,-0.14819639921188354,-0.010100873187184334
3.8878991603851323,-0.7958983182907104,9.825584411621094,-0.07866664230823517,-0.18786258995532992,-0.013378126546740532
3.893089771270752,-1.0386154651641846,9.83848285675049,-0.04217810928821564,-0.22350481152534485,-0.0364643968641758
3.9207396507263184,-0.8386207818984985,9.923110008239748,-0.032221004366874695,-0.2638001143932343,-0.06331127882003784
3.9429209232330327,-0.5373625159263612,9.9163818359375,-0.03171315789222717,-0.3180516064167023,-0.06413289159536363
3.9758663177490234,-0.14842179417610168,9.964837074279787,-0.07762949168682098,-0.37787684798240667,-0.05053269863128662
3.9669833183288574,-0.4636810123920441,9.948424339294435,-0.11936100572347642,-0.45981922745704656,-0.037578023970127106
3.8634035587310795,-0.9833823442459106,9.839391708374023,-0.11603058129549028,-0.5421892404556274,-0.04611648991703988
3.4988222122192383,-1.0620582103729248,10.110492706298828,-0.08439986407756805,-0.6500352025032045,-0.07475344091653825
3.5725584030151367,-1.2655110359191895,10.028496742248537,-0.05007316172122955,-0.7984842658042909,-0.09166492521762848
3.5902099609375,-0.6041914820671083,10.16301155090332,-0.048426754772663116,-0.9770286083221436,-0.08026910573244096
3.2735831737518315,-1.3027477264404297,10.126678466796875,-0.02261330932378769,-1.168004870414734,-0.08714540302753448
3.5853183269500737,-1.2251498699188232,10.067098617553711,0.02931138500571251,-1.388111710548401,-0.11647558957338335
3.6567249298095703,-1.2519409656524658,10.124967575073242,0.08789244294166565,-1.5813306570053103,-0.14143681526184082
3.975878477096558,-1.095335125923157,10.276899337768555,0.11017969995737077,-1.7920676469802859,-0.1806483268737793
4.342421054840089,-1.0050303936004639,10.173663139343263,0.10919559746980669,-1.965240478515625,-0.24277897179126742
4.253330230712891,-0.9770398139953613,10.14162826538086,0.14635536074638367,-2.1247437000274663,-0.27884611487388616
4.712602615356445,-0.9221103787422181,10.527889251708984,0.17699538171291354,-2.3114867210388184,-0.27928701043128973
4.25003480911255,-1.245992660522461,10.471974372863771,0.18393129110336304,-2.5430779457092285,-0.28807744383811956
3.8044998645782475,-2.065459489822388,9.648208618164062,0.359613299369812,-2.8709223270416264,-0.41379255056381226
4.436419486999512,-2.0976116657257085,9.61328125,0.632357120513916,-3.243254899978638,-0.5789058804512025
5.161935806274414,-2.5724940299987793,9.477698326110842,0.9333335161209106,-3.6492025852203374,-0.741432785987854
5.760528087615968,-1.7819740772247314,10.206377983093263,1.188780188560486,-4.061396121978761,-0.8363635540008545
7.99987554550171,-1.2756757736206055,11.643284797668459,1.209639310836792,-4.378531932830811,-0.8886127471923828
10.507490158081055,-1.582665205001831,13.11073112487793,1.171573042869568,-4.427424430847168,-0.8939647674560547
11.265663146972656,-2.070380210876465,13.147244453430178,1.3184520006179812,-4.345202445983887,-0.9583024382591249
14.236971855163576,-1.0715837478637695,14.4849853515625,1.4588360786437988,-4.299737930297852,-0.948849380016327
18.164081573486328,-1.4376641511917116,15.306994438171388,1.6270506381988525,-4.057396411895753,-0.9712103605270386
23.72859382629395,-1.9146653413772585,14.294290542602539,1.784735918045044,-3.8262002468109135,-0.8669130206108094
24.081979751586918,-2.642554044723511,9.078641891479492,2.5393528938293457,-3.452175378799439,-1.136274814605713
27.387954711914062,-0.5819383859634399,10.25721549987793,3.438849925994873,-3.224241256713867,-1.229431986808777
24.47945594787598,3.816013813018799,7.763819217681886,3.769914865493775,-2.698364734649658,-1.1014603376388552
35.00006484985352,7.986669540405273,16.937206268310547,2.319584131240845,-2.579901695251465,-0.8485338687896729
28.25522232055664,3.657450914382935,18.69219779968262,0.8364703059196473,-1.4203040599822998,-0.48819962143898016
20.66103744506836,1.4407209157943728,14.058816909790039,-0.35897150635719305,-1.1288908720016482,-0.21603482961654663
17.68252944946289,-1.75590717792511,11.63271713256836,-0.9518828392028809,-1.245852828025818,-0.11247995495796204
14.473785400390625,-3.527211427688599,9.903445243835451,-0.9335343837738037,-1.453252673149109,-0.1313453167676926
12.810163497924805,-4.786926746368409,9.417058944702148,-0.5282414555549623,-1.6330742835998535,-0.2619712054729462
11.798174858093263,-4.845861434936523,9.781229972839357,0.056419689208269126,-1.6428567171096804,-0.4023752808570862
10.733247756958008,-3.641592025756836,10.958637237548828,0.4712751209735871,-1.5145032405853271,-0.4457074701786042
9.661234855651857,-2.2670884132385254,12.194540023803711,0.5225887894630433,-1.1865146160125732,-0.3507736921310425
8.251849174499513,-1.89058518409729,12.42787265777588,0.36428251862525945,-0.6647602319717407,-0.17380534112453463
5.330223560333253,-1.6074408292770388,11.053367614746094,0.18964953720569613,-0.10986498743295671,0.007769335061311722
2.479098320007324,-1.0730750560760498,9.38155746459961,-0.00032550713513046503,0.2974619567394257,0.13480797410011292
0.2795959711074829,-1.0273100137710574,7.150888919830323,-0.15703760087490085,0.6203527450561523,0.22919422388076782
-1.2023391723632812,-1.4715807437896729,5.55133056640625,-0.13657720386981967,0.8140343427658081,0.27179780602455145
-1.4573687314987185,-0.7564472556114198,5.45117998123169,-0.11330843716859819,0.9315317273139955,0.36796313524246216
-0.4710502028465271,-0.3219602108001709,6.2543396949768075,-0.15249565243721008,1.2100361585617068,0.49510353803634644
-1.7398771047592165,-0.7429139614105225,4.984327793121339,-0.11386828124523163,1.6365319490432741,0.5637606978416444
-4.050673007965089,-0.8378153443336488,2.671056985855103,0.10222377628087999,1.8586301803588867,0.5305055975914003
-5.611987113952637,-0.09374604374170305,1.272787094116211,0.22582712769508362,1.8260791301727295,0.45802554488182073
-5.015206336975098,0.9685860872268677,1.848455309867859,0.09127165377140045,1.763554930686951,0.41673678159713745
-4.020339012145996,0.581010401248932,2.7761316299438477,-0.1743747591972351,1.9101818799972536,0.4246553480625153
-4.248258590698242,-0.6276805400848389,2.466157913208008,-0.31435471773147583,2.1910569667816167,0.4253210425376892
-4.647247791290284,-0.8424835205078125,1.8207715749740603,-0.32931458950042725,2.414883613586426,0.42224505543708807
-4.240117549896241,-0.6359464526176454,1.677062749862671,-0.37861767411232,2.617703914642334,0.45369395613670355
-4.3191118240356445,-0.3370315432548523,1.0464607477188113,-0.4818298518657685,2.8072009086608887,0.5222235918045044
-4.345258712768555,-0.5003787279129028,0.466622143983841,-0.5922480821609497,2.9221093654632573,0.6287356615066528
-3.62120795249939,-0.543350338935852,0.6183756589889526,-0.6605429649353027,3.003386974334717,0.7519363760948182
-2.210122346878052,-0.32392555475234985,1.3462488651275635,-0.7255376577377319,3.139482736587525,0.9021856784820557
-1.4350450038909912,0.9774501323699951,1.3710219860076904,-0.8098070025444032,3.3229875564575195,1.0739545822143555
-0.5340459942817689,2.4642546176910405,0.7589508891105653,-1.0080056190490723,3.429740190505982,1.174394130706787
1.0765111446380615,2.3542387485504155,0.37044060230255127,-1.1294856071472168,3.452281951904297,1.140578627586365
2.2989182472229004,1.9661108255386355,0.5300481915473939,-0.9848472476005555,3.4169921875,1.0216239690780642
3.6849493980407715,3.388040065765381,1.8554869890213015,-0.8415209054946899,3.372656583786011,0.8899942040443422
5.700305938720703,4.137012958526612,2.8838813304901127,-0.8489511609077455,3.430069923400879,0.7442470192909242
6.998394489288331,3.820622444152832,2.6635231971740723,-0.7980734705924989,3.475162744522095,0.5697855949401855
8.499149322509766,2.928776025772095,2.2944104671478276,-0.6200647950172425,3.3910436630249023,0.38686147332191473
10.607350349426271,2.6091778278350835,2.2694604396820073,-0.37394189834594727,3.2143490314483647,0.32640442252159124
12.03258800506592,2.666541576385498,2.0626087188720703,-0.2203125506639481,2.9482460021972656,0.4110415875911713
13.754430770874023,2.9449291229248047,2.759401321411133,-0.16555754840373996,2.589737176895142,0.5818445682525635
15.232296943664553,3.3281953334808354,3.0523014068603516,-0.14370633661746982,2.274069309234619,0.7390863299369813
15.529616355895998,2.7971384525299077,2.3770322799682617,-0.008051660843193533,1.9394242763519287,0.7751069068908691
15.198604583740234,3.3462765216827397,1.4337384700775146,0.19678692519664767,1.5011579990386963,0.7208939194679261
14.004658699035646,3.9043359756469727,0.06519196182489397,0.34509524703025823,1.0314801931381228,0.59678053855896
10.899184226989748,3.2585613727569585,-2.397193431854248,0.546488881111145,0.48302736878395086,0.3949013352394104
7.402024745941163,2.3317000865936284,-5.460949897766113,0.8463587760925293,-0.22728003561496737,0.24396066367626193
59.36750793457031,25.891393661499027,26.85116195678711,-2.2415769100189213,-3.1400208473205566,1.2233053445816042
45.94733428955078,2.9663064479827885,29.41178703308106,-1.637510418891907,4.384498119354249,0.042158342897892
0.943845272064209,-7.4412126541137695,10.615542411804201,-0.5971418619155884,1.8711279630661013,0.8718926906585693
-8.031905174255373,-5.947983741760254,13.100408554077148,-0.42410299181938177,2.0423741340637207,0.9126821756362915
-9.18946933746338,-1.6283588409423828,12.960621833801271,-0.17765051126480103,-0.07280633598566057,0.09680062532424927
0.5206311941146851,-9.50554943084717,12.439109802246094,0.08680730313062669,-0.6055548787117006,-0.8459043502807617
6.281492233276367,-3.462174415588379,9.691517829895021,0.18086113035678866,-0.7329714298248291,-0.7290269732475282
9.34492301940918,7.338413238525391,8.610122680664062,0.14102511107921603,-0.4755408763885498,-0.4474484920501709
8.965548515319826,2.051745891571045,7.891212940216065,-0.057976331561803825,-0.03008922189474106,-0.12405280023813249
6.297328472137452,0.051247239112854004,8.846887588500977,-0.13522727787494662,0.30527195334434515,0.09762752056121826
3.954651355743408,-1.4564675092697146,9.84078884124756,-0.16240498423576355,0.37224933505058294,0.11899101734161377
3.3318591117858887,-2.2072713375091557,10.093801498413086,-0.12140341103076935,0.2346291095018387,0.04261858388781548
4.059391498565675,-1.012028455734253,9.844642639160156,-0.10375113040208818,0.12206599116325378,-0.00549012003466487
4.526416301727296,0.43361157178878784,9.981834411621094,-0.1666056513786316,0.05729145556688309,0.0371956191956997
4.435664653778077,0.015349581837654114,9.994586944580078,-0.2587454915046692,0.03254741802811623,0.14996877312660217
4.226093769073487,-1.3854422569274902,9.85171127319336,-0.25293919444084173,-0.03562939912080765,0.15891093015670776
3.9695229530334473,-1.7095770835876465,9.845431327819826,-0.21411679685115817,-0.10815136134624481,0.09646507352590562
4.210567474365234,-1.0981634855270388,9.857643127441406,-0.19636672735214233,-0.17472252249717712,0.05797428265213967
4.548049449920655,-0.5467593669891357,9.784561157226562,-0.21424324810504916,-0.2164849042892456,0.06448166817426683
4.879565715789796,-0.5250310897827148,9.624958038330078,-0.24345487356185913,-0.21685518324375155,0.1026783660054207
4.25523328781128,-0.9056836962699891,9.472403526306154,-0.25397577881813055,-0.23001113533973694,0.11590442806482316
4.384156227111816,-0.9640935063362123,9.76991081237793,-0.268962174654007,-0.2638703286647797,0.10480993986129761
4.09379529953003,-0.7774433493614198,10.04711437225342,-0.28109160065650945,-0.3108786344528198,0.12406300753355028
4.1410017013549805,-1.4066632986068728,9.76689338684082,-0.25567284226417547,-0.39910125732421875,0.08167935907840729
4.312538623809815,-1.0577170848846436,9.728729248046875,-0.2509595453739167,-0.44446736574172974,0.1029828116297722
4.151677131652832,-0.5441427230834961,9.5645227432251,-0.3050037324428559,-0.5146570801734925,0.10549698770046234
4.345027923583984,-0.8626604676246644,9.557770729064943,-0.33786654472351074,-0.5907934308052064,0.11627332866191864
4.120678901672363,-0.7327560186386108,9.603363037109375,-0.3811576068401337,-0.6964198350906372,0.12682905793190002
4.261231422424316,-1.2068066596984863,9.624699592590334,-0.4138199985027314,-0.8042463064193726,0.10238445550203325
4.529897689819336,-0.6295578479766846,9.743955612182617,-0.4616215527057648,-0.9134666323661805,0.11359408497810364
4.583686351776124,-1.252305507659912,9.255064010620117,-0.4542341530323029,-1.007270336151123,0.1350236386060715
4.793863296508789,-0.9542664885520936,9.14110851287842,-0.4666488766670227,-1.09991729259491,0.1718777567148209
4.858890056610108,-1.4224917888641357,8.950881958007812,-0.44116586446762085,-1.1745077371597292,0.18901079893112183
4.742401599884034,-1.6178368330001833,8.943793296813967,-0.42858076095581055,-1.2415056228637695,0.17368026077747348
5.36737871170044,-2.0349135398864746,8.642323493957521,-0.40503990650177,-1.267498850822449,0.15618419647216797
5.4926209449768075,-2.128222942352295,8.472909927368164,-0.3404280245304108,-1.2575092315673828,0.1255287528038025
5.423180103302003,-2.205651998519898,8.465926170349123,-0.3049485683441162,-1.235122323036194,0.09102542698383331
6.025477886199952,-2.329776525497437,8.193404197692873,-0.2879365086555481,-1.1465375423431396,0.05507162585854531
6.516268253326417,-2.5455067157745366,7.8602752685546875,-0.2165435552597046,-1.0357090234756472,0.013207687065005302
6.630744457244874,-1.948331952095032,8.083373069763185,-0.17856350541114807,-0.8837082982063295,0.0048010372556746015
6.298546314239503,-2.0859215259552006,7.815007686614991,-0.1499285846948624,-0.7449856996536255,-0.00024806617875583475
6.533180236816406,-2.3925790786743164,7.900190353393555,-0.08431069552898407,-0.5953308343887329,-0.04058748111128808
6.354754924774171,-2.8000490665435795,7.709776401519776,-0.0027595749124884605,-0.4568003118038178,-0.08760108053684235
6.304713249206543,-2.308828353881836,8.021424293518068,0.04987889900803567,-0.38502687215805054,-0.11964434385299683
6.258135318756104,-2.215452194213867,8.041210174560547,0.07815326750278473,-0.329139918088913,-0.14370715618133545
6.153530120849609,-2.027064323425293,8.020329475402834,0.09753865003585815,-0.2877463102340698,-0.16654668748378756
6.178833484649659,-1.896428942680359,8.129255294799805,0.11154844611883165,-0.2583507299423218,-0.1858613044023514
6.324106216430664,-1.6834874153137207,8.11686897277832,0.1263297647237778,-0.22934392094612122,-0.1951274871826172
6.14167070388794,-1.103098511695862,8.45017719268799,0.11546585708856584,-0.20928287506103516,-0.17601619660854342
5.845847129821777,-1.2722650766372683,8.499684333801271,0.09964245557785034,-0.21972182393074036,-0.1627343147993088
5.737757205963136,-1.6031603813171387,8.30174446105957,0.11521543562412262,-0.2558895647525788,-0.18532884120941162
5.8136091232299805,-1.4233152866363525,8.553952217102053,0.14627748727798462,-0.30838885903358465,-0.21425144374370578
5.766608715057374,-1.7755215167999268,8.46102809906006,0.18096080422401428,-0.3489030301570893,-0.2560710310935974
5.577589511871339,-2.1926074028015137,8.365362167358398,0.22797593474388123,-0.41007089614868164,-0.30635723471641546
5.982806682586671,-1.7803630828857422,8.055426597595217,0.25587254762649536,-0.491158813238144,-0.34536969661712646
6.3076796531677255,-1.4025063514709473,8.185116767883303,0.2636124193668366,-0.5522183179855347,-0.3783000111579895
5.87100648880005,-1.1153444051742556,8.637862205505373,0.23614899814128879,-0.608483076095581,-0.37984308600425726
5.336383342742921,-1.4864770174026491,9.012379646301271,0.2368764877319336,-0.7291262149810791,-0.4147706329822541
5.438956737518311,-1.8892468214035036,8.734342575073242,0.2875251471996308,-0.8980234861373901,-0.4790454804897309
5.892668247222901,-1.158482551574707,8.602514266967773,0.32222723960876465,-1.0515078306198122,-0.5062398314476014
6.098032474517823,-0.7646930813789369,8.632226943969727,0.3325510025024414,-1.167471766471863,-0.5031782388687134
5.622933864593507,-1.8010390996932986,8.696374893188477,0.4013466238975525,-1.3068878650665283,-0.5443827509880067
6.228359222412109,-1.5745785236358643,8.69026279449463,0.48531648516654974,-1.4928276538848877,-0.5659105181694032
5.732187747955323,-1.3659421205520632,8.645174980163576,0.5578749775886537,-1.7227423191070557,-0.5728352069854736
5.6984925270080575,-1.5199408531188965,8.551267623901367,0.6294348239898682,-2.013731718063355,-0.5778855085372925
5.450582504272461,-1.540875554084778,8.628323554992678,0.7174752950668335,-2.3927998542785645,-0.6100321412086488
6.030401229858398,-0.7565748095512391,8.642842292785646,0.7979596853256226,-2.9447324275970463,-0.6533539295196533
5.630569934844972,-1.0192608833312988,8.651133537292482,0.847240686416626,-3.526540040969849,-0.7081837058067323
7.723620891571046,-0.0972260981798172,8.98193359375,0.8504762649536133,-4.173105716705323,-0.6406991481781006
7.557766914367676,0.4978878796100617,9.417626380920412,0.7157444953918457,-4.8185577392578125,-0.3872613608837128
8.704645156860352,0.9134238362312318,10.478865623474123,0.565386474132538,-5.4474382400512695,-0.15002243220806125
10.009570121765138,1.0432908535003662,11.402733802795412,0.3202033936977387,-5.698336601257324,0.012438669800758362
13.244351387023928,0.3458687663078308,11.415353775024414,0.1427058130502701,-5.394767761230469,0.03179911896586419
16.92036628723145,0.09890630841255188,11.161086082458498,0.19539086520671847,-4.788280963897706,0.0066839903593063354
23.432514190673828,-2.1072828769683842,10.810957908630373,0.06321047991514207,-4.054245948791504,0.09430175274610521
23.64981460571289,-2.19055724143982,8.432506561279297,-0.28096494078636175,-3.2378668785095215,0.27214908599853516
21.33291816711426,0.20082658529281616,4.976912021636964,-0.8115390539169312,-2.347251653671265,0.12782442569732666
16.270170211791996,-2.891124486923218,-3.9025595188140874,-0.7340887188911439,-2.350277185440064,-0.4817770719528198
19.99462127685547,-2.5694851875305176,-3.942542552947998,0.15137958526611328,-2.7581269741058354,-1.2641441822052002
20.87368965148926,0.31771838665008545,-4.557363986968995,1.0447853803634646,-3.101799964904785,-2.03615665435791
20.70861053466797,1.8458150625228884,-5.024235248565675,1.6138097047805788,-3.5370030403137207,-2.74835753440857
26.507381439208984,4.555377483367921,-0.7280710935592651,1.9211432933807373,-4.290981292724609,-3.645821332931519
28.996778488159183,5.392168045043945,9.924180030822756,1.336057424545288,-4.043692111968995,-4.029729843139648
22.77322769165039,5.117401599884034,7.908735275268555,0.3597947359085083,-3.612491846084595,-4.152106761932374
22.21102333068848,2.580049991607666,9.336320877075195,-0.4225305020809174,-3.4522409439086914,-4.274688243865968
18.14435577392578,-0.5896204710006714,9.537986755371094,-0.8929442167282104,-3.2019238471984863,-4.246458530426026
16.551256179809574,-3.9703269004821777,10.781853675842287,-1.0101497173309326,-3.012881994247437,-4.113324165344238
16.027318954467777,-7.194885730743409,12.628913879394531,-0.6394219398498535,-2.5987989902496342,-3.785463094711304
14.945981979370117,-8.049568176269531,14.619774818420412,-0.0016967449337244034,-1.8993009328842165,-3.3371849060058594
12.498660087585451,-7.866905689239503,15.534304618835451,0.6283669471740723,-0.8806654214859009,-2.828776597976685
9.145462036132812,-6.907819271087647,15.12730598449707,1.0168803930282595,0.16206979751586914,-2.3730404376983647
4.927860260009766,-4.997724056243897,14.032169342041016,1.0887694358825684,0.9752703309059144,-2.0348579883575444
0.6879290342330933,-3.9076497554779057,11.75408935546875,0.8373795151710511,1.462461233139038,-1.7552925348281863
-2.8314895629882812,-3.7219905853271484,9.647616386413576,0.4262159466743469,1.5813679695129395,-1.518496870994568
-5.301059722900391,-4.189781665802003,7.837663173675538,0.05440586060285568,1.557321906089783,-1.3267245292663574
-6.02884578704834,-4.4482178688049325,7.002685546875,-0.2462940961122513,1.4739141464233398,-1.106353521347046
-5.59010934829712,-4.916326045989991,7.037189960479737,-0.4934672713279724,1.4158886671066286,-0.7836626768112183
-4.3209195137023935,-5.787688732147218,7.646291732788086,-0.6430099606513978,1.4772013425827029,-0.38325613737106323
-3.5741040706634526,-6.487791061401367,8.361656188964844,-0.5778450369834901,1.7017748355865479,0.05120446905493737
-3.1288669109344487,-5.716242790222168,9.030750274658203,-0.4982810616493225,2.0310456752777104,0.5226001143455506
-2.713724136352539,-4.539714813232422,9.575637817382812,-0.5598459243774414,2.429345846176148,0.996282696723938
-2.578395366668701,-3.374999284744263,9.390352249145508,-0.7317016124725342,2.867330551147461,1.4006780385971072
-2.909244298934937,-1.9840564727783203,8.739534378051758,-0.99273818731308,3.2482528686523438,1.706613898277283
-2.835333108901978,-0.9843333959579468,8.027867317199709,-1.3256620168685915,3.5416789054870605,1.932983160018921
-2.325021266937256,-0.44214606285095215,7.568180084228516,-1.598116755485535,3.7924909591674805,2.0571238994598393
-1.9007365703582764,-0.1522391438484192,7.095865726470948,-1.7782477140426638,3.982904672622681,2.0961666107177734
-1.278662919998169,0.17019192874431613,6.9390716552734375,-1.8468708992004395,4.124070644378663,2.0559911727905273
-0.6311655044555664,0.597675085067749,7.027575016021729,-1.8677053451538086,4.232279300689698,1.9629272222518923
0.22194534540176392,1.5569987297058105,7.810650348663331,-1.9419317245483398,4.31551218032837,1.850306749343872
1.8584135770797732,2.4050810337066655,9.180334091186523,-2.1206440925598145,4.457935333251953,1.715797543525696
3.264944553375244,2.9092535972595215,10.238910675048828,-2.3402550220489506,4.715797424316406,1.5266014337539675
3.9946615695953374,3.008850574493408,10.496401786804201,-2.5197691917419434,4.990808963775636,1.2907968759536745
4.723721981048585,3.2285397052764897,10.666208267211914,-2.6631813049316406,5.191043376922608,1.058157205581665
5.636347770690918,4.085134029388429,10.927248001098633,-2.8201889991760254,5.312691688537598,0.844772756099701
6.921160221099854,4.9541473388671875,10.922749519348146,-3.0534498691558842,5.376795768737793,0.6388028264045716
8.000782966613771,5.2513275146484375,11.084630966186523,-3.2586743831634526,5.360782623291016,0.4052806496620178
9.212082862854006,6.120299339294434,11.28692150115967,-3.396054267883301,5.266275882720948,0.11478784680366516
10.396146774291992,7.265780448913574,11.345776557922365,-3.5807766914367676,5.086757659912109,-0.24005733430385592
11.33238410949707,8.510701179504396,11.551454544067383,-3.8384468555450444,4.7943620681762695,-0.6758781075477601
12.871533393859865,9.265342712402344,12.380800247192383,-4.137015819549561,4.438749313354492,-1.2288618087768555
14.47002696990967,9.334300994873047,13.13213634490967,-4.346335887908936,4.087246894836426,-1.8807927370071413
16.715621948242188,9.843927383422852,14.211560249328615,-4.4855852127075195,3.748359203338623,-2.4829075336456303
19.021356582641605,10.661438941955568,15.036603927612305,-4.666563034057617,3.50806212425232,-2.8887252807617188
19.538705825805668,12.434649467468263,13.834671020507812,-4.97437858581543,3.348370790481568,-3.059038877487183
18.886976242065433,14.487829208374023,11.756960868835451,-5.427400588989258,3.0897567272186284,-2.9978175163269043
18.039190292358402,15.45948886871338,9.77812385559082,-5.761743545532227,2.763887405395508,-2.7912743091583256
16.932662963867188,14.54036045074463,8.386178970336914,-5.599263668060304,2.4443883895874023,-2.550491571426392
15.574925422668459,11.766080856323242,7.2631897926330575,-4.716180324554444,2.127408027648926,-2.389556407928467
14.185907363891602,9.973076820373537,5.415461063385011,-3.3114554882049565,1.7405378818511963,-2.3228404521942143
13.928925514221193,10.926666259765625,2.5685026645660405,-1.9858611822128298,1.3076487779617312,-2.218747615814209
15.521700859069826,11.196290016174318,-0.8395198583602905,-1.1521693468093874,0.929236650466919,-2.0117352008819585
16.544719696044922,10.668355941772461,-4.422591209411621,-0.632247805595398,0.5165699124336244,-1.7477389574050906
16.55795478820801,10.376872062683107,-6.693558216094972,-0.3802234828472138,-0.013686779886484146,-1.4044340848922732
14.432716369628906,-7.525261402130128,-5.808779716491699,1.2762386798858643,-0.7412387132644653,-1.091199040412903
4.871415615081788,6.33324956893921,2.9631848335266113,4.65456247329712,-1.1460270881652832,-1.5832356214523318
6.108656883239746,-7.270568370819093,24.275762557983402,4.028285980224609,-0.9138594269752504,-0.9703679680824281
16.390855789184574,-6.919651985168457,26.406873703002933,2.441895723342896,-1.099759817123413,-1.0025469064712527
9.358789443969727,1.5836880207061768,14.673419952392578,1.5291482210159304,-0.9793148636817933,-1.020402431488037
8.26704502105713,13.41908931732178,10.154964447021484,1.158353328704834,-0.7898197770118714,-0.5496734380722046
9.196394920349123,16.037504196166996,17.03170204162598,0.489388793706894,0.04898393899202347,-0.2578803300857544
0.4829582870006562,2.4002671241760254,10.600813865661623,0.1716625690460205,0.06279138475656511,-0.2178322970867157
2.704534769058228,-1.3023849725723269,9.899416923522951,-0.006829274352639914,-0.354298084974289,-0.20662304759025574
4.726907730102539,1.1790926456451416,10.008857727050781,0.033240728080272675,-0.3277102410793305,-0.2151849865913391
5.520338535308839,0.5707610249519349,9.800452232360842,-0.03721728175878525,-0.15628530085086825,-0.11644992977380754
5.379473686218262,-2.193639993667603,9.480582237243654,-0.014358022250235082,0.023379433900117874,-0.09917063266038896
4.696810245513917,-2.1098287105560307,9.672842025756836,0.058009952306747437,0.06484861671924591,-0.09454195946455003
4.755794525146484,-1.6327248811721804,9.743856430053711,0.14528156816959384,0.07292035222053528,-0.10284013301134111
4.750911235809327,-0.7902792692184448,9.953340530395508,0.1655658781528473,0.09390415996313096,-0.07242254167795183
4.148140907287598,-0.5206948518753052,9.994853019714357,0.12687095999717712,0.10013263672590257,-0.041843704879283905
4.087560176849366,-0.5982882976531982,9.956396102905273,0.1009788066148758,0.06551435589790344,-0.03303546831011773
4.1420087814331055,-0.3290305435657502,10.065181732177734,0.07343918830156328,0.03125981241464615,-0.012762171216309072
3.934768438339234,-0.2889439761638642,10.06568717956543,0.02044033259153366,0.009741432033479215,0.011860026977956297
3.934950351715088,-0.24546927213668823,10.05911636352539,-0.03850649297237396,-0.024627363309264187,0.032510727643966675
4.076101779937745,-0.22275355458259583,10.023980140686037,-0.09552710503339769,-0.05068130418658257,0.054358623921871185
4.1287431716918945,-0.457977443933487,9.89227294921875,-0.1349545866250992,-0.06700442731380463,0.07565961033105852
4.042641639709473,-0.6213257908821107,9.840120315551758,-0.16809324920177462,-0.07792235910892487,0.09364451467990875
3.8049485683441167,-1.0225043296813965,9.802670478820803,-0.19283671677112582,-0.11990019679069519,0.09580992907285692
4.241180419921875,-1.0376294851303103,9.815489768981935,-0.1943736970424652,-0.1526850163936615,0.08875947445631029
4.389595031738281,-0.9003512263298036,9.723194122314453,-0.1841699928045273,-0.14693763852119446,0.09110658615827562
4.323566436767578,-1.149205803871155,9.679938316345217,-0.16701263189315796,-0.12943850457668307,0.09036246687173845
4.142692089080811,-1.2571789026260378,9.553634643554688,-0.15153132379055026,-0.1144527792930603,0.08282776921987535
4.043193340301515,-1.4358789920806885,9.487419128417969,-0.14592961966991427,-0.1280995458364487,0.0768928974866867
4.264392375946046,-0.8648035526275635,9.725962638854982,-0.1500324755907059,-0.13759049773216248,0.07836207002401353
4.251153469085694,-0.966818392276764,9.620875358581545,-0.15011122822761536,-0.12698940932750705,0.07499434798955919
4.3508620262146005,-1.0585227012634277,9.559912681579592,-0.1437680423259735,-0.1095516011118889,0.07372385263442993
3.8317124843597417,-1.7413074970245361,9.128029823303224,-0.11710637062788011,-0.09700467437505723,0.06400839984416962
3.968245506286621,-1.3680008649826052,9.53821659088135,-0.1053769588470459,-0.127922996878624,0.04008161276578903
4.418074131011964,-1.570616126060486,9.450358390808107,-0.08178895711898804,-0.11640074104070665,0.02274802885949612
4.202555179595948,-1.2473758459091189,9.51474380493164,-0.06679335981607439,-0.10527385771274567,0.022122232243418697
4.320611476898194,-1.0394096374511719,9.727277755737305,-0.06706742197275163,-0.10555141419172288,0.016458604484796524
4.3570876121521005,-1.1383757591247559,9.651581764221193,-0.062405578792095184,-0.09901075810194017,0.011748723685741425
4.401440143585206,-0.8331981897354126,9.73239040374756,-0.07108528912067413,-0.09684573858976366,0.01934553496539593
4.401348114013672,-0.6805483102798462,9.814925193786623,-0.09393735975027086,-0.09778228402137756,0.03711193427443505
4.360360622406007,-0.8644279837608339,9.776238441467287,-0.11653308570384979,-0.10612818598747253,0.051724251359701164
3.9978754520416264,-1.1965583562850954,9.525640487670898,-0.1253422200679779,-0.1199871525168419,0.05412887781858444
3.7418103218078613,-1.6320887804031374,9.559183120727539,-0.12361189723014832,-0.1664284020662308,0.03332171961665154
4.102473735809327,-1.4259804487228396,9.560309410095217,-0.11123526096343994,-0.20492033660411837,-0.0023379535414278507
4.28753662109375,-1.1448496580123904,9.604557991027834,-0.11129695177078247,-0.21397966146469116,-0.02025849558413029
4.396134853363038,-1.3367724418640137,9.481332778930664,-0.11370808631181718,-0.213779479265213,-0.045839611440896995
4.39855718612671,-1.432864308357239,9.394877433776857,-0.10512898862361908,-0.2083355933427811,-0.05629154667258263
4.4886212348938,-1.03172504901886,9.580956459045412,-0.11909631639719011,-0.20886683464050293,-0.04912367835640908
4.502654075622559,-1.353635549545288,9.555496215820312,-0.1302710771560669,-0.21178478002548218,-0.04397528991103173
4.526429176330566,-1.2111625671386719,9.529611587524414,-0.13355813920497897,-0.21281975507736206,-0.034081574529409416
4.486406326293945,-1.2965760231018066,9.527602195739748,-0.13610783219337463,-0.2189797013998032,-0.03160179778933526
3.914000749588013,-1.38844633102417,9.519991874694826,-0.14418153464794162,-0.24948856234550476,-0.050432290881872184
4.10590696334839,-1.2759573459625244,9.590132713317873,-0.16930422186851501,-0.3148340582847595,-0.08447555452585222
4.074910640716554,-1.200163245201111,9.799117088317873,-0.18284718692302707,-0.3712249994277954,-0.10573936253786088
4.417546749114991,-1.09652054309845,9.733966827392578,-0.21850618720054626,-0.4456815421581269,-0.12012761086225511
4.111565589904785,-0.7737909555435181,9.761216163635256,-0.2640353739261628,-0.5346497297286987,-0.09635061770677568
4.288302421569824,-1.0557793378829958,9.761841773986818,-0.3171831071376801,-0.6313075423240663,-0.09443418681621552
4.431641578674316,-0.7963100075721742,9.89784049987793,-0.38984099030494695,-0.7276408672332764,-0.08255479484796525
4.208147048950195,-0.5987052321434022,9.963848114013672,-0.46945953369140625,-0.8328197598457338,-0.0569247417151928
4.424611568450929,-0.8789184689521791,9.875704765319826,-0.5770735740661621,-0.9729067683219911,-0.025689851492643356
3.813449621200562,-0.46774840354919434,10.002483367919922,-0.7025018334388734,-1.1178983449935915,-0.017375074326992035
3.638514518737793,-0.7738391160964966,9.871079444885256,-0.7818624973297119,-1.350595831871033,-0.004746399819850922
3.407484531402588,-0.74130517244339,9.755787849426271,-0.8365435600280762,-1.6185668706893923,0.008488581515848638
3.1941554546356206,-0.7824327945709229,9.743261337280273,-0.8942645192146302,-1.9437012672424316,0.0020566398743540053
3.2601265907287598,-0.9183015227317811,9.80309581756592,-0.8847373723983765,-2.3181257247924805,0.030000099912285808
2.9582526683807377,-1.3483735322952273,9.895360946655273,-0.8712611198425293,-2.7804939746856694,0.012629903852939606
2.839565515518189,-1.3216917514801025,10.057810783386232,-0.870979905128479,-3.305172681808472,0.03302563354372979
3.1253082752227788,-1.4019842147827148,10.357794761657717,-0.8784744739532471,-3.900112867355347,0.01862962543964386
2.904418230056763,-2.271984577178955,11.549922943115234,-0.9158406257629395,-4.630437850952148,0.003407992655411363
2.71197509765625,-1.7976198196411133,12.621172904968263,-1.1185495853424072,-5.494135379791261,-0.08598104119300842
3.720091581344605,-2.3377556800842285,13.727879524230959,-1.3617922067642214,-6.463893890380859,-0.14802181720733643
5.2454328536987305,-3.379207849502564,14.937664031982422,-1.6569365262985232,-7.357606887817383,-0.14125378429889682
9.424118995666506,-3.51817536354065,16.041452407836918,-1.9818124771118164,-8.139997482299805,-0.1739372164011002
13.727922439575195,-4.809245586395265,17.54595947265625,-2.517011404037476,-8.629961013793945,-0.31331571936607366
17.808485031127933,-6.35975456237793,17.75980949401856,-2.92592191696167,-8.74131488800049,-0.5878092646598817
25.591688156127933,-6.728324413299561,23.253082275390625,-3.4980125427246094,-8.602614402770998,-0.8531558513641357
29.108585357666016,-6.631661891937257,21.509969711303714,-4.5046234130859375,-7.661868095397949,-1.0333513021469118
30.24087142944336,-3.5965375900268555,22.722047805786136,-6.606738090515137,-6.219151973724366,-0.4045538306236267
22.675088882446293,-0.6527416706085205,21.62116241455078,-9.54018783569336,-4.437151432037354,-0.035710100084543235
13.902565002441406,-10.887238502502443,12.894078254699709,-9.73365116119385,-2.387457847595215,-0.8832250237464906
33.22717666625977,-17.59515190124512,17.67490959167481,-6.4321255683898935,-1.000467896461487,-2.8432164192199707
28.649803161621094,-23.997205734252933,26.77972412109375,-1.9341449737548828,3.1993052959442143,-3.297478675842285
9.1317138671875,-10.722284317016602,12.57586669921875,0.5826247334480287,4.300318717956543,-3.015395164489746
4.383387088775636,0.41986703872680664,6.983053207397461,1.1076630353927615,4.449893951416016,-2.942930936813355
3.0809466838836674,6.76353645324707,5.0574188232421875,0.19529733061790466,4.270524024963379,-2.926895380020142
1.5495097637176514,6.7333130836486825,3.0580298900604252,-1.1698933839797976,4.108783721923828,-2.7668359279632573
-0.014475777745246887,2.574187755584717,1.7610498666763308,-1.9273386001586914,3.9324343204498295,-2.5751607418060307
-1.7088854312896729,-1.5676140785217285,1.3842924833297732,-1.7680585384368896,3.8380405902862553,-2.3855175971984863
-1.8284766674041748,-2.951934099197388,2.617519617080689,-0.979097843170166,3.758894443511963,-2.1501038074493413
-1.291615128517151,-1.101794958114624,4.25281858444214,-0.362277626991272,3.89307713508606,-1.7848834991455078
-1.7609885931015017,0.9006182551383973,4.331622123718262,-0.24208620190620422,4.166546344757081,-1.3199981451034548
-2.5299632549285893,0.8550764322280884,3.651280403137207,-0.42200073599815374,4.381041526794434,-0.8192391991615297
-2.7729392051696777,-0.39175948500633245,2.6488351821899414,-0.5035494565963745,4.558295249938965,-0.34898397326469427
-3.3354620933532715,0.08435437828302385,1.40625274181366,-0.4185794889926911,4.646610260009766,0.059328306466341026
-3.227145195007324,1.7932525873184206,0.9140859246253968,-0.5149584412574769,4.615299224853516,0.47301793098449707
-2.197348117828369,2.327500343322754,1.4628828763961794,-0.7090716361999512,4.524466037750245,0.7306420803070068
-0.08812087774276733,2.685290813446045,2.594180822372437,-0.8553500175476074,4.603778839111328,0.8733716607093812
1.544098734855652,3.437593936920166,3.237483501434326,-0.949681580066681,4.8313703536987305,0.8457161784172059
2.90557861328125,3.348571300506592,2.3484959602355957,-0.962365210056305,5.113945007324219,0.6763759851455688
3.8512618541717534,3.58124327659607,0.5888332724571229,-0.8571055531501771,5.25553035736084,0.4779986441135407
4.91975212097168,4.601941108703613,-0.6271607279777528,-0.8327847719192505,5.219606399536133,0.31162497401237493
6.573415279388429,5.961801052093507,-0.565157413482666,-0.9549672007560731,5.077171325683594,0.18529291450977328
9.06171989440918,5.345825672149659,-0.18640905618667603,-1.0693750381469727,4.916053295135499,0.016800696030259136
11.744544982910156,3.8155617713928223,-0.5751509666442871,-0.8760278224945068,4.681164264678956,-0.14158305525779724
13.320937156677248,3.7602264881134038,-1.4965367317199707,-0.5161182880401611,4.240208625793457,-0.2374658137559891
15.480644226074219,3.210281610488892,-2.316481590270996,-0.16399359703063965,3.631175756454468,-0.3076862096786499
17.47647285461426,3.4217095375061035,-3.0564038753509526,0.23529604077339172,2.887832880020142,-0.3044924437999726
19.310873031616214,3.848830223083496,-3.4643492698669434,0.535947620868683,2.0672364234924316,-0.23732028901577
20.62016868591309,3.471674919128418,-3.4943993091583256,0.8672253489494325,1.3049288988113406,-0.1505776047706604
20.81962394714356,3.772007465362549,-2.940990924835205,1.2019559144973757,0.6175016164779663,-0.07964434474706651
20.233018875122074,4.419459342956543,-2.2711751461029057,1.4107732772827148,0.08834751695394517,-0.06684098392724992
17.8652515411377,4.810246944427491,-3.155762195587158,1.4282006025314333,-0.3758203983306885,-0.046755816787481315
12.071256637573242,4.061915874481202,-6.024879455566406,1.1748722791671755,-0.9792223572731019,0.08646760880947113
59.73906707763672,20.69341087341309,13.188378334045412,-2.5335013866424565,-4.122640609741211,1.3783885240554812
63.95415115356446,14.417529106140138,31.49331855773926,-3.126609563827515,1.7166788578033447,0.6477444171905518
-7.737883567810059,-3.312777519226074,0.5670448541641235,-0.4783473610877991,2.038873910903931,0.3200555443763733
1.202775835990906,-11.54131603240967,15.599517822265625,0.10433150827884674,1.5719377994537354,0.4118956029415131
-7.887687683105469,-2.315771341323853,11.188663482666016,0.147818997502327,0.279560923576355,-0.13052935898303988
-0.1518326699733734,-7.764714717864991,11.214666366577148,0.24991132318973544,0.09233157336711884,-0.7942978143692017
6.057880878448487,-4.130699157714844,11.241412162780763,0.34964349865913397,-0.3072035312652588,-0.9335222840309144
5.809080123901367,7.013274192810059,9.140506744384766,0.3208441734313965,-0.22749274969100952,-0.7004594206809999
8.207466125488281,3.463520765304566,8.857261657714844,0.11601998656988145,-0.04790749400854111,-0.35357692837715154
7.155980587005616,0.957534909248352,8.968887329101562,-0.02263667806982994,0.1695041507482529,-0.02494004182517529
5.250437259674073,-1.80733859539032,9.182205200195312,0.011469196528196335,0.3724581897258759,0.037553124129772186
4.565278053283691,-2.094032526016236,9.667237281799318,0.12491538375616075,0.4018333852291108,-0.057676464319229126
4.586463928222656,-1.2450907230377197,9.969123840332031,0.19501569867134094,0.38191357254982,-0.1093130111694336
4.101367950439453,1.0971314907073975,10.157389640808107,0.13384130597114563,0.2991124093532563,-0.057477924972772605
4.086830615997315,1.4172515869140625,10.262763977050781,-0.04136142134666443,0.18575648963451388,0.056931838393211365
3.986125946044922,0.01776193082332611,10.164813041687013,-0.1261214464902878,0.07939500361680986,0.13550809025764465
4.118133068084718,-0.4366639256477356,10.02938461303711,-0.144737645983696,-0.006767020560801029,0.13223303854465487
4.044939517974854,-0.35940927267074585,10.022032737731935,-0.1697391122579575,-0.07599622011184692,0.11215049028396606
4.252711772918702,0.054872095584869385,10.060361862182617,-0.20783556997776034,-0.1412259340286255,0.10562037676572801
4.293922901153565,-0.1165287047624588,9.949324607849123,-0.2634089291095734,-0.1782336086034775,0.13043993711471558
4.262230396270753,-0.3177740871906281,9.89124870300293,-0.30401837825775146,-0.2160465866327286,0.15858972072601318
4.436609268188477,-0.6194092631340028,9.777041435241701,-0.31692287325859075,-0.24669408798217773,0.1718127727508545
4.500432491302491,-1.0520589351654053,9.478300094604492,-0.30222803354263306,-0.24369983375072482,0.17818084359169006
4.762540340423585,-0.8979618549346924,9.49985122680664,-0.28194350004196167,-0.22719761729240417,0.17213077843189242
4.664508342742921,-0.5829200744628906,9.551469802856445,-0.2837256193161011,-0.2109283655881882,0.17627671360969543
4.5487565994262695,-0.6985689401626587,9.538381576538086,-0.2962386906147004,-0.20720571279525757,0.1851096749305725
4.448780536651612,-0.9278385639190674,9.585588455200195,-0.30120307207107544,-0.22126285731792453,0.17015212774276733
4.605878829956055,-0.9766626954078675,9.535850524902344,-0.2839586436748505,-0.2225531488656998,0.14735227823257446
4.637382030487061,-0.7847529649734497,9.555450439453125,-0.26729702949523926,-0.20327951014041903,0.14542078971862793
4.55560302734375,-0.937507152557373,9.451186180114748,-0.264274001121521,-0.195775642991066,0.14402671158313754
4.507856845855714,-0.887376070022583,9.432021141052248,-0.26226928830146795,-0.18215805292129517,0.15364329516887668
4.178789138793945,-1.3560903072357178,9.389513969421388,-0.25290632247924805,-0.20088675618171692,0.14189575612545016
4.451640605926515,-1.6550805568695068,9.39479732513428,-0.20553117990493774,-0.21592538058757785,0.09518426656723022
4.698498249053956,-1.5291078090667725,9.193033218383789,-0.17088544368743896,-0.20622251927852633,0.07478568702936174
4.839739322662354,-1.1202076673507693,9.152294158935547,-0.14008940756320956,-0.18631961941719055,0.06150450929999352
4.715508937835694,-1.4086830615997314,9.065945625305178,-0.12708722054958346,-0.12876190245151523,0.07431197166442871
5.103193759918214,-1.523125171661377,9.012062072753906,-0.07901564985513689,-0.09731431305408478,0.046052072197198875
4.7439284324646005,-1.2367039918899538,8.991619110107422,-0.061542067676782615,-0.038265012204647064,0.04306513071060181
4.281573772430421,-1.480018496513367,9.40217399597168,-0.03781270980834961,-0.03288469091057778,0.03859325498342514
4.738396644592285,-1.3411316871643066,9.31468391418457,-0.013475605286657812,-0.05096187070012093,0.009047076106071472
4.597807407379151,-0.9690907001495361,9.30156993865967,-0.015705166384577755,-0.03394841402769089,0.0056751430965960034
4.337976455688477,-0.974463939666748,9.429659843444826,-0.03226337209343911,-0.0563642680644989,0.0131149273365736
4.2024383544921875,-1.1665558815002441,9.220520973205568,-0.0395510196685791,-0.08906859904527666,0.000899282400496304
4.041558742523194,-1.1051757335662842,9.42867183685303,-0.03369314223527908,-0.15883827209472656,-0.01692786999046803
4.139141559600831,-1.059347987174988,9.802301406860352,-0.04374582692980767,-0.23894008994102478,-0.03410373255610467
4.399186611175538,-1.2480292320251465,9.470701217651367,-0.04646642506122589,-0.3133368790149689,-0.06021637842059136
4.525999546051026,-0.3607020974159241,9.686796188354492,-0.0788303017616272,-0.3717906773090363,-0.05071493238210678
4.748129844665527,-0.33791542053222656,9.481636047363281,-0.14035260677337646,-0.4019642472267151,-0.025257656350731853
4.223674297332765,-1.1401849985122683,9.250279426574709,-0.13469716906547546,-0.4597043097019196,-0.030888989567756653
3.930233716964722,-1.5799773931503298,9.674751281738281,-0.1102467030286789,-0.5762526392936708,-0.07061582058668138
4.522306919097901,-1.8524054288864138,9.54186534881592,-0.08856286853551866,-0.6830451488494873,-0.13422809541225436
4.58670473098755,-0.7636512517929077,9.475503921508789,-0.0981016457080841,-0.7766256332397461,-0.155686691403389
3.9632720947265625,-0.9281289577484131,9.631339073181154,-0.09210375696420671,-0.9199929237365723,-0.15980286896228793
4.057910919189453,-0.8174777626991273,9.836551666259766,-0.11272415518760681,-1.118963122367859,-0.16235347092151645
3.845475673675537,-1.1920133829116824,9.616729736328125,-0.09348957240581512,-1.378942370414734,-0.17947086691856384
4.0256972312927255,-0.5542863607406616,9.849091529846193,-0.09557373821735382,-1.6858978271484375,-0.18974329531192782
4.476043701171875,-0.16571614146232605,10.052400588989258,-0.17444805800914767,-1.9448654651641846,-0.1856767684221268
4.099861145019531,-0.4695979952812195,9.686037063598633,-0.26147162914276123,-2.17263674736023,-0.18082793056964877
5.077757358551026,-1.3109230995178223,9.646926879882812,-0.21618987619876864,-2.4768495559692383,-0.18375737965106967
4.539126873016358,-0.7064470052719116,9.411642074584961,-0.19987137615680697,-2.7056233882904057,-0.23416337370872498
5.992957592010499,-2.4613907337188725,10.407245635986328,-0.08892043679952623,-2.9939379692077637,-0.3282268941402436
4.555742740631104,-2.8048291206359863,9.947283744812013,0.28380006551742554,-3.277955770492554,-0.4135871827602387
5.37443494796753,-2.6185204982757573,10.570652961730959,0.4394232332706452,-3.7170519828796387,-0.44987711310386663
6.724696636199952,-4.223346710205078,11.265974998474123,0.6223901510238647,-4.0295915603637695,-0.4704133570194245
9.266759872436523,-3.6879508495330815,12.561410903930664,0.7676391005516053,-4.1472578048706055,-0.48558607697486883
11.10241222381592,-4.315162181854249,12.264328002929688,0.8739393949508667,-4.084819316864015,-0.5489738583564759
14.514645576477053,-5.721424579620362,12.127461433410646,1.413091540336609,-4.101473808288574,-0.7029768824577333
21.76970672607422,-4.599589824676515,15.124883651733398,2.0808856487274174,-3.8979213237762456,-0.9549076557159424
27.484735488891605,-0.592814564704895,12.527894973754883,2.250699043273926,-3.526314496994019,-1.18853759765625
27.870157241821293,-0.8603146076202393,6.611883163452148,2.3663775920867924,-3.283555030822754,-1.6579735279083252
29.45178031921387,0.10858665406703949,6.3910112380981445,2.7274987697601323,-3.3540921211242676,-2.2067873477935795
28.671825408935547,2.385300636291504,6.596639633178711,2.642539262771607,-3.4631001949310307,-2.4188709259033203
37.22014236450196,6.613149642944336,16.786512374877933,1.4243452548980713,-3.4984338283538823,-2.374809741973877
31.15133285522461,2.3215742111206055,19.396886825561527,0.04434375464916229,-2.316789865493775,-2.0609629154205327
24.285284042358402,0.3759840726852417,15.870351791381836,-1.1519830226898193,-1.7382198572158816,-1.6555626392364502
19.829681396484375,-2.5127727985382085,13.869654655456545,-1.5385991334915163,-1.455987095832825,-1.5538575649261475
15.932400703430178,-4.87868595123291,12.298547744750977,-1.4745200872421267,-1.3664979934692383,-1.4230738878250124
13.542997360229492,-7.579167842864991,12.216436386108398,-0.7330729365348817,-1.2417316436767578,-1.444749355316162
11.372685432434084,-8.29627323150635,13.721765518188477,0.37853685021400457,-0.9856380224227905,-1.486948370933533
8.466490745544435,-4.9341936111450195,15.076077461242678,1.0597473382949831,-0.5707275271415712,-1.3246021270751953
4.838029861450195,-1.5478103160858154,14.574670791625977,1.056318998336792,-0.07449307292699815,-1.1326279640197754
0.5836110711097718,-0.1442150324583054,12.282132148742678,0.5484201908111572,0.39115765690803533,-0.9837922453880311
-3.33327054977417,-1.5493572950363161,9.292979240417482,0.08471455425024034,0.6122089624404907,-0.9207871556282045
-4.964381217956543,-2.605278491973877,7.817524433135987,-0.1521109640598297,0.7114520072937012,-0.8138459324836732
-5.910439491271973,-3.621572494506836,7.207208633422852,-0.15393778681755066,0.8428067564964296,-0.6367857456207275
-6.366729259490968,-3.669180393218994,7.02287244796753,-0.07116380333900452,1.0753935575485232,-0.371801644563675
-7.766625881195069,-3.3069286346435547,6.029268741607667,-0.05881752073764801,1.2823642492294314,-0.08075764775276184
-8.585576057434084,-3.112221479415894,5.27130126953125,-0.03730661794543267,1.461017966270447,0.163865864276886
-8.041606903076172,-2.2829885482788086,5.602925777435304,-0.16960935294628146,1.6413235664367676,0.4327438175678254
-7.762541770935059,-1.693474292755127,4.964585304260254,-0.4072691798210144,1.95449435710907,0.6805153489112855
-8.614665985107422,-1.7398856878280642,3.171946287155152,-0.5886825323104858,2.1999633312225346,0.8989360332489014
-8.676280021667482,-1.5561134815216064,1.8894433975219727,-0.694650948047638,2.2889688014984135,1.101841688156128
-7.65153694152832,-1.0895119905471804,1.8390125036239626,-0.7691559195518495,2.379209518432617,1.260209918022156
-6.480520725250245,-0.7854607105255127,2.20337986946106,-0.848642408847809,2.5485987663269043,1.3608050346374512
-4.66850471496582,-0.3067404925823212,3.319179773330689,-0.9488471150398256,2.8130502700805664,1.4463330507278445
-3.046404600143433,0.1762285828590393,3.713392734527588,-1.049821734428406,3.2225558757781987,1.5308780670166016
-2.791320085525513,0.8153448104858398,2.2334227561950684,-1.0884820222854616,3.6045875549316406,1.6034101247787478
-2.5842621326446538,2.66230320930481,0.5773050189018251,-1.1634918451309206,3.7441234588623047,1.626936912536621
-0.9651538729667665,4.030743598937988,0.09337323158979417,-1.353417158126831,3.7325294017791752,1.5454378128051758
1.7502202987670898,4.223718643188477,0.8943789005279541,-1.4439623355865479,3.703456401824951,1.3415914773941042
4.66159725189209,4.221470832824707,2.0722742080688477,-1.3524692058563232,3.755454301834107,1.0603282451629639
6.753109931945801,4.45908260345459,2.2785151004791264,-1.1446558237075808,3.8765134811401367,0.733322262763977
8.241915702819826,4.907679557800293,1.7634193897247314,-0.9268351793289185,3.899901151657105,0.4084075093269348
9.841572761535646,4.375261783599854,1.2498959302902224,-0.7419347763061523,3.77976131439209,0.11666036397218706
11.850065231323242,3.5108368396759038,1.343581557273865,-0.4826506674289704,3.5642471313476562,-0.08373733609914781
14.501910209655763,3.2237625122070312,1.7087781429290771,-0.27685481309890747,3.29501748085022,-0.12538804113864901
16.340309143066406,1.9951412677764893,1.1917957067489626,-0.10348336398601532,2.9860656261444096,-0.02104843407869339
16.568761825561527,1.2176856994628906,-0.16271543502807617,0.09814000129699707,2.5345935821533203,0.2254181653261185
16.043790817260746,1.4005744457244873,-1.3918739557266238,0.20333132147789001,1.9408558607101443,0.5776779651641846
13.906661987304688,1.5815186500549316,-3.6840691566467285,0.16399107873439792,1.3124501705169678,0.9584095478057861
7.749232769012452,1.2826919555664062,-9.611905097961428,0.09137894213199615,0.38068065047264105,1.2670981884002686
44.62211608886719,18.28061294555664,-7.289897441864015,-1.56079638004303,-2.402136564254761,1.810290813446045
76.4813919067383,32.635337829589844,53.82391738891602,-2.5115077495574956,2.001854419708252,0.6720464825630189
4.661674022674561,-12.340880393981935,5.502504825592042,-0.8635036945343018,2.439703226089478,0.43272569775581365
-5.566657066345215,-4.297702789306641,13.050345420837404,-0.5414788722991943,2.584898710250855,1.147935152053833
-9.558012008666992,0.6963199377059937,13.722199440002443,-0.17537017166614535,0.672781527042389,0.26339268684387207
-1.48630952835083,-11.228532791137695,12.31696891784668,-0.06183136999607086,-0.13902635872364047,-0.3804832100868225
2.331334114074707,-4.189623832702637,11.431751251220703,0.10420904308557512,-0.6579838991165161,-0.5773228406906128
7.267286777496339,3.9900820255279545,9.664520263671875,0.02212700992822647,-0.6497203707695008,-0.48788994550704956
9.772247314453125,0.885942041873932,7.639459609985352,0.020542949438095093,-0.3101804852485657,-0.24704344570636752
7.754508018493652,0.9319343566894531,8.135051727294922,-0.0471251979470253,0.13079206645488742,0.008237427100539207
5.028611660003663,-0.6909653544425965,9.051239967346193,-0.042029403150081635,0.37327530980110174,0.0859697386622429
4.05967903137207,-2.1560230255126953,9.820615768432617,0.038100406527519226,0.34792724251747137,0.03183131664991379
3.7730441093444824,-1.5330204963684082,9.756896018981935,0.08206535130739213,0.2512273490428925,-0.03824647516012192
4.54988956451416,0.08561491966247559,9.943146705627443,0.0547562912106514,0.1982371658086777,-0.018704283982515335
4.791766643524171,0.4147514998912812,9.836886405944826,-0.03167570754885674,0.18461185693740845,0.06892402470111847
4.442546367645265,-0.3768306374549866,9.773866653442383,-0.08485611528158189,0.17577973008155823,0.13587440550327304
3.7003564834594727,-1.3096578121185303,9.971141815185547,-0.09314350038766862,0.10999218374490739,0.12037283182144165
3.6597497463226323,-1.2101433277130127,10.070839881896974,-0.07238792628049852,-0.0072862934321165085,0.060447964817285545
3.9464478492736816,-0.7832702398300171,10.02029800415039,-0.08278916031122209,-0.09811845421791077,0.030839726328849792
4.483734130859375,-0.6875030994415283,9.701677322387695,-0.09897679835557939,-0.14697423577308655,0.025879805907607082
4.796098232269288,-0.4303932189941406,9.57706928253174,-0.12076970934867859,-0.13873407244682312,0.0491246022284031
4.700011730194093,-0.6511372327804565,9.585986137390138,-0.1434209942817688,-0.11774910241365434,0.09431296586990356
4.563482284545898,-0.7599385976791382,9.674266815185547,-0.13738699257373813,-0.11869964003562927,0.10424292087554932
4.400169372558594,-1.3299800157547,9.454689025878906,-0.1394578963518143,-0.10527434945106506,0.10879672318696977
4.7198028564453125,-1.1044690608978271,9.409189224243164,-0.10359305888414384,-0.09375298768281938,0.08343455195426941
4.574920177459718,-0.7452244758605957,9.473957061767578,-0.11302951723337175,-0.07807140052318573,0.09609080106019975
4.4666485786438,-0.89435875415802,9.618106842041016,-0.12262845784425737,-0.07785971462726593,0.1185753345489502
4.53977918624878,-1.0658253431320193,9.502389907836914,-0.1042066365480423,-0.07277100533246995,0.11215351521968842
4.827529430389405,-1.1881170272827148,9.306578636169435,-0.1041739657521248,-0.051197435706853874,0.11108581721782684
4.504451751708984,-0.9020611047744751,9.36247444152832,-0.08776657283306122,-0.030352083966135982,0.11928458511829376
4.241899967193604,-1.0100467205047607,9.505166053771974,-0.09999657422304155,-0.037747107446193695,0.11887240409851074
4.095805644989015,-1.1259168386459353,9.566081047058107,-0.09865719825029375,-0.07621358335018158,0.09496609121561052
3.941128730773926,-1.2218177318572998,9.350561141967773,-0.10159169882535936,-0.10714539140462877,0.06351424753665924
4.131101608276367,-1.5908218622207644,9.370162010192873,-0.06456387788057329,-0.14117157459259033,0.00812047626823187
4.9826626777648935,-1.4544687271118164,9.123576164245607,-0.008865348994731903,-0.11638020724058153,-0.028322121128439907
4.856287002563477,-0.7920507192611694,8.975579261779787,0.017046228051185608,-0.057765420526266105,-0.029021646827459335
4.516049385070801,-0.4305466711521149,9.375245094299318,-0.0024156165309250355,-0.018085744231939316,-0.005859925877302886
3.992944955825806,-0.9718025922775269,9.232666015625,-0.028668226674199108,-0.028460677713155746,0.010012526996433737
3.570143222808838,-1.5531619787216189,9.431034088134766,-0.020604856312274933,-0.09655769914388658,-0.01654397137463093
3.715945959091187,-1.6539999246597292,9.826878547668459,0.06031528860330582,-0.1974456757307053,-0.09107080101966858
4.235091209411621,-1.2921575307846072,9.421187400817873,0.10173091292381287,-0.2584078907966614,-0.16056992113590243
4.173715114593507,-0.7772582173347474,9.724759101867678,0.09327178448438646,-0.30796509981155396,-0.17440991103649142
4.446424007415772,-0.894453763961792,9.940840721130373,0.07479465752840044,-0.36477744579315186,-0.18281137943267822
4.187772274017335,-1.3958723545074463,9.550024032592773,0.09015114605426788,-0.41694107651710516,-0.21163836121559143
4.0830092430114755,-1.160278558731079,9.737594604492188,0.11625642329454423,-0.5017099976539613,-0.2787385582923889
4.66670846939087,-0.5671249628067017,9.87736701965332,0.12378608435392381,-0.6108987331390381,-0.2815181910991669
3.83233642578125,-0.5131331086158754,9.906984329223633,0.0874754935503006,-0.7534143328666688,-0.26237562298774725
3.761950969696045,-0.7937559485435487,10.182117462158203,0.06971203535795213,-0.9617507457733154,-0.25260105729103094
3.948823213577271,-0.7775919437408447,10.192477226257326,0.05758114904165268,-1.203542709350586,-0.2280165106058121
3.5428726673126225,-0.4570182859897614,10.084465980529787,0.08609910309314728,-1.5249387025833132,-0.19085833430290222
3.9346883296966557,0.30469179153442383,10.482052803039553,-0.11434438824653625,-1.7507108449935915,-0.18258149921894076
4.278258800506593,-1.2483705282211306,11.059731483459474,-0.137505516409874,-2.0254287719726562,-0.17556561529636386
3.665207147598267,-0.7405375242233276,9.814556121826172,0.01955671794712544,-2.2821166515350346,-0.1936524510383606
4.668917179107667,-0.21862882375717163,9.898196220397951,-0.029521267861127853,-2.567461252212525,-0.19974783062934875
4.780107498168945,-0.35910409688949585,9.506507873535156,0.006735203787684441,-2.8643896579742436,-0.22824971377849582
4.897725582122804,-0.15324057638645175,9.086771011352539,0.12288532406091691,-3.1739940643310547,-0.27296403050422674
4.878077507019043,-1.033048748970032,9.303579330444336,0.2726587653160095,-3.5154147148132324,-0.34571352601051336
5.2523908615112305,-0.3269531726837158,9.600029945373537,0.417741596698761,-3.947086095809937,-0.3312591314315796
6.529053211212159,-0.7459708452224731,10.466751098632812,0.5175594091415405,-4.300668239593507,-0.21151323616504672
8.5311279296875,-1.2134753465652468,12.141042709350586,0.49511003494262695,-4.58708143234253,-0.0506938174366951
11.377562522888185,-1.9920690059661865,13.576349258422852,0.2859043180942536,-4.613953113555909,0.13959285616874695
14.30022716522217,-3.284871339797974,13.25502681732178,0.20145376026630404,-4.5346574783325195,0.21612946689128879
19.735366821289062,-3.7403051853179936,14.048286437988281,0.46774128079414373,-4.296058654785156,0.04284019023180008
24.38813018798828,-1.7506026029586794,10.61357307434082,0.6970220804214478,-4.119994640350343,-0.21110469102859497
28.23342323303223,-2.25258731842041,5.766633033752441,0.695480227470398,-3.989220142364502,-0.6012015938758851
30.582763671875,-4.163609981536866,3.430006980895996,1.3630584478378298,-4.05667781829834,-1.2080346345901491
31.232322692871094,-2.5232253074645996,6.290724754333496,2.2046103477478027,-3.861082792282105,-1.7205058336257937
36.16957092285156,1.3887107372283936,9.129263877868654,2.350196361541748,-3.9821913242340092,-2.095876693725586
40.51354217529297,2.8297433853149414,22.351327896118168,1.3664345741271973,-2.8050646781921387,-2.108331441879273
26.89519309997559,2.402028322219849,16.874715805053714,0.06587047129869462,-1.5977344512939453,-1.9601083993911745
21.643795013427734,0.5556882619857788,13.786518096923828,-0.9585755467414857,-1.2143077850341797,-1.9954707622528076
15.803608894348146,-1.3392533063888552,10.495310783386232,-1.5605764389038086,-1.2008529901504519,-2.0978007316589355
12.25288200378418,-4.4040937423706055,9.593833923339844,-1.7050704956054688,-1.3712477684020996,-2.238345861434937
12.090719223022461,-8.224431037902834,11.234843254089357,-1.159454941749573,-1.3260979652404785,-2.3136246204376225
10.839437484741211,-9.410723686218263,12.801010131835938,-0.11570421606302263,-0.9271447658538818,-2.1813488006591797
6.451012134552003,-7.625648021697999,12.28959846496582,0.8132693767547607,-0.3825290501117707,-1.9654691219329834
1.7456426620483398,-4.29688596725464,11.148014068603516,1.1800104379653933,0.014333254657685758,-1.7058234214782715
-2.3770413398742676,-2.2796826362609863,9.181735038757326,0.9598675966262817,0.21559377014636996,-1.4187674522399902
-5.285374641418457,-2.2522025108337402,7.276896953582765,0.5784454345703125,0.288643628358841,-1.183465123176575
-5.76344919204712,-2.8503308296203613,7.292972564697266,0.22955989837646484,0.40291902422904974,-0.945489764213562
-5.761470317840577,-4.139128208160401,7.565018177032472,0.09094408899545671,0.6607252955436708,-0.7102335691452026
-6.06707525253296,-5.098717212677003,7.509971618652344,0.1370730698108673,0.9976777434349061,-0.4365658164024353
-6.408764362335206,-4.853672027587891,7.155405044555664,0.22182461619377136,1.3359812498092654,-0.10836058109998704
-6.889284133911133,-4.399691104888917,6.771784782409668,0.21507044136524203,1.6483986377716064,0.21534876525402072
-6.5772247314453125,-3.335862636566162,6.901462554931641,0.0042878082022070885,1.9916746616363525,0.5550811886787416
-6.24538278579712,-3.0404038429260254,6.180513381958008,-0.2962404489517212,2.4161031246185307,0.8827729225158691
-7.311554431915284,-3.2413864135742188,4.127329349517823,-0.44731047749519354,2.7660269737243652,1.1283931732177734
-7.945566177368164,-2.6184654235839844,2.2098803520202637,-0.5106658935546875,2.934182405471802,1.3290386199951172
-8.029264450073242,-1.6288334131240847,0.98975670337677,-0.6044795513153076,2.967304229736328,1.4662455320358279
-7.27999210357666,-0.867913007736206,1.0954405069351199,-0.758878231048584,2.972707033157349,1.5592098236083984
-5.529210567474366,-0.3418572843074799,2.301082134246826,-0.9408600330352783,3.0595166683197026,1.6152926683425906
-3.1166152954101562,-0.2811682522296906,3.7197029590606694,-1.0721193552017214,3.347580909729004,1.6598266363143923
-2.2514350414276127,0.30104780197143555,3.245960950851441,-1.0940966606140137,3.7201085090637207,1.664166569709778
-2.0204894542694096,1.4773532152175906,2.1022202968597417,-1.1498572826385498,3.9417135715484624,1.6088967323303223
-0.9822862148284912,2.8677704334259038,1.6924779415130615,-1.2619056701660156,3.9964106082916264,1.5025154352188113
1.4636641740798952,3.55319881439209,2.2756507396698002,-1.3845192193984988,4.021928787231445,1.3239687681198122
4.19947385787964,3.1574985980987553,2.7849693298339844,-1.3563739061355593,4.106510639190675,1.0542101860046387
6.77140998840332,3.2872562408447266,3.31948733329773,-1.1771039962768555,4.192557811737061,0.75776207447052
9.412716865539553,4.338387966156007,3.517147779464722,-1.0544098615646365,4.241631507873535,0.4679177403450012
12.462889671325685,3.7567284107208256,3.236489534378052,-0.9762376546859741,4.206925868988038,0.2031722068786621
14.401762008666992,2.648756504058838,1.9745589494705202,-0.7658757567405702,4.015969753265382,0.03842533379793167
15.606848716735842,2.473559141159058,0.712061107158661,-0.5072376728057861,3.590394735336304,0.016483604907989502
17.446962356567386,2.79899263381958,0.7144949436187744,-0.36923852562904363,2.9902429580688477,0.14703205227851868
19.799325942993168,2.622699737548828,1.5898795127868652,-0.26911890506744385,2.42679238319397,0.3532107472419739
19.88234901428223,2.638667583465576,1.1604149341583252,-0.11755278706550598,1.9567952156066895,0.5673862099647523
17.377338409423828,3.2526726722717285,-1.1533849239349365,0.048005834221839905,1.4331005811691286,0.7489774227142334
12.990863800048828,3.681280374526978,-4.487078189849854,0.04721370711922646,0.690696120262146,0.9425585269927979
26.563512802124027,13.885251998901367,-11.134791374206545,-0.8282562494277954,-0.8313230872154237,1.363837480545044
74.61324310302736,30.253170013427734,56.230018615722656,-3.098087072372437,-0.9160321354866029,0.8272081613540649
-3.5249147415161133,10.552053451538086,-6.309514522552491,-1.1428191661834717,3.075769186019898,0.07108080387115479
11.509932518005373,-11.116069793701172,17.282621383666996,-0.48376783728599554,2.387061595916748,0.8711769580841064
-11.441652297973633,-3.2626297473907475,9.931170463562013,-0.2720642685890198,1.417281746864319,0.6354098320007324
-1.7215192317962646,-9.468441963195803,14.399375915527344,-0.17906348407268527,0.32217743992805487,-0.017793171107769012
-0.3362410068511963,-8.982178688049318,11.562602996826172,0.1920304298400879,-0.5662115216255189,-0.49874764680862427
5.249570846557617,0.2422179877758026,10.26492214202881,0.2858348488807678,-0.6413920521736146,-0.7351749539375306
9.817489624023438,2.898140192031861,7.855224132537843,0.22464501857757568,-0.3328076303005219,-0.4899989366531372
8.606802940368654,3.271137952804566,8.000670433044435,0.1078980788588524,0.11411850899457933,-0.14133954048156738
6.120734214782715,0.9138930439949037,8.907498359680178,-0.0012851998908445241,0.4743557572364807,0.10259362310171129
3.9254918098449707,-2.5795996189117436,9.412004470825195,0.03737695887684823,0.5285272598266602,0.11493775248527527
3.2431068420410156,-2.875314235687256,9.887924194335938,0.11895224452018738,0.42922201752662664,-0.00795527920126915
3.826692342758179,-1.0876352787017822,9.917518615722656,0.16527290642261508,0.36121597886085516,-0.09450303018093109
4.599225521087647,0.6129984259605409,10.158090591430664,0.09306036680936815,0.28925901651382446,-0.05172579362988473
4.448696136474609,0.2330785840749741,9.864258766174318,0.004882701672613621,0.2632488906383515,0.028728874400258068
4.077704906463624,-0.8494879007339478,9.940933227539062,-0.018305415287613872,0.22461742162704468,0.06469645351171495
3.34881591796875,-1.3204549551010134,10.219942092895508,-0.003132414538413286,0.1087019145488739,0.02448184229433537
3.6510062217712402,-1.1561474800109863,10.07395648956299,-0.0006655606557615102,-0.009258653968572617,-0.02213230170309544
4.397723197937012,-0.47473543882369995,9.895676612854006,-0.008139691315591337,-0.0653788149356842,-0.024020638316869736
4.506463050842285,-0.4489512741565705,9.667469978332521,-0.030777573585510254,-0.061148848384618766,0.005103818140923977
4.4894866943359375,-0.7124197483062744,9.651256561279297,-0.044558972120285034,-0.048714809119701385,0.031768780201673515
4.383405685424805,-0.6205919981002808,9.849443435668945,-0.05677683651447296,-0.05831691250205041,0.05504386126995087
3.9960551261901855,-0.9822415113449097,9.760485649108888,-0.07712846249341966,-0.0904780924320221,0.06802824139595032
4.2017579078674325,-1.0498721599578857,9.734487533569336,-0.0773036926984787,-0.12039271742105485,0.0524444654583931
4.48362922668457,-0.6776854395866395,9.682925224304201,-0.08149947971105577,-0.12157703191041948,0.052113182842731476
4.348857879638672,-0.7715498208999634,9.604889869689943,-0.07796421647071838,-0.12748013436794284,0.055508680641651154
4.346190929412843,-0.6627769470214844,9.768374443054201,-0.09062694013118744,-0.13507582247257235,0.06441838294267656
4.208471298217773,-0.869770109653473,9.67332649230957,-0.10748303681612016,-0.1472741663455963,0.08782074600458147
4.26862907409668,-1.1503245830535889,9.61099624633789,-0.09353417903184892,-0.16642586886882785,0.07437336444854736
4.32722282409668,-0.9590094685554506,9.522181510925295,-0.08973735570907593,-0.16792647540569308,0.06364333629608154
4.316135406494141,-1.040302038192749,9.466573715209961,-0.07331969588994981,-0.1749153733253479,0.04045215994119644
4.352774143218995,-0.8751205205917358,9.556328773498537,-0.07437866926193237,-0.16666521131992343,0.03683196008205414
4.431346893310547,-0.9263930320739746,9.32818126678467,-0.07522200047969818,-0.1522212028503418,0.030052421614527706
4.394679069519043,-1.029992461204529,9.398660659790039,-0.07590631395578386,-0.14675813913345337,0.030265973880887035
4.469243049621582,-1.0225818157196045,9.516157150268555,-0.06664868444204332,-0.1388135552406311,0.028881683945655823
4.60750675201416,-1.4610022306442263,9.174428939819336,-0.04616030678153039,-0.10881030559539795,0.01712865568697453
4.538028240203858,-1.3685362339019775,9.066774368286133,-0.011554610915482046,-0.07406414300203325,-0.00661393441259861
4.413862705230714,-1.2001714706420898,9.451478004455568,0.0025118619669228797,-0.05324042588472366,-0.025600293651223186
4.628633499145508,-1.1266975402832031,9.137881278991701,0.009174644015729429,-0.02871718630194664,-0.033889710903167725
4.282331466674805,-0.793100118637085,9.405468940734865,0.011402091942727568,-0.020313672721385956,-0.03566087409853936
4.218788146972656,-1.2540531158447266,9.561559677124023,0.016064567491412166,-0.0272341649979353,-0.04897788166999817
4.333448886871339,-0.919751763343811,9.323883056640625,0.03544582054018975,-0.043487243354320526,-0.06967348605394365
4.108765125274659,-0.47683766484260565,9.71539306640625,0.012233476154506208,-0.07810182869434357,-0.06099244952201843
3.843069553375244,-0.7945188879966737,9.970281600952148,-0.023287244141101837,-0.15369890630245212,-0.06283397972583771
3.791234731674195,-1.0661123991012575,9.804873466491701,-0.037233516573905945,-0.2432112991809845,-0.088194377720356
3.8017914295196538,-0.9564899206161499,9.810474395751953,-0.03287103772163391,-0.3346764743328095,-0.1296301782131195
4.367749214172363,-0.5365777015686035,9.847723007202148,-0.04183189570903778,-0.41711840033531195,-0.14181922376155856
4.119994163513184,-0.5749197006225586,9.822606086730959,-0.042429134249687195,-0.48128184676170355,-0.1341109275817871
4.0729947090148935,-0.6999938488006592,10.07244396209717,-0.03744034469127655,-0.6016845703125,-0.1370208710432053
4.060550689697266,-0.671116828918457,10.158143997192383,-0.05678319558501244,-0.7467395067214966,-0.13977293670177462
3.7515664100646973,-0.9546544551849365,10.029985427856445,-0.07049746811389923,-0.9294592738151551,-0.14524565637111667
4.383210182189941,-0.31735274195671087,10.150533676147461,-0.10603117197752,-1.1357460021972656,-0.11256211251020433
3.3914048671722417,-0.007950499653816223,10.159200668334961,-0.18704837560653687,-1.3578548431396484,-0.06560368090867998
3.9105377197265625,-7.984042167663574e-05,10.465785026550295,-0.253467321395874,-1.6388376951217654,-0.05177193135023117
3.667269229888916,-1.1816983222961426,10.755836486816406,-0.27759221196174627,-1.831087589263916,-0.05024169385433197
3.499866008758545,-0.780459225177765,9.781797409057617,-0.16214685142040255,-2.178190231323242,-0.08883576840162279
4.396777629852296,-1.0119891166687012,9.800528526306154,-0.13566601276397705,-2.434906005859375,-0.17214260995388034
4.135310173034668,-0.7416861057281494,9.70362186431885,-0.04918419942259789,-2.764084815979004,-0.21390496194362643
4.3012146949768075,-0.8404287695884706,10.234719276428224,0.10492024570703508,-3.1386780738830566,-0.2183646261692047
4.404959678649902,-1.5391390323638916,10.493087768554688,0.33616065979003906,-3.584866285324097,-0.25450581312179565
4.485865592956543,-2.34690523147583,10.314280509948732,0.5818055868148804,-4.114592552185059,-0.2717563211917878
5.628324985504151,-2.4293665885925293,10.785337448120117,0.6523023247718812,-4.622291564941406,-0.2505204379558564
9.150485038757326,-3.036205291748047,13.308796882629396,0.6701548099517822,-4.864220142364503,-0.23692174255847934
11.697881698608398,-3.883614778518677,14.07899284362793,0.6449469327926636,-4.797569751739503,-0.17073571681976318
15.544078826904297,-6.345786571502686,13.089027404785156,1.1276403665542605,-4.7846741676330575,-0.3168133497238159
24.27947235107422,-2.2415611743927006,15.19445323944092,1.7572736740112305,-4.577082157135011,-0.554368257522583
28.04305648803711,0.4099615216255188,8.862389564514162,1.7521928548812868,-4.374920845031738,-0.8512567281723022
28.99529838562012,-0.6674811840057373,4.601424217224121,2.026052951812744,-4.309061527252198,-1.2534704208374023
31.39413642883301,0.4764247834682465,6.886479854583741,2.54526424407959,-4.206324577331543,-1.6988071203231814
27.197938919067386,5.606630802154542,4.833085536956788,2.4758608341217045,-4.30181884765625,-2.1082952022552495
39.735107421875,7.32188606262207,15.788305282592773,1.4862178564071657,-4.046659469604492,-2.386983871459961
29.849239349365234,4.409052848815918,17.16703605651856,0.12915918231010437,-2.777415990829468,-2.3020920753479004
25.067123413085938,2.7499375343322754,15.047686576843263,-1.0201007127761843,-2.1582338809967045,-2.250256061553955
21.519363403320312,0.4969960749149323,13.957656860351562,-1.740126132965088,-1.6936284303665163,-2.2230234146118164
16.94350814819336,-2.2793433666229252,12.276700019836428,-2.1589293479919434,-1.3313759565353396,-2.168026208877564
13.449525833129883,-6.9883742332458505,11.268688201904297,-1.9101997613906863,-1.044323444366455,-2.1121246814727788
10.294093132019045,-10.025150299072266,10.447726249694826,-0.769485354423523,-0.7997229099273682,-1.9900506734848025
6.466738700866699,-9.665816307067873,9.953469276428224,0.558255970478058,-0.5873075723648071,-1.8005033731460574
3.936935663223267,-6.13957166671753,11.549327850341797,1.286008596420288,-0.4394355714321137,-1.5249389410018923
2.584762334823609,-2.949318647384644,13.029398918151857,1.1938188076019287,-0.1088862642645836,-1.1088144779205322
0.6405055522918701,-2.1833276748657227,12.403319358825685,0.7219925522804261,0.4842455685138703,-0.7045280933380127
-3.352904796600342,-3.4990875720977788,9.817610740661623,0.4050081074237824,1.0844199657440186,-0.44800505042076116
-6.497386932373047,-4.481811046600343,8.047244071960451,0.38309636712074285,1.4167661666870117,-0.3454627990722656
-6.702796459197999,-3.6324942111969,8.142391204833984,0.3488481044769287,1.6411980390548708,-0.24158668518066406
-6.666009902954102,-2.6847512722015385,8.00914192199707,0.18855540454387668,1.9542399644851687,-0.08729666471481323
-8.12094020843506,-2.9259824752807617,6.753879070281983,-0.05501869320869446,2.2892153263092045,0.10055045783519745
-9.492652893066406,-3.8000867366790776,4.810324668884277,-0.16176888346672058,2.454787969589234,0.26857796311378485
-9.990471839904787,-3.546981573104859,3.4634635448455815,-0.20928442478179932,2.514342069625855,0.44021373987197876
-9.110620498657227,-2.766107320785523,3.714274644851685,-0.3632528483867646,2.5873129367828374,0.6009424924850464
-8.203237533569336,-2.535792350769043,3.7833099365234375,-0.5635932087898256,2.7719650268554688,0.7715733647346498
-7.929775238037109,-2.5358893871307377,3.0687353610992436,-0.7059990763664247,3.0044989585876465,0.9104499816894531
-7.752055644989015,-2.175236701965332,2.07692289352417,-0.8075997829437256,3.166939973831177,1.0268335342407227
-6.611850738525391,-1.751953959465027,2.1093537807464604,-0.9356970191001893,3.288024187088013,1.1216211318969727
-4.781411170959473,-1.419957518577576,2.5592324733734135,-1.0683280229568484,3.4684391021728516,1.2507122755050661
-3.2352352142333984,-0.6823074221611024,2.366787910461426,-1.170675873756409,3.7116050720214844,1.4064617156982422
-2.0977294445037846,1.1966756582260134,1.7873361110687256,-1.3291765451431277,3.8786048889160156,1.5310834646224978
0.38940316438674927,2.1464052200317383,1.9341964721679688,-1.5732678174972536,3.976598501205445,1.540773868560791
3.126216411590576,1.5954755544662478,2.3672702312469487,-1.6032892465591433,4.059321403503418,1.4244774580001833
5.619275569915772,2.5627753734588627,2.5399434566497807,-1.4569383859634402,4.1254987716674805,1.2735600471496582
8.562904357910156,3.796432256698609,2.252687454223633,-1.4022561311721804,4.141063690185547,1.0911515951156618
11.486734390258789,2.9550716876983647,1.5084136724472048,-1.267981767654419,4.036261558532715,0.8788377642631532
14.233252525329592,2.5051367282867436,0.7721706628799438,-0.9594643712043763,3.776618003845215,0.6987357735633851
16.265062332153324,2.0801508426666264,-0.027545645833015442,-0.6659577488899232,3.3778786659240723,0.5991570949554443
17.509408950805668,1.081362247467041,-0.5937278270721436,-0.3661907017230988,2.8646926879882812,0.6404846310615541
18.328048706054688,2.654024124145508,-0.38193479180336004,-0.14355698227882385,2.2587356567382812,0.800337851047516
20.2350025177002,3.9020605087280273,-0.015654675662517548,-0.22800683975219727,1.7321213483810427,0.9455738067626953
19.74524688720703,2.6059334278106694,-1.2886167764663699,-0.18351788818836215,1.2374067306518555,0.9597377777099609
17.259326934814453,2.1998555660247807,-3.4648339748382573,0.08355710655450822,0.6315398216247559,0.9106853604316713
13.195194244384766,2.5972847938537598,-6.347822189331055,0.2565290033817292,-0.14348100125789645,0.9026774168014526
11.357931137084961,7.458112239837647,-8.910268783569336,0.08078531175851823,-1.1818947792053223,0.9438148140907289
84.90315246582031,35.60637664794922,66.39404296875,-4.2147183418273935,-2.346817970275879,0.8383574485778809
-9.62345600128174,7.11536979675293,-19.847698211669922,0.08643241226673126,4.363569736480714,-1.2086200714111328
20.068246841430668,-12.917281150817873,21.44363021850586,-1.2691272497177126,1.901168465614319,0.41472840309143066
-10.479829788208008,6.402011394500733,9.337030410766602,0.004897185601294041,2.566962003707886,0.21200120449066162
-0.9229925274848939,-4.688982486724854,17.85248565673828,-0.06264834105968475,1.0877417325973513,0.0006177574978210033
-2.5896890163421635,-10.648266792297365,12.222056388854982,0.06372489035129547,0.03278747573494912,-0.15738356113433838
3.181690931320191,-0.3336032927036286,11.57373046875,0.17685480415821078,-0.4922690689563752,-0.3539690375328064
6.83984375,-0.9877972006797792,8.32316303253174,0.18376155197620395,-0.48399627208709717,-0.4586499631404877
8.386241912841797,2.1025130748748784,7.895630836486816,0.1803804785013199,-0.15528744459152222,-0.30885982513427734
6.718462944030762,2.50271487236023,8.717580795288086,-0.0021582066547125582,0.13729238510131836,-0.05972668901085854
4.792550086975098,0.34229767322540283,9.632052421569826,-0.07223229855298997,0.2714738547801972,0.05631973594427109
3.7937278747558594,-1.0322486162185671,10.09211826324463,-0.1090349778532982,0.21831750869750977,0.0894041880965233
3.725131034851074,-0.689944863319397,10.017326354980469,-0.14314022660255432,0.07450465112924577,0.07191438227891923
4.353532314300538,0.05964165925979614,9.958819389343263,-0.1948186457157135,-0.028044415637850765,0.07623420655727386
4.388197898864746,0.4733518362045288,9.917848587036133,-0.2820856869220734,-0.07642982155084611,0.13001444935798645
4.58270025253296,-0.4607476890087128,9.985681533813477,-0.3366658687591553,-0.12297867983579637,0.182901531457901
4.268389701843262,-0.7258132696151733,9.935174942016602,-0.3554189205169678,-0.20180250704288485,0.18249790370464328
4.1037869453430185,-1.3127053976058962,9.758591651916506,-0.3379977643489838,-0.277393639087677,0.15534295141696933
4.565792083740234,-0.9635255336761475,9.738648414611818,-0.3244783878326416,-0.3390766978263855,0.1112041398882866
4.563981056213379,-0.9198036193847656,9.573056221008303,-0.3449374735355378,-0.35304760932922363,0.11595716327428819
4.79127311706543,-0.6394096612930298,9.726567268371584,-0.35942208766937256,-0.3784880340099335,0.11579009145498277
4.651732444763184,-1.0613144636154177,9.413625717163086,-0.3585236072540283,-0.3675168454647065,0.13282975554466248
4.920226573944093,-1.6427404880523682,9.195379257202148,-0.32109004259109497,-0.3440092206001282,0.11711651831865312
4.868310451507569,-1.396538496017456,9.306031227111818,-0.28208926320075994,-0.3242894411087036,0.11271167546510698
4.911735534667969,-0.9601368308067323,9.447268486022951,-0.26708766818046575,-0.32293397188186646,0.11976964771747589
4.855318069458008,-0.8242663741111756,9.396061897277834,-0.2791535258293152,-0.3135249316692353,0.13653209805488586
4.7089948654174805,-1.3039618730545046,9.200021743774414,-0.27677589654922485,-0.30962735414505005,0.14060576260089877
4.960474014282227,-1.1020025014877322,9.280127525329592,-0.2713457643985749,-0.30808067321777344,0.14820514619350436
4.912569522857667,-1.402132511138916,9.0613489151001,-0.25249180197715765,-0.2941294312477112,0.13642466068267822
5.000498294830323,-1.1650900840759277,9.091228485107422,-0.23946268856525424,-0.2668316960334778,0.1392178684473038
4.75407361984253,-1.4795755147933962,9.124320983886719,-0.21298572421073914,-0.24813026189804077,0.11976281553506853
4.990689754486085,-1.504465103149414,9.115908622741701,-0.18582037091255188,-0.22213034331798556,0.10369348526000977
4.783698558807374,-1.9132806062698366,8.872956275939943,-0.15154770016670227,-0.19819159805774691,0.08137299865484239
5.025579452514648,-2.1587700843811035,8.742899894714357,-0.098322831094265,-0.17070138454437256,0.03599656745791436
5.199653148651124,-1.8253300189971924,8.780288696289062,-0.044447328895330436,-0.11732988804578783,0.002470419742166996
5.260222911834718,-1.414227604866028,8.812994956970217,-0.010229479521512985,-0.05340548232197762,-0.008938411250710487
5.098050117492676,-1.420715570449829,8.785436630249023,-0.0024598524905741215,0.013516695238649847,-0.005742756184190513
5.148194313049316,-1.7154922485351562,8.73951530456543,0.03913387656211853,0.0661471262574196,-0.02509855106472969
5.26526689529419,-1.7302796840667725,8.648816108703615,0.09082192927598955,0.14415358006954196,-0.051734067499637604
4.953033924102784,-1.578097224235535,8.777231216430664,0.13058774173259738,0.20418426394462585,-0.06544502824544908
4.839832305908203,-1.0425162315368652,9.22628402709961,0.13966606557369235,0.19917941093444824,-0.05759742856025696
4.496635437011719,-1.1050050258636475,9.512251853942873,0.120420902967453,0.19057346880435946,-0.042121194303035736
4.474195957183839,-1.477772355079651,9.265799522399904,0.13997256755828857,0.13054212927818298,-0.07157941907644273
4.3674941062927255,-1.1532193422317507,9.355791091918945,0.18222452700138095,0.08424785733222961,-0.10309965163469316
4.6117873191833505,-0.8272897601127626,9.652870178222656,0.1848205327987671,0.03502986207604409,-0.11665878444910051
4.41571044921875,-1.0533380508422852,9.543607711791992,0.14893466234207153,-0.028976971283555034,-0.11376997828483582
4.12781572341919,-0.45184022188186646,9.905619621276857,0.09976913779973985,-0.1366684287786484,-0.11592313647270203
4.030688285827637,-0.5699448585510254,10.132391929626467,0.04782123863697052,-0.27463403344154363,-0.09666448831558228
3.9572529792785645,-1.27263081073761,10.001183509826662,0.03829834982752801,-0.4598144292831421,-0.10335837304592133
4.026488780975343,-0.8513475060462953,9.971165657043459,0.03863838687539101,-0.662316083908081,-0.12566389143466952
4.428732872009277,-0.46436023712158203,10.23815441131592,-0.033670630306005485,-0.863489329814911,-0.12380507588386536
3.7394886016845703,0.12355028092861176,10.389246940612795,-0.16526977717876437,-1.0646240711212158,-0.08758004754781724
4.038115024566651,-0.5065858960151673,10.200568199157717,-0.23211517930030823,-1.341457009315491,-0.06281080096960069
4.009221553802491,-0.4018111228942871,10.354333877563477,-0.30127155780792236,-1.6065856218338015,-0.06631825864315033
3.7645797729492188,-1.4904146194458008,10.463107109069826,-0.2836419045925141,-1.8651987314224245,-0.0935019850730896
3.725950956344605,-1.6083550453186035,9.784483909606935,-0.09128166735172272,-2.193464040756226,-0.14276471734046936
4.247498512268066,-1.2375172376632693,9.862890243530273,-0.020885555073618892,-2.5636863708496094,-0.19485831260681152
3.930277585983277,-0.7738265991210938,10.248819351196289,0.10614085942506792,-3.0143351554870605,-0.2256654649972916
4.368718147277832,-1.0015153884887695,10.59279537200928,0.2878473401069641,-3.457367420196533,-0.2628519237041474
5.196674823760987,-2.8996353149414062,10.370946884155273,0.49726492166519165,-3.9414908885955815,-0.30188941955566406
5.731574535369874,-2.193584442138672,10.754154205322266,0.620531439781189,-4.3792481422424325,-0.2608045041561127
7.907193183898926,-2.3607993125915527,12.502139091491701,0.5725576877593994,-4.587579250335694,-0.1711488962173462
11.194285392761232,-3.2973294258117676,13.536808013916016,0.5701018571853638,-4.614224433898926,-0.08503345400094987
14.358328819274904,-6.378670692443848,11.614289283752443,1.108173489570618,-4.594417572021484,-0.195935532450676
21.328948974609375,-5.212768077850343,13.58638095855713,2.157042980194092,-4.5150771141052255,-0.35402110219001776
27.596420288085938,1.503190875053406,10.144319534301758,2.487589597702027,-4.160733222961426,-0.5928714871406556
29.165245056152344,2.5284509658813477,7.075473785400391,2.5139420032501225,-3.9657752513885502,-1.0111191272735596
29.911676406860355,4.171840667724609,6.165278911590577,2.136727571487427,-3.828902244567871,-1.348873019218445
23.021282196044922,5.095174312591554,3.978650808334351,1.6528403759002686,-3.9625618457794194,-1.8936432600021365
36.413951873779304,4.7319350242614755,13.934557914733888,0.871908724308014,-4.286046028137207,-2.365132570266724
30.454828262329105,1.2941728830337527,16.7110595703125,0.18604107201099399,-3.1200377941131596,-2.3308491706848145
24.949560165405277,-0.1348766535520554,14.112249374389648,-0.5081041455268861,-2.619783878326416,-2.1982328891754155
21.926597595214844,-2.00846004486084,13.185171127319336,-0.75149804353714,-2.3283915519714355,-2.184744358062744
18.322738647460938,-3.102690935134888,12.291645050048828,-0.8279742002487183,-2.192160844802857,-2.117767810821533
16.091262817382812,-4.388143539428711,12.69354248046875,-0.8103556632995605,-2.0274205207824707,-2.0318582057952885
14.332008361816406,-6.313024520874023,13.08926010131836,-0.5370179414749146,-1.6939464807510378,-1.8538296222686768
11.671483993530273,-7.305468559265137,13.167047500610352,-0.015361704863607885,-1.220618486404419,-1.6217501163482666
8.111584663391115,-7.244790554046632,13.320919990539553,0.5100468397140503,-0.7209920287132264,-1.3688023090362549
5.007090091705323,-5.694179534912109,12.921947479248047,0.8395168185234071,-0.2478064447641373,-1.0850579738616943
1.1905641555786133,-4.401895999908448,11.230701446533203,0.8767605423927308,0.1766485869884491,-0.7919172644615174
-2.0108389854431152,-3.6512172222137456,9.617801666259766,0.7652221918106079,0.4896595180034638,-0.5573706030845643
-3.404718637466431,-2.7718605995178223,9.264158248901367,0.48638483881950384,0.7575839757919312,-0.3110437691211701
-3.589169502258301,-2.551550149917603,9.592862129211428,0.12283346801996232,1.15088164806366,-0.07135464251041412
-4.556501865386964,-3.6721110343933105,9.168122291564943,-0.08091695606708527,1.6329995393753054,0.12485851347446442
-5.959979057312012,-4.412571907043457,7.719646453857422,-0.07084736973047258,2.0655555725097656,0.2946276068687439
-7.8931946754455575,-4.71144723892212,5.81572151184082,0.10282270610332489,2.3225920200347905,0.4408828616142273
-8.977824211120607,-3.977231502532959,4.834812164306641,0.2059098929166794,2.411324262619019,0.6022830009460449
-8.8613977432251,-2.6331861019134526,4.334898948669434,0.07713240385055542,2.523072957992554,0.784514307975769
-9.320109367370607,-2.2784516811370854,3.0373795032501225,-0.18072788417339328,2.677067756652832,0.9225014448165894
-9.451294898986818,-2.3402221202850346,2.18557071685791,-0.4216361343860627,2.733659267425537,1.0428258180618288
-7.961850166320801,-2.135130643844605,2.8362650871276855,-0.6578393578529359,2.832684755325318,1.183084487915039
-6.861798763275147,-2.370345830917359,2.977430820465088,-0.7960154414176942,3.072422981262207,1.3106125593185427
-6.059053897857667,-2.3158895969390874,2.3285448551177983,-0.8589248061180116,3.326720714569092,1.446552038192749
-5.1913957595825195,-1.4444926977157595,1.748451113700867,-0.9135292172431947,3.5003552436828613,1.5991541147232058
-3.1851806640625,-0.02293221279978752,2.1592600345611577,-1.080618143081665,3.699399471282959,1.7702120542526247
-1.5807199478149414,1.5533292293548584,2.043850660324097,-1.2981919050216677,3.9373250007629395,1.904785752296448
0.3415159583091736,2.6605789661407475,1.5040131807327273,-1.4887079000473025,4.111459732055664,1.9264333248138428
2.5215396881103516,3.3543355464935307,0.9229087829589844,-1.5156257152557373,4.187176227569581,1.799461841583252
5.273111343383789,3.965901136398316,0.6288059353828431,-1.3925328254699707,4.175595283508301,1.541539788246155
8.201700210571289,3.7931442260742188,0.702717661857605,-1.1468451023101807,4.104114055633546,1.203005313873291
10.599539756774904,3.9563021659851074,0.7732198834419252,-0.8290683627128602,3.975766658782959,0.871056079864502
13.156559944152834,4.085739612579347,1.1165035963058474,-0.6338979005813599,3.783117055892945,0.587775468826294
15.275086402893068,2.508037567138672,1.5743125677108767,-0.47414019703865057,3.5578610897064213,0.40995997190475464
16.58008575439453,2.294921398162842,1.4149821996688845,-0.2922638952732087,3.2999043464660645,0.4466486871242524
17.766407012939453,2.6838741302490234,0.6921240091323853,-0.30187517404556274,2.9234974384307866,0.6030891537666322
18.625501632690433,1.9064027070999148,-0.08061118423938751,-0.3152559101581574,2.4724807739257812,0.8108119368553163
18.550687789916996,2.2056200504302983,-1.3406416177749636,-0.27634051442146307,1.9627183675765993,1.0742592811584473
16.47402572631836,2.2959501743316655,-4.807559967041016,-0.23409336805343628,1.3123718500137331,1.3200316429138184
12.487127304077148,2.5269927978515625,-7.91652536392212,-0.10947848856449127,0.32159039378166204,1.4983261823654177
31.184259414672855,7.863877773284913,-12.198652267456055,-0.028647135943174362,-1.0609027147293093,1.3855221271514893
65.86205291748048,26.32548332214356,52.46472930908203,-1.0565911531448366,1.7742439508438113,0.13209381699562073
2.082758188247681,-11.260960578918459,7.954668045043945,0.3280620574951172,2.0827591419219975,-0.432373583316803
-1.0193581581115723,-12.48413944244385,8.413485527038576,0.32849812507629395,2.6711075305938725,0.3365601003170014
-9.886371612548828,0.3640347719192505,13.397045135498047,0.45923194289207464,0.8613322973251343,-0.15640403330326083
1.680037498474121,-4.92361879348755,12.56102180480957,0.6292324066162109,0.14305010437965393,-0.9809958338737489
2.2325901985168457,0.8249166607856752,12.232869148254396,0.4423238933086396,-0.5580363273620605,-0.6290346980094911
6.543189525604249,5.6320295333862305,10.33570671081543,0.2526061832904816,-0.5497300624847412,-0.4889540672302246
8.565267562866211,-0.7336267828941346,7.852693557739258,0.07882521301507951,-0.21671566367149353,-0.22163160145282748
7.614150524139405,-0.8364299535751343,8.193881034851076,0.07106346637010576,0.18617509305477145,-0.06821179389953613
5.389068603515625,-0.7429944872856141,9.236996650695803,0.10256373882293701,0.45261231064796453,-0.041795507073402405
4.113101482391358,-1.2973250150680544,9.694246292114258,0.13806182146072388,0.49356660246849066,-0.06716264039278032
3.816447973251343,0.2934700846672058,10.239025115966797,0.09955006837844849,0.406350463628769,-0.03582727909088135
4.197121620178223,0.44579401612281805,10.098360061645508,0.020760435611009598,0.3120241165161133,0.02693705074489117
4.057096958160401,-0.6227356195449829,9.826874732971193,-0.0075247115455567845,0.24647024273872375,0.05421965941786767
3.8744347095489506,-1.179401516914368,9.958732604980469,0.016110761091113094,0.16288188099861145,0.028730317950248718
3.7942512035369877,-0.8166505098342896,10.018749237060547,0.024326620623469356,0.062172599136829376,-0.004874289501458407
4.10554313659668,-0.28041326999664307,10.028858184814453,0.003423582529649139,-0.021076260134577755,-0.007597772404551506
4.485129833221436,-0.41211092472076416,9.815657615661623,-0.02747215144336224,-0.05305726081132889,0.01197261828929186
4.637804508209229,-0.3503671884536743,9.706269264221193,-0.045767247676849365,-0.050926458090543754,0.034254293888807304
4.20267152786255,-0.7008001804351807,9.663882255554201,-0.06375543028116228,-0.04798676818609238,0.059348288923501975
4.170282363891602,-0.6104987263679506,9.859360694885256,-0.08205585181713104,-0.09988157451152802,0.05677304789423943
4.280449390411378,-0.7086496353149414,9.77352523803711,-0.09798692166805267,-0.13799007236957553,0.06012894958257675
4.1837968826293945,-0.6038817763328553,9.600072860717773,-0.10129912197589874,-0.17436526715755465,0.057436365634202964
3.999940633773804,-0.6597161293029785,9.851587295532227,-0.11901949346065521,-0.22576697170734408,0.06489594280719757
4.1186723709106445,-0.7500956058502197,9.917398452758789,-0.12312360107898712,-0.2905882000923157,0.05089065060019494
4.049307346343995,-0.6797367334365845,9.72323989868164,-0.14539520442485812,-0.3470109701156616,0.040967140346765525
4.236252307891847,-0.5579805374145508,9.791027069091797,-0.16866411268711093,-0.40358126163482666,0.04394450783729553
4.461135387420655,-0.5330643653869629,9.732479095458984,-0.1944406181573868,-0.46270090341567993,0.02698002196848393
4.395474433898926,-0.4956229329109192,9.680185317993164,-0.2316692024469376,-0.4970833361148835,0.054898835718631744
4.52066707611084,-0.9072809219360352,9.618988037109375,-0.24272690713405612,-0.54512619972229,0.05096812918782235
4.316653251647949,-1.2155693769454958,9.431252479553224,-0.24482263624668124,-0.5826176404953003,0.05345933139324188
4.579945087432862,-0.9503376483917236,9.40475845336914,-0.22643408179283142,-0.619718372821808,0.030689794570207596
5.044497966766358,-0.8701398968696595,9.259490966796875,-0.20471812784671786,-0.6284936070442201,0.023629941046237946
4.918809413909913,-0.8869633674621582,8.970726966857912,-0.24090190231800082,-0.5832952260971069,0.010631217621266844
4.9908037185668945,-0.9443297386169434,8.91261959075928,-0.2235996127128601,-0.5586795210838319,0.01361715141683817
5.009967803955078,-1.0235552787780762,9.170882225036623,-0.20381142199039462,-0.515959620475769,0.011673239059746267
4.505058288574219,-1.3230396509170534,9.163581848144531,-0.18371744453907016,-0.5158109068870546,0.002391260117292404
4.582697868347168,-2.2476079463958745,9.051733016967773,-0.11194488406181335,-0.5270584225654603,-0.04348127543926239
5.039520263671875,-1.6635378599166872,8.899840354919435,-0.028782499954104427,-0.5654089450836182,-0.09364138543605804
5.12440299987793,-1.4649016857147217,9.031899452209474,0.009513801895081999,-0.5438432693481445,-0.13111077249050143
5.210118770599366,-1.0762926340103152,8.871988296508789,0.0488029606640339,-0.5333985686302186,-0.13040390610694885
5.224126338958741,-0.8637048006057739,9.151338577270508,0.0660136714577675,-0.5185976028442383,-0.1129705384373665
4.916391372680664,-1.0265190601348877,9.155509948730469,0.0932501330971718,-0.5436645746231079,-0.11338785290718079
4.961427688598633,-1.1560661792755127,8.941213607788086,0.0987285301089287,-0.5844920873641968,-0.13734509050846103
4.9413161277771005,-1.196700096130371,9.09807014465332,0.121813602745533,-0.6239989399909974,-0.17085489630699158
4.83811092376709,-0.8338798880577089,9.100839614868164,0.13318032026290894,-0.6922554373741151,-0.18839192390441895
5.166887283325195,-0.4157945513725281,9.080936431884766,0.11540506780147552,-0.7651868462562562,-0.18441082537174228
5.018232822418214,-0.560106635093689,9.106795310974123,0.10031790286302568,-0.835689902305603,-0.1838185638189316
4.7337384223938,-1.0219231843948366,9.455154418945312,0.11107357591390611,-0.9430260062217714,-0.2100905179977417
4.680590152740479,-1.3075969219207764,9.206300735473633,0.14443813264369967,-1.0642926692962646,-0.26407322287559515
5.334428310394288,-1.1051771640777588,8.667472839355469,0.17406661808490756,-1.1772608757019043,-0.31695789098739624
5.761503219604492,-0.8335782289505005,8.915769577026367,0.18642744421958923,-1.2203842401504519,-0.3253393769264221
6.106550216674805,-0.6315806508064271,8.713717460632326,0.1852334439754486,-1.2620222568511963,-0.31167533993721014
5.916638374328613,0.017859235405921936,9.35879421234131,0.15282940864562988,-1.2954949140548708,-0.26081526279449463
5.559732913970948,-0.7511515021324159,8.910070419311523,0.15399888157844543,-1.387278199195862,-0.23767636716365817
5.654248714447022,-1.4916179180145264,8.811325073242188,0.22176395356655124,-1.5137438774108887,-0.27251669764518743
5.164824485778809,-1.1226725578308105,9.170110702514648,0.2998729348182678,-1.696077585220337,-0.3228002488613129
4.974649906158448,-1.5082130432128906,9.092203140258789,0.3807138204574585,-1.935984253883362,-0.4017517566680908
5.032439231872559,-1.6608883142471316,8.901836395263672,0.5198032855987549,-2.2408468723297124,-0.5346414446830751
5.5278472900390625,-1.4379148483276367,8.307741165161133,0.654833495616913,-2.5839247703552246,-0.6601787209510804
5.494577407836914,-1.2078515291213991,8.121271133422852,0.7201719284057617,-2.964053153991699,-0.7556158900260926
6.216198921203613,-1.0846607685089111,8.33152961730957,0.8145599365234375,-3.4207160472869877,-0.7872909307479858
6.291700839996339,-0.6302328109741211,8.127747535705568,0.9198377132415771,-3.873677492141724,-0.820593297481537
7.522148132324219,0.2817426919937134,8.08647346496582,0.9733175039291382,-4.403778553009034,-0.7692780494689941
8.678852081298828,0.8821081519126893,8.622396469116211,0.9267315268516542,-4.963260173797608,-0.4986647367477417
8.926793098449709,2.202810764312744,9.875662803649904,0.812086820602417,-5.438348293304444,-0.2229936122894287
11.013092041015625,1.5300378799438477,10.421743392944336,0.6509506106376649,-5.460000991821289,-0.03896845132112503
13.665966987609865,0.3774847388267517,10.963900566101076,0.6127031445503236,-5.024962425231934,-0.04976118728518487
16.142059326171875,-1.3946073055267334,10.45792865753174,0.8394794464111328,-4.360231399536133,-0.21605853736400607
21.019031524658203,-0.369329571723938,10.516069412231445,0.7188177108764648,-3.8571426868438725,-0.1927926242351532
24.612689971923828,-0.4012795984745026,10.07363033294678,-0.03395166993141174,-3.188705682754517,0.02469314076006413
19.94595718383789,0.7314249277114868,5.590335845947266,-0.5830155611038208,-2.6722977161407475,-0.14008376002311707
16.61917495727539,-1.9763549566268923,0.8805938959121704,-0.4317431747913361,-2.6395218372344975,-0.7258535623550415
16.74148178100586,-0.33187893033027654,-4.327727794647218,0.7527651786804199,-3.182735681533814,-1.679776906967163
19.479085922241214,3.764401435852051,-4.384310245513917,1.773090720176697,-3.798492908477783,-2.753610610961914
20.74340629577637,9.09068489074707,-1.2265191078186035,2.3374457359313965,-4.104189395904542,-3.9082040786743164
23.5238208770752,13.938348770141602,0.8230252861976625,1.8460514545440674,-4.514737129211426,-4.727067470550538
31.691730499267578,13.048057556152344,11.097043991088867,0.18769945204257968,-4.120885848999023,-4.977593898773194
24.687549591064453,6.544086456298828,9.29532241821289,-1.5614939928054812,-3.119818687438965,-4.818808555603027
22.910938262939453,-1.1954480409622195,7.970500469207765,-2.2296857833862305,-2.554278135299683,-4.537446975708008
18.860174179077152,-6.978928565979004,6.180347442626953,-1.601224422454834,-2.2396183013916016,-4.132573604583741
14.636920928955078,-8.748113632202148,5.100876331329347,-0.3808523416519165,-2.1954157352447514,-3.6808080673217773
12.617117881774904,-7.682256221771241,6.395292758941651,0.755885124206543,-2.2539675235748295,-3.186024427413941
11.660223960876467,-5.593059539794922,8.79396152496338,1.2373950481414795,-2.137604951858521,-2.607095718383789
10.413007736206055,-5.443014144897461,10.893416404724123,1.2552506923675537,-1.758732557296753,-2.0292389392852788
8.37925910949707,-5.453468322753906,12.280487060546875,1.1691169738769531,-1.2079774141311648,-1.5043489933013916
6.366384029388429,-5.501093387603761,13.311841011047365,1.0022623538970947,-0.5860186219215394,-1.0147277116775515
4.501485824584961,-5.30450439453125,14.128974914550781,0.8296638131141664,0.09717510640621185,-0.5940479636192323
2.716288805007935,-4.734499454498292,14.296918869018555,0.6093426942825317,0.838386058807373,-0.23197887837886813
0.30717930197715765,-4.349298954010011,13.17125988006592,0.3340264558792114,1.5175408124923708,0.07784588634967804
-2.308724641799927,-4.286606311798097,11.102896690368654,0.09812729805707933,2.0002565383911133,0.3613829016685486
-4.257781982421875,-3.7389822006225586,8.988042831420898,-0.08421792089939117,2.242186784744263,0.6330170631408691
-5.236960411071777,-3.6109716892242436,7.385951042175293,-0.25124090909957886,2.32070255279541,0.902923882007599
-5.098374843597413,-3.2290437221527104,7.046846389770508,-0.3754555583000183,2.3154418468475346,1.164259672164917
-3.9492897987365723,-2.3854012489318848,7.680796146392823,-0.5152360200881958,2.3998911380767827,1.4150904417037966
-3.265999078750611,-2.058925867080689,8.132411003112795,-0.6608002781867982,2.651453971862793,1.6237169504165652
-3.335440874099732,-1.653933882713318,8.061349868774414,-0.7470988631248475,2.951046705245972,1.7409911155700684
-3.0421204566955566,-0.49836820363998413,8.251680374145508,-0.8486757874488832,3.209249496459961,1.782323241233826
-1.9333255290985107,0.5027692914009095,8.600186347961428,-1.0382093191146853,3.507300853729248,1.7542898654937744
-1.4140943288803103,0.9505476951599121,8.42525386810303,-1.2923781871795654,3.8590977191925053,1.6589031219482422
-1.2951403856277468,0.930815577507019,7.736346721649171,-1.521565079689026,4.147231578826905,1.5286304950714111
-0.6948875188827515,1.0735701322555544,7.510357856750488,-1.7270822525024414,4.334947109222413,1.4164612293243408
0.19339671730995178,1.033735752105713,7.48333501815796,-1.9309589862823486,4.518758296966554,1.3253597021102907
0.735608994960785,0.6185675263404847,7.327843189239503,-2.079911708831787,4.677062511444093,1.2423312664031982
1.56321120262146,0.46423423290252686,7.266032695770265,-2.181243181228638,4.753543376922608,1.2024028301239014
2.6235311031341557,0.6591874361038208,7.554917812347413,-2.2493338584899902,4.790515422821046,1.2062127590179443
3.838438749313355,1.394496202468872,8.301592826843263,-2.3637261390686035,4.822996616363526,1.2101954221725466
5.1455750465393075,1.7671934366226199,9.074491500854492,-2.5256104469299316,4.881362438201905,1.2270793914794922
6.374112129211426,2.011696577072144,9.90461826324463,-2.6577575206756596,4.947937488555909,1.2652194499969482
7.749386787414551,2.1800653934478764,10.466039657592773,-2.711886405944824,4.9958558082580575,1.2951035499572754
9.261725425720217,2.903530836105347,10.819590568542482,-2.6784527301788335,4.980646133422852,1.2974591255187988
10.460808753967287,4.177542209625245,10.90905284881592,-2.6228275299072266,4.877123355865479,1.2030210494995117
11.407750129699709,5.851093769073487,11.180940628051758,-2.630628347396851,4.689239978790284,0.9900212287902832
12.417233467102053,7.490784645080566,12.065042495727539,-2.753204822540283,4.4697632789611825,0.6415494680404663
13.453237533569336,8.984966278076172,12.935214042663576,-3.0014023780822754,4.282876491546632,0.16039766371250155
15.081334114074709,10.38531494140625,13.188201904296875,-3.332002401351929,4.118208885192871,-0.365054339170456
16.067449569702152,11.831796646118164,12.499096870422365,-3.731345415115357,3.924916028976441,-0.8746703863143921
16.069377899169922,12.635081291198732,11.419310569763185,-4.117575645446777,3.6766521930694585,-1.4148647785186768
15.65989398956299,13.257694244384766,10.351819038391115,-4.410542011260987,3.351414680480957,-2.02618408203125
16.570497512817386,14.876633644104006,10.066264152526857,-4.703325748443604,2.982670783996582,-2.6059424877166752
18.021385192871094,16.221973419189453,9.989398956298828,-5.0614380836486825,2.7368023395538335,-3.068828582763672
18.087343215942386,16.23013687133789,8.471237182617188,-5.297986030578613,2.6158263683319096,-3.4440932273864746
17.10477066040039,15.179297447204592,5.684329986572266,-5.236344814300538,2.432373523712158,-3.707724094390869
15.93677616119385,12.56728267669678,2.174521684646607,-4.838977813720703,2.039230585098267,-3.8708105087280273
14.994439125061037,8.975370407104492,-1.4430973529815674,-4.099280834197999,1.4279090166091921,-3.979712963104248
14.819481849670412,6.8653883934021005,-4.398996353149414,-3.2972853183746342,0.6575303077697754,-3.9191453456878667
15.460071563720703,6.060307025909425,-6.126804351806641,-2.800445079803467,-0.16645513474941256,-3.5607135295867924
22.454906463623047,-18.038248062133793,-1.2614883184432986,-0.026834273710846904,-0.5779658555984497,-3.290030717849732
16.641691207885746,3.4165334701538086,-3.2430117130279545,5.463682651519776,-0.6909177899360658,-4.036685943603516
22.624120712280277,4.701541423797608,16.31216812133789,5.578208446502686,-0.4221770763397217,-2.7574560642242436
20.754108428955078,12.696197509765625,34.41008758544922,1.7210623025894167,1.0204412937164307,-0.5214556455612183
-12.04897689819336,2.6933190822601323,1.2319610118865967,0.8856135606765747,1.1796125173568728,-0.28164035081863403
4.475096225738526,-5.732965469360352,15.13931655883789,0.9659897685050965,-0.38627776503562933,-0.767196774482727
7.449731826782227,7.507455825805664,13.80068111419678,0.8110318779945375,-0.4571526050567627,-0.5577486157417298
5.291813850402832,8.74043083190918,12.179030418395998,0.355197161436081,-0.11206218600273132,-0.20760685205459595
4.125014781951905,6.6447906494140625,12.956790924072266,0.1017495021224022,-0.11920967698097229,-0.136204406619072
2.8427248001098633,-0.8762946128845215,9.257133483886719,-0.029784556478261948,-0.10795143246650696,-0.11363095790147783
4.537644863128663,-0.783440113067627,9.719101905822756,0.04774001985788345,-0.23068036139011386,-0.1507701277732849
5.047893047332765,-1.599927067756653,8.985404014587404,0.026634937152266506,-0.09609527885913849,-0.15030714869499207
5.105663299560547,-2.38695502281189,9.16108512878418,0.1164357289671898,0.0029264758341014385,-0.12935452163219455
4.586740970611573,-1.4955008029937744,9.412878036499023,0.1613147705793381,0.06563111394643785,-0.12403123080730438
4.282418251037598,-1.7659274339675906,9.64387321472168,0.19166451692581177,0.0784171149134636,-0.12955015897750854
4.341937065124512,-0.8867257833480835,10.001959800720217,0.19838690757751465,0.06756544858217241,-0.11924134939908983
4.4170289039611825,-0.28705081343650823,10.045022964477539,0.1714593470096588,0.0856374576687813,-0.08863359689712524
4.4396986961364755,-0.12334276735782623,9.967207908630373,0.12538315355777743,0.0975296273827553,-0.05386010557413101
4.217460155487061,-0.3004736304283142,9.991312026977539,0.08956839144229889,0.09636595100164415,-0.029183272272348404
4.078136920928956,-0.3753549158573151,10.03533935546875,0.052312705665826804,0.07858666777610779,-0.013258758932352066
3.765969038009644,-0.7855919599533081,9.865342140197756,0.021585628390312195,0.041606310755014426,-0.0048242611810564995
3.8598515987396245,-0.7001545429229736,9.914539337158203,-0.007260648999363185,-0.013967528007924558,-0.010080140084028244
4.173746109008789,-0.26784658432006836,9.971649169921875,-0.037647847086191184,-0.025593552738428116,-0.00466493470594287
4.197077274322511,-0.4747700095176697,9.870819091796875,-0.0594959668815136,-0.03237447142601013,0.00514199398458004
4.259122371673585,-0.7659058570861816,9.780606269836428,-0.05677913501858712,-0.03612220287322998,0.009665680117905142
4.260472774505616,-0.8202517032623291,9.742918014526367,-0.05655688792467117,-0.035086214542388916,0.014096333645284178
4.178733348846436,-0.8039003610610962,9.690793991088867,-0.05204569548368454,-0.032225068658590324,0.011414065957069397
4.146710395812988,-0.7961983084678651,9.684662818908693,-0.047077588737010956,-0.034868855029344566,0.011926204897463323
