AccX,AccY,AccZ,GyrX,GyrY,GyrZ
0.00010822567855939269,-2.5307756004622206e-05,0.0002563540183473379,-2.8497987969444697e-08,-6.305024271568982e-07,-3.4654769365261023e-07
4.107276916503906,-0.9891095161437988,9.726696014404297,-0.0022522502113133673,-0.024618742987513546,-0.013258630409836769
4.109888553619386,-1.00885546207428,9.719024658203125,-0.001672293175943196,-0.025501880794763565,-0.014536674134433271
4.154437541961671,-0.9485280513763428,9.71804714202881,-0.0012177256867289543,-0.024797948077321056,-0.013921418227255346
4.130359649658203,-0.9931320548057557,9.692855834960938,0.0005575738614425063,-0.022376844659447673,-0.014143725857138634
4.110364437103272,-0.9892908334732056,9.709222793579102,0.0038650517817586665,-0.022570846602320675,-0.01683645322918892
4.139444828033448,-0.9672585129737855,9.681586265563967,0.0037939900066703562,-0.02087700366973877,-0.016812546178698543
4.104465484619141,-0.9692336320877075,9.683312416076662,0.004689272493124008,-0.018830554559826854,-0.017600314691662792
4.124621391296387,-0.9930843114852905,9.709009170532227,0.005299345590174198,-0.018806574866175655,-0.01681063324213028
4.124712467193604,-1.0043144226074219,9.707221984863281,0.008968090638518333,-0.018706414848566055,-0.020761368796229366
4.110445976257324,-0.9727022647857666,9.73378086090088,0.009756948798894882,-0.017748607322573665,-0.022680245339870453
4.114018917083741,-0.9280872941017152,9.706406593322756,0.00873056147247553,-0.018215980380773544,-0.020658474415540695
4.137120723724366,-0.955385982990265,9.71541976928711,0.00758715020492673,-0.01813632994890213,-0.021212784573435787
4.14790153503418,-0.9075935482978822,9.70712661743164,0.008417862467467787,-0.01760991103947163,-0.02111058309674263
4.160116195678711,-0.9090495705604554,9.737914085388185,0.005648924969136715,-0.016572615131735805,-0.018971029669046402
4.130548000335694,-0.928013801574707,9.75497341156006,0.002162916818633676,-0.01753275841474533,-0.015926450490951538
4.124224662780762,-0.9596807956695557,9.745421409606935,0.0002341677172807977,-0.020536385476589203,-0.015393094159662725
4.0893568992614755,-0.9882854223251343,9.691902160644531,0.0007635661750100554,-0.02002992667257786,-0.013530902564525604
4.125142574310304,-0.97862708568573,9.671760559082031,0.0003759805986192078,-0.023173373192548752,-0.015102044679224493
4.125394344329835,-0.9429930448532104,9.705723762512209,0.0003876191040035338,-0.022190410643815994,-0.01580662652850151
4.143986225128175,-0.9499979019165039,9.696123123168945,-0.00024655982269905513,-0.021494820713996887,-0.016683930531144146
4.129811763763429,-0.9735139608383179,9.709755897521974,-0.00016609688464086506,-0.023544812574982647,-0.019129030406475067
4.13642454147339,-0.9488456845283509,9.687774658203125,0.0014215055853128433,-0.023116888478398327,-0.01935594156384468
4.158084392547608,-0.9518001675605775,9.711065292358398,-0.001935998327098787,-0.02455049380660057,-0.017237097024917603
4.165363788604737,-0.9369069933891297,9.713992118835451,-0.0018309933366253974,-0.022242795675992966,-0.015617345459759237
4.159158706665039,-0.9445592761039735,9.702163696289062,-0.0022377918940037493,-0.019839713349938396,-0.012086855247616768
4.170449733734132,-0.9860028624534608,9.677497863769531,-0.001080663991160691,-0.016047712415456772,-0.014297352172434332
4.126520633697511,-0.9632506966590882,9.667729377746584,0.002429562853649259,-0.016819126904010773,-0.014030298218131065
4.133476734161378,-0.979474663734436,9.706759452819826,0.0033607201185077433,-0.01637858897447586,-0.016249423846602443
4.145112037658691,-0.9730644822120668,9.679196357727053,0.003740243380889297,-0.01735838316380978,-0.01629474014043808
4.1314496994018555,-0.9958853721618652,9.6981897354126,0.004981234669685364,-0.017523983493447307,-0.017347075045108795
4.143093109130859,-0.9690278172492982,9.703957557678224,0.006165598984807731,-0.017995521426200867,-0.018361691385507584
4.16810417175293,-0.9510898590087891,9.678855895996094,0.006709087640047073,-0.016611756756901744,-0.02055152878165245
4.168764114379883,-0.9339734315872192,9.730680465698242,0.0072079659439623365,-0.014668720774352552,-0.019993681460618973
4.173910140991211,-0.9262306094169618,9.713003158569336,0.006023906171321869,-0.011707506142556669,-0.018534742295742035
4.1744961738586435,-0.9071477651596069,9.662052154541016,0.005222560837864876,-0.010049120523035528,-0.011737204156816007
4.137083530426026,-0.9587241411209106,9.68160915374756,0.0017811383586376905,-0.010698576457798483,-0.011049827560782433
4.121242046356202,-0.9669723510742188,9.670081138610842,0.002393499249592424,-0.012459914200007917,-0.011507563292980194
4.106349468231202,-0.9944112896919252,9.699490547180178,0.0028453110717236996,-0.015505491755902769,-0.015321481972932816
4.146962642669679,-0.9827829003334047,9.695724487304688,0.004184644669294357,-0.019110249355435375,-0.01775574497878552
4.153770446777344,-0.954256534576416,9.68092441558838,0.004930449184030295,-0.019198313355445862,-0.017520597204566005
4.176771640777589,-0.9370685815811157,9.668776512145998,0.0033505910541862254,-0.017113329842686657,-0.01612226292490959
4.183666229248047,-0.9024800658226014,9.67549228668213,0.0031616601627320056,-0.014207709580659866,-0.014947910793125631
4.168459415435792,-0.9345690011978149,9.696487426757812,0.003537795040756464,-0.011556713841855528,-0.011953768320381643
4.167056560516358,-0.9424189329147339,9.692189216613771,0.0024188666138798003,-0.008019533008337021,-0.010517216287553312
4.144775867462159,-0.9583930373191835,9.694465637207031,0.002745408099144697,-0.005821306258440018,-0.009204081259667875
4.127822399139405,-0.9765229225158691,9.683474540710451,0.0039023063145577908,-0.00675826007500291,-0.010176051408052444
4.114908695220948,-0.9603419303894043,9.71168613433838,0.006025705952197314,-0.01032070629298687,-0.011336162686347961
4.127652645111085,-0.9822633862495423,9.688466072082521,0.004419663455337287,-0.012629885226488113,-0.012163261882960798
4.14183235168457,-0.9380666017532349,9.720871925354006,0.004607623908668757,-0.014098099432885649,-0.012845125049352646
4.166117191314698,-0.9218754768371582,9.706316947937013,0.003559085074812174,-0.016115995123982433,-0.01269751600921154
4.169321060180664,-0.9223600625991821,9.708282470703125,0.0026277948636561636,-0.013204092159867287,-0.011175351217389107
4.203417301177979,-0.9154548048973085,9.676795005798342,0.002893913071602583,-0.009681203402578832,-0.008801829069852829
4.159869670867921,-0.9347403645515443,9.70263195037842,0.002693618182092905,-0.005908802151679993,-0.00758079206570983
4.147876739501953,-0.9599171280860902,9.669756889343263,0.0023600924760103226,-0.005049502942711116,-0.007751055061817169
4.162291049957276,-0.9615423679351807,9.688117980957031,0.005922022275626659,-0.004316980484873057,-0.009699265472590925
4.148928642272949,-0.9731595516204834,9.689959526062013,0.006867515854537487,-0.006183645222336055,-0.0108647421002388
4.120439529418945,-0.9843863248825073,9.677426338195803,0.00895220972597599,-0.003460091073065996,-0.011947921477258207
4.122670650482179,-0.9569286108016968,9.689519882202148,0.010996779426932335,-0.005327975843101741,-0.015488162636756897
4.170536518096925,-0.953566610813141,9.679911613464357,0.011931177228689194,-0.0058101252652704724,-0.01636958681046963
4.161923408508301,-0.9198828935623169,9.71534061431885,0.012072497047483923,-0.0036876294761896133,-0.014479902572929861
4.181075096130371,-0.9410967826843262,9.717756271362305,0.013786814175546171,-0.0020575390662997965,-0.017410844564437866
4.148784637451172,-0.9576971530914307,9.701702117919922,0.016608731821179393,0.0011598172131925821,-0.015554164536297323
4.141650199890137,-0.9372533559799194,9.715018272399904,0.017587637528777126,0.0007629231549799442,-0.015363678336143494
4.146918296813965,-0.9057762622833252,9.716992378234865,0.014865604229271414,0.004023537039756775,-0.01359947118908167
4.112473011016847,-0.9246273040771484,9.69595718383789,0.012571543455123901,0.0022223787382245064,-0.012010729871690275
4.135615348815918,-0.9443286657333374,9.686694145202638,0.011078925803303719,-0.0009812024654820564,-0.014415884390473366
4.164074897766113,-0.9274139404296875,9.712388038635256,0.01117662712931633,-0.0005676322034560145,-0.014990405179560186
4.135742664337159,-0.8855279684066772,9.71941661834717,0.01021325681358576,-0.0003770858165808022,-0.012425209395587446
4.141166210174561,-0.8899493813514711,9.699968338012695,0.00905408151447773,-0.00046878872672095895,-0.009309706278145315
4.128867626190186,-0.9267879724502563,9.704704284667969,0.005772437434643508,-0.0005893601337447762,-0.008345863781869413
4.145491600036621,-0.9349485635757446,9.714176177978516,0.0048650805838406095,-0.002377592958509922,-0.009095592424273491
4.139414310455323,-0.9252980947494507,9.71260738372803,0.004926334600895644,-0.001173123950138688,-0.009013536386191847
4.145842552185059,-0.9198476076126099,9.707601547241211,0.005151538178324699,-0.00164241180755198,-0.009901476092636587
4.12458372116089,-0.9020823240280151,9.705319404602053,0.004160190466791392,-0.0019149142317473888,-0.009576904587447645
4.151521682739258,-0.9263796806335449,9.693617820739748,0.0030131773091852665,0.00016724290617275986,-0.008613661862909796
4.139873027801515,-0.9300491809844971,9.72445297241211,0.0026383504737168555,0.00019458984024822712,-0.008725046180188658
4.143492698669434,-0.9289689064025879,9.707544326782227,0.00236920383758843,0.0004144816484767944,-0.0070709045976400375
4.146218776702882,-0.9177909493446351,9.740798950195312,0.0027915709652006626,0.004464510362595321,-0.006239575333893299
4.15774965286255,-0.9321941137313843,9.709667205810547,0.0012645839015021922,0.003306466154754162,-0.0029961098916828632
4.1419878005981445,-0.9162741899490356,9.706291198730469,0.0010201026452705266,0.005907449871301651,-0.0038197205867618327
4.1559205055236825,-0.9199434518814087,9.713993072509766,0.0006675798795185984,0.008055605925619604,-0.0035605072043836117
4.136616230010987,-0.9575523138046265,9.69692897796631,0.0011809639399871232,0.008469682186841965,-0.0019404845079407098
4.157559871673585,-0.9145766496658325,9.720290184020998,0.0033087353222072124,0.010376955382525923,-0.002452541841194034
4.141547679901124,-0.9276304841041566,9.696070671081545,0.0023367486428469424,0.011327406391501427,-0.00201664655469358
4.1007704734802255,-0.946977972984314,9.721466064453125,0.003913626074790955,0.014906773343682289,-0.002276874845847488
4.107532501220703,-0.9463821053504945,9.717227935791016,0.005209301598370075,0.014533522538840772,-0.001822359161451459
4.0741333961486825,-0.9762513041496278,9.729420661926271,0.006177334114909172,0.014356057159602644,-0.0031278782989829783
4.063247203826905,-0.9365571737289429,9.743013381958008,0.005403041839599609,0.009860862977802755,-0.006151528097689152
4.089568138122559,-0.9370729923248291,9.738937377929688,0.005197484046220779,0.005829017609357834,-0.006313514430075885
4.096036911010742,-0.9230124950408936,9.71806526184082,0.004567832686007023,0.003254000330343843,-0.007393243722617626
4.111917018890382,-0.9027254581451416,9.72964859008789,0.004211639054119587,0.002736788941547275,-0.004425932187587024
4.122801780700684,-0.9039332270622255,9.684152603149414,0.001852008397690952,0.0032258648425340652,-0.005709978286176921
4.1298565864563,-0.9236105680465698,9.722201347351076,0.004249420482665301,0.004603559616953135,-0.00426922831684351
4.113701820373535,-0.9073992371559144,9.735774993896484,0.003999938257038593,0.009059364907443525,-0.002488695550709963
4.107651710510254,-0.8986835479736328,9.733906745910646,0.005209915805608035,0.009849930182099342,-0.002164736855775118
4.071508407592773,-0.9652928113937378,9.727570533752443,0.003796737175434828,0.008476712740957739,-0.0006481872405856848
4.063507556915284,-0.9845135807991029,9.679007530212404,0.006338928360491992,0.004787228535860778,-0.004066598601639271
4.071841239929199,-0.9280347228050233,9.734016418457031,0.006909446325153113,0.002148544415831566,-0.006656876299530269
4.066877365112305,-0.9134358167648315,9.70545291900635,0.005849493201822043,0.00015887871268205345,-0.007547264918684959
4.083932876586914,-0.920112133026123,9.73420524597168,0.0034942971542477608,-0.002161252545192838,-0.009019693359732628
4.080238819122315,-0.9510666131973267,9.742341041564943,0.005056050606071949,-0.006139617413282394,-0.010373045690357687
4.124220848083496,-0.8884705305099487,9.753833770751953,0.004513155203312636,-0.006157095544040203,-0.011474468745291235
4.112571239471436,-0.9191827178001405,9.740958213806154,0.0023556996602565054,-0.006113949231803417,-0.008344151079654694
4.105020999908448,-0.927652657032013,9.715132713317873,0.0038039104547351603,-0.0030530053190886974,-0.006054181139916182
4.12281084060669,-0.9237120151519775,9.707300186157227,0.006034225225448608,-0.0019208050798624754,-0.009267725981771948
4.089079380035401,-0.8988966941833496,9.692121505737305,0.008232661522924902,0.002208095509558916,-0.009301180951297285
4.080979824066163,-0.9507114291191102,9.71003532409668,0.0070347534492611885,0.002256965963169933,-0.011483474634587766
4.060002803802491,-0.9432252645492554,9.757237434387209,0.006722120568156242,-0.001625031582079828,-0.01301436685025692
4.090884208679199,-0.9185559153556825,9.74275302886963,0.007448382675647736,-0.0013153711333870888,-0.012526336126029493
4.077822685241699,-0.9367874264717103,9.741387367248537,0.00721563445404172,-0.003514939919114113,-0.012501287274062635
4.1108503341674805,-0.9174167513847352,9.725226402282717,0.006098608952015639,-0.0011258444283157587,-0.011174608021974564
4.100593090057374,-0.9180617928504945,9.69396495819092,0.006266714073717594,0.002471199026331306,-0.007309466600418091
4.135501861572266,-0.9270846247673036,9.683542251586914,0.011549342423677444,0.00795864500105381,-0.008230720646679403
4.06336259841919,-0.823287069797516,9.730020523071289,0.007349499501287937,0.009662359021604063,-0.008037002757191658
4.085550308227539,-0.8769835233688354,9.755796432495117,0.002316724276170135,0.008853815495967865,-0.003821601625531912
4.06607723236084,-0.9289225339889526,9.734799385070803,-0.002972286427393556,0.007527039386332035,-1.4798716847508333e-06
4.071650981903077,-0.9975872635841371,9.74787712097168,-0.0020385368261486296,0.0036126354243606333,-0.002333402168005705
4.0798354148864755,-0.9606852531433105,9.754865646362305,0.002983807818964124,0.003091920632869005,-0.0023974513169378047
4.0755677223205575,-0.9397827982902528,9.744402885437013,0.002761158393695951,0.00640473235398531,-0.002333112061023712
4.056713104248047,-0.958410382270813,9.730624198913576,0.005526216235011817,0.003124754410237074,-0.004405638668686152
4.080854892730714,-0.9575761556625366,9.733861923217773,0.00561213493347168,0.002436540089547634,-0.007827586494386198
4.078960895538331,-0.8809696435928345,9.764323234558107,0.007530873641371727,0.0021186966914683585,-0.007257699966430664
4.043825149536133,-0.8820028305053711,9.715471267700195,0.003504639957100153,0.0022836986463516955,-0.006841274444013835
4.043068408966065,-0.9595693945884706,9.750041007995607,0.0038074001204222445,-0.00031954399310052395,-0.006644417997449637
4.050445556640625,-0.9093309044837953,9.756423950195312,0.003089540172368288,-0.003223329782485962,-0.009566270746290685
4.067386627197266,-0.968851149082184,9.735979080200195,0.0014207822969183328,-0.0019592824392020702,-0.007880468852818014
4.050902366638184,-0.958587646484375,9.693743705749513,0.005569864064455032,-0.0025196166243404154,-0.008787461556494238
4.051695346832276,-0.9612768292427064,9.68581295013428,0.00913276430219412,-0.002770019695162773,-0.013597774319350721
3.995926141738892,-0.9091363549232484,9.732211112976076,0.009597877971827986,-0.005143938120454551,-0.01536504179239273
4.025672912597656,-0.9323543310165405,9.761332511901857,0.006377554032951594,-0.00810985453426838,-0.01552852336317301
4.00837516784668,-0.9582790732383729,9.735484123229982,0.006143759936094284,-0.014880574308335783,-0.01880222372710705
3.923150062561035,-1.0072773694992068,9.762774467468263,0.006835890002548695,-0.025191484019160274,-0.025713816285133362
4.034714221954347,-0.902563214302063,9.799559593200685,0.004984749015420676,-0.0385531671345234,-0.03146275132894516
4.0097317695617685,-0.9343744516372681,9.755612373352053,0.004277513362467289,-0.045416530221700675,-0.03512129187583923
3.9475338459014897,-0.9087602496147157,9.763825416564943,-0.0007089986465871334,-0.057675149291753776,-0.03638816252350808
3.941214084625244,-0.9539929628372192,9.796802520751953,-0.0016611553728580475,-0.07431762665510179,-0.04174131155014038
4.044378280639648,-0.9709368944168091,9.759303092956545,2.7584466806729328e-05,-0.08295945078134538,-0.047809235751628876
4.041147708892823,-0.8052622675895692,9.774276733398438,-0.00687054730951786,-0.08969851583242418,-0.048925742506980896
4.1372880935668945,-0.7386708855628968,9.788934707641602,-0.015367752872407438,-0.08933204412460327,-0.041928574442863464
4.1191067695617685,-0.8184739351272583,9.741279602050781,-0.02023116871714592,-0.09160112589597703,-0.03240463137626648
4.169956207275391,-0.8755768537521362,9.726742744445803,-0.024350229650735855,-0.09577411413192749,-0.028445744886994365
4.224939346313477,-0.8784891366958618,9.670637130737305,-0.024090547114610672,-0.09171736985445024,-0.027644429355859756
4.216680049896241,-0.8957182168960571,9.649285316467287,-0.02222804166376591,-0.08390329778194427,-0.02453535422682762
4.227254867553711,-0.8846004009246826,9.681468963623047,-0.022817431017756466,-0.07666155695915222,-0.02152800373733044
4.24143123626709,-0.843662202358246,9.682839393615724,-0.021819256246089935,-0.0684976875782013,-0.01837660185992718
4.225214481353761,-0.8968626856803895,9.682083129882812,-0.0249258354306221,-0.05672381445765496,-0.014113267883658409
4.236145496368409,-0.8950265645980835,9.702370643615724,-0.023725520819425583,-0.05122859403491021,-0.01082188729196787
4.23061227798462,-0.9319469332695008,9.711207389831545,-0.0230537410825491,-0.04295764118432999,-0.007408508565276862
4.204592227935792,-0.9551756381988525,9.714550018310547,-0.02299684099853039,-0.039141412824392326,-0.005193657241761684
4.220005035400391,-0.9781971573829652,9.697750091552734,-0.01931682601571083,-0.036433923989534385,-0.007684594951570034
4.209283828735352,-0.9351792335510254,9.707756042480469,-0.016519865021109584,-0.03124082088470459,-0.007375912740826607
4.213597774505616,-0.9430227279663086,9.68984603881836,-0.016694411635398865,-0.02500567398965359,-0.007160549983382225
4.199678897857667,-0.9816572666168213,9.719459533691406,-0.013774166814982893,-0.02117843367159367,-0.006723690778017044
4.190846920013429,-1.0001057386398318,9.677418708801271,-0.008001212030649185,-0.014564084820449354,-0.005705568939447403
4.1622376441955575,-1.0177979469299316,9.67829990386963,-0.0044090873561799535,-0.012926202267408371,-0.008474119007587433
4.185826301574707,-1.0155363082885742,9.666335105895998,0.0008380714571103454,-0.00834066513925791,-0.008643398061394691
4.1836895942688,-0.9479172825813295,9.673080444335938,0.00610031420364976,-0.005340072792023421,-0.013794567435979843
4.1260833740234375,-0.9713780283927919,9.719749450683594,0.007637215312570334,-0.009606178849935532,-0.01551544386893511
4.20086431503296,-0.9077466130256654,9.749209403991701,0.007378581911325455,-0.010263091884553434,-0.015704313293099407
4.187620162963867,-0.9364161491394043,9.694845199584961,0.007800880819559097,-0.010711547918617727,-0.015193592756986618
4.184123992919922,-0.9072916507720947,9.719644546508789,0.008362367749214172,-0.007349877618253231,-0.016090461984276775
4.147559642791749,-0.9394283890724183,9.715431213378906,0.0046438570134341725,-0.0047683753073215485,-0.014305197633802893
4.154720306396484,-0.9527069926261903,9.667574882507326,0.006359869148582221,-0.007207665592432022,-0.012272121384739876
4.136061668395996,-0.9577859044075013,9.68204116821289,0.0060864980332553395,-0.009248977527022362,-0.01360947359353304
4.143137454986573,-0.9602638483047485,9.707255363464357,0.0069826021790504456,-0.014303015545010567,-0.016669617965817455
4.152135372161866,-0.878354549407959,9.707350730895998,0.004540217574685813,-0.01849476993083954,-0.014839709736406805
4.167771339416504,-0.8981462121009828,9.695077896118164,0.002716188551858068,-0.019555695354938507,-0.011618763208389282
4.153812408447266,-0.9179071187973022,9.690549850463867,0.0009528988157399,-0.019086752086877823,-0.01114024128764868
4.152867317199707,-0.9087127447128296,9.718624114990234,-1.1639422154985368e-05,-0.01994740590453148,-0.010200765915215017
4.191633701324464,-0.9187579154968262,9.738125801086428,-0.0028444929048419,-0.02191228605806828,-0.01015164889395237
4.170525074005128,-0.9528403878211976,9.72492790222168,-0.0021138209849596024,-0.02358047850430012,-0.0108421603217721
4.1524319648742685,-0.9491363167762757,9.658761978149414,-0.00112754269503057,-0.023844258859753612,-0.012782633304595947
4.1386170387268075,-0.9864296317100526,9.701939582824709,0.00011925643048016356,-0.02523511834442616,-0.014990124851465225
4.201838970184327,-0.9781278967857362,9.685157775878906,0.004102148115634918,-0.024954104796051983,-0.017819315195083618
4.205397129058839,-0.9138478636741639,9.705181121826172,0.005978517234325409,-0.021065874025225643,-0.018941795453429226
4.20781135559082,-0.8847368955612183,9.69361972808838,0.007286796346306801,-0.02027068100869656,-0.018341343849897385
4.210587501525879,-0.9316213130950928,9.677099227905273,0.006784646306186915,-0.015430641360580923,-0.015331516042351723
4.1982436180114755,-0.9319806098937988,9.642009735107422,0.007527443580329418,-0.010402285493910314,-0.01541479304432869
4.187035083770753,-0.9482504725456239,9.656371116638185,0.01150662824511528,-0.009991721250116827,-0.014698126353323461
4.187244415283203,-0.9482150077819824,9.670583724975586,0.010950508527457716,-0.007117261178791523,-0.01483856048434973
4.167917251586914,-0.9845305085182191,9.659766197204592,0.01571771502494812,-0.005495673045516014,-0.017500391229987148
4.141316890716554,-0.9858111143112183,9.684052467346193,0.018684891983866695,-0.0055175600573420525,-0.01997531019151211
4.18693733215332,-0.9293261766433716,9.715966224670412,0.021509747952222824,-0.005736361723393203,-0.022803483530879024
4.15067195892334,-0.9109009504318237,9.653844833374023,0.019181581214070324,-0.005260546691715717,-0.022773252800107006
4.148196697235108,-0.9368681907653809,9.73890495300293,0.01936007104814053,-0.00829767342656851,-0.02217569574713707
4.186654090881348,-0.850595235824585,9.698126792907717,0.01704859361052513,-0.011202012188732626,-0.019704904407262802
4.197422981262207,-0.8547316789627075,9.702868461608888,0.01296844333410263,-0.010127023793756964,-0.014712146483361723
4.182062149047852,-0.9050569534301758,9.698594093322756,0.011996285989880562,-0.011116405017673971,-0.01234457641839981
4.199936866760254,-0.8873851299285889,9.673129081726076,0.010215765796601774,-0.00616706581786275,-0.011814456433057785
4.200530052185059,-0.8832929134368896,9.655027389526367,0.010076509788632393,-0.0031358969863504176,-0.008432621136307716
4.1759400367736825,-0.9343716502189637,9.686696052551271,0.009467289783060552,-0.0014805523678660393,-0.010037820786237717
4.205788135528565,-0.9069205522537231,9.649014472961428,0.013608905486762525,0.0006674694595858455,-0.011113374494016172
4.2306060791015625,-0.9364607930183412,9.645915985107422,0.01714095659554005,0.007605797145515681,-0.015546703711152077
4.215924263000488,-0.8533731698989868,9.652375221252443,0.019100470468401912,0.016736038029193878,-0.015677498653531078
4.267888545989991,-0.8376023769378662,9.680287361145021,0.01902863569557667,0.0291009321808815,-0.007501677609980106
4.231359481811523,-0.9110392332077026,9.653205871582031,0.019031001254916195,0.04017883539199829,-0.004267549607902766
4.261779308319093,-0.9719939827919007,9.666440010070803,0.027910985052585602,0.054451338946819305,-0.00222882884554565
4.411218166351319,-0.8351209163665771,9.611801147460938,0.03637620061635971,0.084260530769825,0.002456255257129669
4.5292325019836435,-0.7473210096359253,9.678458213806154,0.04257887229323388,0.12799072265625,0.019897907972335815
4.663005352020265,-0.6498972177505493,9.737371444702148,0.04636942222714425,0.1774359941482544,0.04385701939463616
4.628533363342285,-0.6004456877708436,9.559612274169922,0.056740801781415946,0.23420183360576632,0.0668969601392746
3.2411286830902104,-1.6627459526062012,9.450856208801271,0.07131256908178331,0.25912755727767944,0.054507400840520866
3.9540808200836186,-1.402599811553955,9.83005142211914,0.10724256932735443,0.21644543111324313,0.010207795538008215
4.026554107666016,-0.9087796807289125,9.739778518676758,0.1201537549495697,0.2181324511766434,0.0032165320590138435
3.879027128219605,-0.6167539954185487,9.782286643981935,0.10681117326021196,0.19997261464595797,0.0039240894839167595
3.9261662960052495,-0.552025854587555,9.866526603698732,0.08099627494812012,0.1762916296720505,0.014065569266676903
3.785207033157349,-0.6340761780738832,9.910318374633789,0.05818839371204376,0.1478761285543442,0.022475840523839
3.7635555267333984,-0.6034655570983887,9.999710083007812,0.028780560940504074,0.10891421884298326,0.03146248310804367
3.811656951904297,-0.6778418421745301,10.022775650024414,-0.012346560135483742,0.06829066574573517,0.042390879243612296
3.8848929405212402,-0.8202058672904969,9.973774909973146,-0.03376096487045288,0.03996130451560021,0.0503501296043396
3.853641986846924,-0.818577766418457,9.938347816467287,-0.04297273978590966,0.014175521209836006,0.04839685559272766
3.9101080894470215,-0.8128736019134521,9.940752029418945,-0.051040705293416984,-0.00802135095000267,0.04772536829113961
3.9685041904449467,-0.8748783469200135,9.867071151733398,-0.05342420563101769,-0.015753099694848064,0.043716222047805786
3.919808864593506,-0.7672080397605897,9.849197387695312,-0.05868808180093765,-0.019603865221142772,0.041975297033786774
3.896913528442383,-0.8980904817581177,9.842757225036623,-0.056998372077941895,-0.03152875229716302,0.03671150282025338
3.894219398498535,-0.9736838936805726,9.824087142944336,-0.049997493624687195,-0.03259056434035302,0.026433318853378296
3.8807058334350586,-0.9846372604370117,9.750308036804201,-0.03893751278519631,-0.03234484419226647,0.01587255299091339
3.776951313018799,-1.181889533996582,9.777290344238281,-0.02627222426235676,-0.036500364542007446,-0.002535455627366901
3.8703393936157227,-0.9840426445007324,9.766934394836428,-0.01609129644930363,-0.04659382253885269,-0.018734559416770935
3.7977292537689213,-1.0654529333114626,9.76938247680664,-0.014012725092470648,-0.05299770087003708,-0.028744118288159374
3.8661730289459233,-0.9728368520736694,9.810933113098146,-0.01433093473315239,-0.06598404049873352,-0.04139423742890359
4.021776676177979,-0.8332383036613465,9.79248905181885,-0.018435833975672725,-0.07288485765457153,-0.04325635358691216
4.0795865058898935,-0.8636776804924012,9.730998992919922,-0.02066055126488209,-0.06331983208656311,-0.03804589807987213
4.044984817504883,-0.91205894947052,9.746305465698242,-0.015099206939339638,-0.05722657218575478,-0.033313825726509094
4.052774429321289,-0.9430336952209473,9.765896797180178,-0.013386997394263746,-0.05282841250300408,-0.028905648738145828
4.015828609466554,-0.9611293077468872,9.787748336791992,-0.011105206795036794,-0.04465889930725098,-0.025847511366009716
4.009757995605469,-0.9299869537353516,9.781604766845703,-0.012312459759414198,-0.044518500566482544,-0.026781238615512848
4.086629390716554,-0.8744392395019531,9.81953525543213,-0.015220946632325651,-0.043381527066230774,-0.023811990395188335
3.9806809425354004,-0.8637826442718506,9.775228500366211,-0.017798433080315593,-0.042710278183221824,-0.017235245555639267
3.80997109413147,-1.025881290435791,9.816493034362795,-0.02338126301765442,-0.057376030832529075,-0.021980296820402145
4.094203472137452,-0.8127130866050721,9.803123474121094,-0.03310589864850045,-0.06624549627304077,-0.02336372435092926
4.071967124938965,-0.9483448863029481,9.697133064270021,-0.03270683810114861,-0.0570363849401474,-0.01743057928979397
3.9546816349029545,-1.0267958641052246,9.714683532714844,-0.026224002242088318,-0.05411936342716217,-0.0251592043787241
4.028977394104004,-0.9524149298667909,9.701715469360352,-0.018564032390713695,-0.05165824294090271,-0.03249210491776467
3.850619316101074,-0.9029175043106079,9.71783447265625,-0.02191654406487942,-0.054124630987644196,-0.03009532392024994
3.9474952220916752,-0.7891443371772767,9.856228828430178,-0.039062656462192535,-0.07658887654542924,-0.03334303945302963
3.9756369590759277,-0.8021164536476136,9.849438667297365,-0.05116454884409905,-0.09068740159273149,-0.029691394418478012
3.882730007171631,-0.7643685340881348,9.78086566925049,-0.06900057941675188,-0.10595311224460602,-0.025319801643490795
4.0324201583862305,-0.6527642011642456,9.700446128845217,-0.09703884273767473,-0.12831497192382812,-0.018279030919075012
3.857546329498291,-0.8080993890762329,9.643882751464844,-0.1044936329126358,-0.13664947450160983,-0.010019434615969658
3.6528909206390385,-0.8939449787139893,9.791676521301271,-0.10251407325267792,-0.1713564693927765,-0.024016344919800762
3.44017767906189,-1.6714890003204346,9.69882106781006,-0.05758967250585556,-0.21627663075923922,-0.07644486427307129
3.2469041347503667,-1.502246975898743,9.765069007873537,0.002257448853924871,-0.2867478132247925,-0.1552102267742157
3.82985258102417,-0.8442482948303223,9.914113998413086,0.024013042449951172,-0.3622405827045441,-0.1972077190876007
3.677855968475342,-0.43381145596504217,10.182073593139648,0.02104375511407852,-0.4472110867500305,-0.2021526545286179
3.7655260562896733,-0.5713924169540405,10.076818466186523,0.008649638853967192,-0.5417343378067017,-0.1998124569654465
3.2750337123870854,-0.5295215845108032,10.353116035461428,-0.006624510046094657,-0.6802432537078857,-0.21551266312599182
3.542878866195679,-0.7185195684432983,10.519643783569336,-0.01588980108499527,-0.8624088168144227,-0.21773844957351685
3.288770437240601,-0.5129095315933228,10.660523414611818,-0.049798201769590385,-1.0765775442123415,-0.18864229321479797
3.109832763671875,-0.9632419347763062,10.513527870178224,-0.06382442265748979,-1.3720710277557373,-0.15235672891139987
2.7873370647430424,-1.0508204698562624,10.473284721374513,-0.04858951270580292,-1.6906994581222536,-0.1225448325276375
3.0192024707794194,-0.4763954281806946,10.87613296508789,-0.057087276130914695,-2.0333118438720703,-0.12960501015186313
3.7636177539825444,-0.38981354236602783,10.639328002929688,-0.13474299013614657,-2.2992527484893803,-0.14924418926239014
3.703798294067383,-0.4225015640258789,10.527803421020508,-0.15117326378822327,-2.559947729110718,-0.18961751461029053
4.25435733795166,-0.7066936492919922,10.405784606933594,-0.17884458601474765,-2.8096671104431152,-0.21424761414527893
4.355158805847168,-0.782142460346222,10.410545349121094,-0.1858658790588379,-3.059881448745728,-0.20528095960617065
4.032723903656007,-1.2830352783203125,10.172732353210451,-0.11341048032045366,-3.3101289272308354,-0.24070164561271667
3.3881473541259766,-2.4978611469268803,8.886106491088867,0.2477798014879227,-3.760983943939209,-0.37431672215461737
4.694203853607179,-3.297887563705445,9.212752342224123,0.6693897843360902,-4.374637603759766,-0.5125442743301392
5.931362152099609,-3.4978711605072026,10.522186279296875,0.9645065665245057,-4.945185661315918,-0.5774702429771424
8.617789268493654,-3.0358505249023438,13.133159637451172,1.0551210641860964,-5.345019817352296,-0.5408180952072144
13.044911384582521,-5.2251935005188,15.88345718383789,1.1313251256942751,-5.391088485717773,-0.5666658282279969
17.00634002685547,-8.669583320617678,16.43994903564453,1.7115395069122314,-5.203763484954835,-0.9217965006828309
27.28594017028809,-6.924476146697999,17.280925750732422,2.4865665435791016,-4.927494525909425,-1.3450393676757812
35.39983367919922,-2.97231388092041,11.99120616912842,2.7008883953094487,-4.488168239593507,-1.815612554550171
37.44010925292969,-5.382573127746582,8.404498100280763,3.4655439853668217,-4.470979690551758,-2.032908201217652
39.84167861938477,-4.803230285644531,12.811045646667482,4.256843566894531,-3.4544894695281987,-1.4748858213424685
36.97897720336915,6.384879589080811,12.295933723449709,3.8548994064331055,-3.2992889881134038,-0.9034587144851685
45.811737060546875,4.940432071685792,28.17525863647461,1.8242270946502686,-2.008695125579834,-0.6964659094810487
27.050426483154297,3.8544261455535893,22.005052566528324,-0.15011279284954074,-0.8138465881347656,-0.13367025554180148
17.282247543334964,-0.053284645080566406,15.599886894226076,-1.5058023929595947,-0.759909212589264,0.11402451246976854
11.930647850036623,-5.294524669647218,13.031865119934084,-1.634944200515747,-0.9914075732231141,0.09916310012340546
9.485088348388672,-8.212292671203615,12.658517837524414,-0.8002420663833618,-1.2129356861114502,-0.14528976380825046
7.911005020141602,-5.872189521789551,13.281591415405273,0.3005838990211487,-1.1198519468307497,-0.439419150352478
4.157881736755371,-0.8872119188308716,13.356666564941406,0.78180068731308,-0.789919376373291,-0.6332064867019653
0.6035760641098022,1.7475970983505251,12.659509658813477,0.4723593592643738,-0.4239973723888398,-0.738600492477417
-2.6076202392578125,0.4087370038032532,10.68405532836914,0.0662606954574585,-0.03513287752866745,-0.8303944468498231
-4.287165164947511,-1.884347915649414,9.352508544921875,0.025900084525346756,0.3878167569637299,-0.9311709403991699
-5.4138994216918945,-2.560011863708496,9.127322196960451,0.1882263720035553,0.934583604335785,-0.918895184993744
-7.144197463989258,-2.7659378051757812,8.036916732788086,0.309981256723404,1.5222797393798828,-0.8091161847114564
-8.780904769897461,-3.1217875480651855,6.061909198760987,0.2853043377399445,1.9871186017990115,-0.5770121812820435
-9.822214126586914,-2.9907057285308842,4.133770942687988,0.17558191716670993,2.2851181030273438,-0.26140901446342474
-10.928551673889162,-2.940093278884888,2.2341830730438237,-0.0252901129424572,2.4652307033538823,0.06513138860464097
-12.120100975036623,-2.3866317272186284,-0.09990180283784868,-0.2760738134384155,2.496515035629273,0.3705047369003296
-12.566500663757326,-1.8518995046615603,-1.2205361127853396,-0.5683797597885132,2.362154483795166,0.6563480496406556
-11.15902328491211,-1.7270033359527588,-0.5359742641448975,-0.8433656096458436,2.2643446922302246,0.9508385062217714
-9.557722091674805,-1.7953373193740847,0.4452160298824311,-0.9630856513977051,2.338065385818482,1.2156666517257693
-8.536051750183107,-1.310101628303528,0.5280445218086244,-0.9522818326950073,2.5185124874114995,1.4367561340332031
-7.161365985870362,-0.43260616064071655,0.4348052740097046,-0.9176608324050903,2.7085604667663574,1.599687457084656
-5.861194133758546,0.4435146450996399,-0.10651595890522003,-0.8817332386970521,2.925206184387207,1.7446209192276003
-5.00855302810669,1.5985815525054932,-1.0972788333892822,-0.8405704498291016,3.0641691684722905,1.8685461282730105
-3.8406996726989746,3.2536678314208984,-1.5805150270462038,-0.8674558401107788,3.1166384220123295,1.9405033588409424
-2.144554615020752,4.928310394287109,-1.606790542602539,-0.9692014455795288,3.105109691619873,1.9207834005355837
0.5023878812789917,5.717839717864991,-0.8384547233581543,-1.1039588451385498,3.0847847461700444,1.7906162738800049
4.205384254455566,5.775687694549561,0.9249224662780762,-1.1362096071243288,3.0812573432922363,1.5767974853515625
9.115483283996584,5.7959046363830575,3.716580390930176,-1.112364172935486,3.2037277221679688,1.2888504266738894
13.304152488708498,4.179131984710694,4.353548049926758,-0.8850781321525575,3.5135238170623784,0.8946050405502319
14.130386352539062,3.2232801914215092,1.8487991094589236,-0.4060439467430115,3.6406109333038335,0.47606557607650757
14.98021125793457,3.3227727413177495,-0.2810646891593933,-0.0707504525780678,3.3971776962280273,0.16400662064552307
16.66407012939453,1.1392446756362917,-0.961618721485138,0.04753238335251809,2.9570584297180176,0.08499590307474138
16.99993133544922,-0.6526124477386475,-1.8124134540557861,0.1068493351340294,2.430721998214722,0.3724825978279114
15.997838020324709,-0.8547651171684266,-4.334645748138429,-0.053268276154994965,1.7443143129348757,0.9439899921417236
15.720856666564943,-1.6759654283523562,-5.604242801666261,-0.29521721601486206,0.8231722712516786,1.6251541376113894
14.942188262939453,-2.4593956470489506,-5.466266632080078,-0.33446651697158813,-0.09973260015249254,2.2148876190185547
15.118650436401367,-1.8301613330841064,-2.122737407684326,-0.2863733172416687,-0.7733464241027832,2.632074594497681
32.78034210205078,0.6315492391586304,-1.6372029781341553,-0.1527005434036255,-1.1330541372299197,2.5818629264831543
75.1429443359375,32.73044204711915,48.70318603515625,-0.17362713813781738,0.10094773024320604,0.35353019833564764
15.82094478607178,-1.8535199165344238,-3.675696849822998,0.32569810748100286,3.417541980743408,-0.5298493504524232
2.390775203704834,-18.573156356811527,8.653705596923828,0.178577721118927,2.881204128265381,0.6461988091468812
-3.0012826919555664,8.902022361755373,14.543392181396484,0.3991996645927429,2.289613008499146,0.3360992670059204
-0.3531903028488159,-9.413699150085451,10.904589653015138,0.6213017702102661,2.5322005748748784,-1.1571735143661501
3.6686217784881596,-10.506215095520021,9.584796905517578,0.6082130074501039,1.7531659603118896,-0.9441651701927186
-0.36470961570739746,10.157960891723633,14.329806327819826,0.5540667176246644,1.0459491014480593,-0.42708271741867065
1.607933759689331,2.7501416206359863,11.151501655578615,0.15910281240940097,0.5309137105941772,-0.34650769829750067
6.037051677703858,0.1402111053466797,10.648103713989258,0.020315632224082947,0.24762754142284396,0.01485120039433241
5.020297527313233,-0.8213194012641908,9.478520393371584,-0.08039648085832597,0.3087120056152344,0.21744449436664584
5.542065143585206,-2.757543325424195,9.01338291168213,-0.024930825456976894,0.3913030922412873,0.13948789238929749
5.228923797607422,-2.1309242248535156,9.096023559570312,0.09808042645454407,0.5204742550849916,0.03170691430568695
4.10366153717041,0.454059511423111,9.91744899749756,0.10442552715539934,0.5652433633804321,0.041949763894081116
3.226444482803345,1.4660612344741824,10.699962615966797,-0.03966369107365609,0.43011021614074707,0.18534238636493686
2.2669208049774174,0.5284903049468994,10.69233512878418,-0.17735177278518677,0.19709444046020508,0.285034328699112
2.113053321838379,-0.7621588110923768,10.568473815917969,-0.2345460504293442,-0.08281970024108887,0.24674566090106967
2.104838609695435,-1.599915146827698,10.492959976196289,-0.2131258249282837,-0.34843805432319647,0.119318924844265
2.018882513046265,-0.9908016920089722,10.63290023803711,-0.23654679954051974,-0.610207200050354,-0.0010979800717905166
2.772974967956543,-0.7258753180503846,10.955288887023928,-0.27812805771827703,-0.8620856404304506,-0.02156834304332733
2.454051733016968,-0.6746861338615419,10.77663326263428,-0.3431267738342285,-1.1053210496902468,-0.01700330525636673
3.577661752700806,-1.775928854942322,10.55599594116211,-0.35233345627784735,-1.3439452648162842,-0.07137906551361084
4.145490169525147,-1.7305245399475098,9.979909896850586,-0.351391077041626,-1.4496556520462038,-0.13029658794403076
4.633559226989746,-0.9492533802986146,10.119248390197756,-0.4585469365119934,-1.5559172630310059,-0.2105798274278641
3.7188735008239746,-0.8188583850860596,9.203103065490724,-0.5081960558891297,-1.6747381687164307,-0.17160736024379733
4.011366844177246,-1.4409805536270144,9.144010543823242,-0.44671365618705755,-1.8944251537322998,-0.15334752202033997
4.442146301269531,-1.2409573793411257,8.88330936431885,-0.37937739491462713,-2.0595474243164062,-0.16151334345340732
5.004887104034425,-1.4402362108230593,8.506436347961428,-0.29349440336227417,-2.1418089866638184,-0.17528684437274936
6.05628252029419,-1.3243869543075564,8.051989555358888,-0.20542174577713013,-2.1324961185455327,-0.17941999435424805
6.106244087219238,-0.6589757800102235,8.804658889770508,-0.22598810493946078,-2.112112045288086,-0.16385158896446228
5.665681838989258,-1.474055886268616,8.37800693511963,-0.23356616497039795,-2.0271532535552983,-0.16181200742721558
6.573690414428711,-2.2183284759521484,8.478468894958498,-0.17293164134025574,-2.055020809173584,-0.1853679269552231
6.803578853607179,-2.8369812965393066,8.537560462951662,-0.028154229745268825,-1.9140818119049072,-0.26771721243858343
6.126999855041504,-2.5376052856445312,7.27332353591919,0.14326886832714084,-1.8398306369781494,-0.3067237138748169
6.758550643920898,-2.323491096496582,7.350396633148194,0.16541127860546115,-1.7701444625854492,-0.3788780272006989
6.794992923736573,-2.3800847530364995,7.388552188873292,0.21917444467544556,-1.7066023349761963,-0.42676970362663275
7.0910797119140625,-2.17572569847107,6.510716915130616,0.26577207446098333,-1.6119120121002197,-0.48202368617057806
7.166847229003906,-2.029759407043457,6.700652122497559,0.33495464920997625,-1.518887996673584,-0.5622512102127075
7.116539001464844,-1.6089667081832888,7.539494991302491,0.41354635357856756,-1.454874038696289,-0.6141604781150819
7.094746112823487,-1.490141034126282,7.412260532379151,0.4926077723503113,-1.4141030311584473,-0.6363554596900941
6.684220314025879,-1.1709339618682861,6.857549190521241,0.5490093827247621,-1.4177722930908203,-0.6463662981987001
6.658090114593507,-1.5954750776290896,7.498132705688477,0.5861523747444154,-1.5109302997589111,-0.670488715171814
6.567373275756836,-1.3965308666229248,7.439954280853272,0.6538299322128296,-1.6001724004745486,-0.7232944965362549
6.177478313446046,-1.2330688238143923,7.310349464416504,0.7083671689033509,-1.7542270421981814,-0.8204313516616821
7.115166187286378,-0.345880925655365,7.301397323608398,0.7282947897911073,-1.9033617973327637,-0.8536093831062318
6.682769298553468,-0.06293775141239166,5.827892780303956,0.770430624485016,-2.0150318145751953,-0.8321402072906494
7.101910114288331,0.45267951488494873,7.522509574890137,0.7647995948791504,-2.2333395481109624,-0.8016301393508911
6.941851615905762,-0.49974879622459417,6.909973621368409,0.8548470735549927,-2.4547953605651855,-0.833927094936371
9.017986297607422,0.43464553356170654,6.61534070968628,0.9283010363578797,-2.6945667266845703,-0.8041179776191713
8.28547477722168,0.07044392824172974,5.502503395080566,0.9680547118186952,-2.9180450439453125,-0.5853246450424194
8.465308189392092,0.21980741620063782,6.39793586730957,0.9455485343933105,-3.315332651138306,-0.46834713220596313
7.446952342987061,-0.2225033938884735,5.591375350952148,0.953842580318451,-3.7192780971527104,-0.4711177349090576
7.72640085220337,1.007564187049866,6.400897502899171,0.8073918223381044,-4.100818634033203,-0.4673606455326081
8.930560111999513,1.3624591827392578,7.161823749542237,0.6894432902336122,-4.116819381713867,-0.5356570482254028
9.182758331298828,1.8077908754348757,6.369333267211914,0.5751752853393555,-4.070284366607667,-0.4975968599319458
10.995279312133789,2.2213413715362553,6.704988956451417,0.38252577185630804,-4.250037670135499,-0.31918060779571533
11.241958618164062,2.4917731285095215,6.427206993103027,0.14194482564926147,-4.544596195220948,-0.040926918387413025
11.908045768737795,2.444599866867066,6.9994916915893555,-0.06873185187578203,-4.743461608886719,0.15576821565628052
14.621095657348633,2.299756288528443,8.546773910522461,-0.224370613694191,-4.587449073791504,0.27325251698493963
19.655038833618168,3.366483211517334,8.760258674621584,-0.32476851344108587,-4.017543315887452,0.498778760433197
26.95191192626953,2.569240093231201,8.97835922241211,-0.9044510126113892,-3.3992946147918706,1.066591739654541
31.22973442077637,-0.40614813566207886,7.336487293243409,-1.710726261138916,-2.2097165584564213,1.540837645530701
25.560386657714844,-2.1408004760742188,4.044536590576172,-2.195344924926758,-0.7493779063224794,1.32051420211792
19.293828964233402,-5.594429969787598,-1.1072856187820437,-1.8257631063461306,-0.03619642928242684,0.18589603900909424
16.851610183715824,-4.813953399658203,-4.995226383209229,-0.7574551105499268,-0.4839718043804169,-1.187800407409668
15.444350242614748,-0.1384169310331345,-8.278555870056154,0.516664206981659,-1.5025229454040527,-2.8026251792907715
17.8098316192627,2.2435328960418706,-5.497949600219727,1.5021563768386843,-3.036067008972168,-4.415970325469972
27.27396965026856,6.730141162872315,1.5165275335311892,1.8242435455322266,-4.6302289962768555,-5.557734966278077
32.52719497680665,6.941874980926515,11.60517692565918,1.1352282762527468,-4.629262924194336,-6.037698268890382
27.79290008544922,6.086805820465089,10.6062707901001,-0.15554767847061157,-4.145005702972413,-5.8621888160705575
26.815038681030277,1.8827961683273318,11.820640563964844,-1.1582252979278564,-3.65341591835022,-5.562981605529785
21.64040565490723,-5.019506454467773,11.210390090942383,-1.408008694648743,-3.0844051837921147,-5.059894561767578
18.065380096435547,-10.217030525207521,11.008441925048828,-0.6871870756149292,-2.697983026504517,-4.325868606567383
14.98463535308838,-12.378275871276857,11.449079513549805,0.6557461619377137,-2.337986946105957,-3.5279860496520996
12.085128784179688,-10.464971542358398,11.42232418060303,1.862767219543457,-1.8728116750717165,-2.7047834396362305
10.79323482513428,-6.712707042694093,14.09965705871582,2.4607529640197754,-1.299738883972168,-1.895806670188904
9.245690345764162,-3.7824835777282715,15.215601921081545,2.1574506759643555,-0.34398427605628973,-1.0247719287872314
6.055306911468507,-2.8757631778717045,14.87197017669678,1.4516497850418093,0.7127575874328613,-0.25461483001708984
2.24893856048584,-2.931014060974121,13.491899490356445,0.6673010587692261,1.5414849519729616,0.4041050672531128
-2.0458431243896484,-4.388657569885254,10.899127960205078,0.17899182438850403,2.063568592071533,0.857837736606598
-3.9138965606689453,-5.38489866256714,8.708452224731445,0.1358011215925217,2.3909497261047363,1.1342695951461794
-3.9666996002197266,-4.378478527069093,7.623272895812988,0.24966645240783691,2.660455465316773,1.3676642179489138
-4.6915345191955575,-1.8620843887329102,6.910765171051026,0.17885352671146396,2.8573365211486816,1.6292701959609988
-6.134657859802246,0.023199886083602905,5.872657775878906,-0.15689784288406372,2.9224982261657715,1.9214845895767214
-6.648641109466554,1.3657090663909912,5.530692577362061,-0.6089613437652588,2.88339114189148,2.1703529357910156
-5.738421440124512,1.827143669128418,6.138629913330078,-1.0372653007507324,2.8375217914581303,2.311853647232056
-3.702359199523926,2.65361762046814,7.561766147613526,-1.3756550550460818,2.955801010131836,2.32508397102356
-2.2737936973571777,3.016002655029297,8.705355644226076,-1.6164268255233767,3.294561624526978,2.2095842361450195
-1.5548105239868164,3.390004396438599,8.91232204437256,-1.7484191656112673,3.768425941467285,2.0207474231719975
-1.7343189716339111,3.832783937454224,7.773515701293945,-1.799055814743042,4.213963985443116,1.7746788263320925
-2.2903547286987305,4.951607704162598,6.404839992523194,-1.8632245063781738,4.458899974822999,1.5226211547851562
-2.37785005569458,6.318863391876222,5.698935985565186,-2.0962934494018555,4.520866394042969,1.3019779920578005
-0.9117135405540467,7.305926322937012,6.367718696594238,-2.4839396476745605,4.559502124786378,1.0881338119506836
0.9531030654907227,7.470976829528809,7.463130950927734,-2.8610482215881348,4.756988048553468,0.8219258189201356
1.5460432767868044,7.6485352516174325,7.788185119628906,-3.111762523651123,5.030437946319581,0.472270667552948
1.7218852043151855,9.141316413879396,7.710113048553468,-3.366579532623291,5.23969841003418,0.07964602857828142
2.66168212890625,10.63292121887207,7.583743095397949,-3.769792795181275,5.386640548706055,-0.36535862088203436
4.438341617584229,9.625309944152834,6.830540657043457,-4.134340286254883,5.528139591217042,-0.8819410204887391
5.820703983306886,8.35811996459961,6.523395061492921,-4.21759843826294,5.604169845581055,-1.431413531303406
6.661184310913086,8.565279960632326,6.603785037994386,-4.236535549163819,5.594210147857667,-1.8162715435028076
6.9883742332458505,9.541687965393068,6.813801288604737,-4.308608531951905,5.535536766052246,-2.1362335681915288
8.51602077484131,11.646842002868654,7.831027030944824,-4.458710670471191,5.4537062644958505,-2.501642465591431
11.07801151275635,13.529706954956055,8.3317346572876,-4.8183698654174805,5.417270183563233,-2.8829360008239746
12.945432662963867,12.650780677795412,7.72010087966919,-5.112134456634522,5.337420940399171,-3.2623047828674316
14.918333053588867,10.708615303039553,7.212396144866944,-5.063675880432129,5.138854503631593,-3.590463161468506
16.277536392211918,9.924679756164553,7.032591342926026,-4.89137077331543,4.831703662872315,-3.759327650070191
17.241134643554688,10.824639320373537,7.088754177093507,-4.9145569801330575,4.41318416595459,-3.7283771038055424
18.38887977600098,11.719740867614748,6.595603466033936,-5.056374073028565,3.960025548934937,-3.6483659744262695
18.6941089630127,12.127918243408203,5.383471965789796,-4.974693298339844,3.421280145645142,-3.7365951538085938
18.95587158203125,14.49505615234375,5.473589420318604,-4.855830192565918,2.783392190933228,-3.939823389053345
18.83321762084961,15.778841018676758,5.445551395416261,-4.935990333557129,2.2024886608123784,-4.098300933837891
17.514217376708984,15.052508354187013,5.368920803070069,-4.8988614082336435,1.6545184850692751,-4.158344268798828
16.189134597778324,15.478669166564943,5.4476990699768075,-4.615716934204102,1.1589447259902956,-4.092906951904297
15.119595527648928,16.562974929809574,6.043382167816163,-4.301839351654054,0.7790526151657104,-3.9822072982788086
15.199496269226076,16.39248847961426,7.418519973754883,-3.8712377548217773,0.5807558894157411,-3.873354434967041
12.742545127868654,9.58854866027832,9.160500526428224,-3.0667793750762944,0.5600028634071351,-3.7448525428771973
24.33602523803711,0.5816177129745483,3.021390914916992,2.401552677154541,-0.49898740649223333,-3.2946996688842773
11.012570381164553,23.36034393310547,18.62224388122559,0.40986636281013494,0.3456534147262573,-1.1055338382720947
20.63143539428711,-9.179583549499513,25.735824584960938,0.29436957836151123,0.8466927409172059,0.08452898263931274
1.3710371255874636,-18.665887832641605,12.200110435485842,0.5250131487846376,1.158358454704285,0.1280205249786377
-5.425657272338867,-12.007317543029787,3.8688514232635502,0.8785867094993592,-0.031813494861125946,0.2232429534196854
2.7763967514038086,5.414540767669679,11.52518081665039,0.6654794216156006,-0.8125217556953431,0.2208792418241501
6.291203498840332,12.86858654022217,13.098652839660646,0.18367493152618408,-0.5305511355400087,0.04437004029750824
3.7912635803222656,6.520040512084961,9.257039070129396,-0.14528684318065646,-0.3140275180339814,-0.016707148402929306
4.657384395599366,-2.3736557960510254,9.451452255249023,-0.11819933354854584,-0.26108494400978094,-0.01057148352265358
4.604316711425781,-3.726107120513916,8.790407180786133,-0.01125981751829386,-0.13410061597824097,-0.04756384342908859
4.5613722801208505,0.12969110906124118,10.365951538085938,-0.02886546030640602,-0.13029856979846957,-0.044622793793678284
4.71473264694214,0.3628769218921662,11.478355407714844,-0.13687290251255038,-0.04139187559485436,0.0021631536073982716
4.512414932250977,-2.294227123260498,10.816272735595703,-0.17592538893222812,0.02622402459383011,0.06004280224442483
3.9920811653137207,-1.5450778007507324,10.37026596069336,-0.12849825620651245,0.008157310076057913,0.07681215554475786
3.9487733840942383,-0.529335618019104,10.346799850463867,-0.15008419752120972,-0.003163396148011089,0.0862744152545929
3.895773410797119,-1.657936215400696,10.003468513488771,-0.1608273983001709,-0.023753497749567032,0.0792066976428032
3.7900967597961426,-1.8152668476104736,9.831390380859375,-0.1467847228050232,-0.03655195608735085,0.08793905377388
3.413577795028687,-1.6927319765090945,9.675506591796875,-0.13515485823154452,-0.054161280393600464,0.0653168112039566
3.277599096298218,-1.7989184856414795,9.507801055908203,-0.11340565979480743,-0.0978083834052086,0.04208608716726303
3.485390901565552,-1.405975103378296,9.71052646636963,-0.09082875400781633,-0.14979673922061923,0.012986371293663979
3.6636619567871094,-1.2386614084243777,9.628237724304201,-0.06343073397874834,-0.17869049310684204,-0.01260549481958151
3.035657167434693,-1.6784420013427734,9.206946372985842,-0.030379299074411392,-0.22359128296375277,-0.04596389457583428
3.503964424133301,-1.9010590314865115,9.425861358642578,0.011310260742902756,-0.31517615914344793,-0.08986994624137878
4.65988826751709,-1.2277719974517822,10.390332221984865,-0.008049226365983488,-0.32365056872367864,-0.08774007856845856
4.674091339111328,-0.5255811214447021,10.137810707092287,-0.06171041354537011,-0.23614373803138733,-0.04665444418787957
4.300214767456055,-0.8754072785377504,9.956903457641602,-0.10092872381210327,-0.18561141192913058,-0.016538565978407863
4.234428882598878,-1.2403018474578857,9.817492485046388,-0.12339920550584794,-0.1524255871772766,0.0002587454218883068
4.094626426696777,-1.5319290161132812,9.615159034729006,-0.12510550022125244,-0.13604092597961426,0.002806432778015733
4.066838741302491,-1.7538303136825564,9.50236225128174,-0.11719041317701341,-0.12515109777450562,-0.002497461391612888
4.009007930755616,-1.809919834136963,9.347716331481935,-0.09964241832494737,-0.1134294867515564,-0.007560019381344318
3.1414899826049805,-2.2607369422912598,8.911373138427734,-0.07872085273265839,-0.131442204117775,-0.03391062468290329
3.2918405532836914,-2.7958574295043945,8.93992805480957,-0.017877647653222088,-0.21392424404621127,-0.11657886207103729
3.7657594680786133,-2.175034523010254,9.230806350708008,0.09385567158460618,-0.2327277958393097,-0.20030571520328525
4.111713886260987,-2.0791759490966797,9.201719284057617,0.14956319332122803,-0.23654870688915255,-0.23088814318180087
3.8252391815185547,-1.7708959579467773,9.481701850891115,0.1691822558641434,-0.23809057474136353,-0.2386705428361893
3.4513418674469,-1.9474934339523318,9.40867328643799,0.20403891801834106,-0.2653672695159912,-0.28968253731727606
4.5675201416015625,-1.6144769191741943,10.175793647766115,0.2077465057373047,-0.3001794517040253,-0.32314687967300415
4.421194076538086,-0.8650771379470825,10.17953872680664,0.15938839316368103,-0.2712253630161286,-0.27486577630043035
4.116624355316163,-1.2423881292343142,10.067929267883303,0.10000975430011749,-0.29439708590507513,-0.23724046349525452
4.022841930389405,-1.1429812908172607,9.966642379760742,0.05099835991859436,-0.3403589129447937,-0.23062919080257419
3.897992849349976,-1.1798927783966064,9.978779792785646,0.02336656488478184,-0.4234241843223572,-0.25810655951499945
3.786533832550049,-1.1097872257232666,9.725687980651857,0.03041867353022099,-0.4993307590484619,-0.30957281589508057
4.48960828781128,-1.2735459804534912,9.970252990722656,0.007666469551622868,-0.5769793391227723,-0.33555787801742554
3.8176302909851074,-0.9733776450157167,10.139837265014648,-0.03994004800915719,-0.6586363911628724,-0.35362792015075684
3.170298337936402,-0.8077309727668763,10.215734481811523,-0.10961774736642839,-0.831580638885498,-0.43310061097145086
3.1419370174407963,-0.9014636874198915,10.570080757141115,-0.19925095140933993,-1.0793023109436035,-0.4945838451385498
2.876895666122437,-0.7646809816360474,10.790468215942383,-0.30177965760231024,-1.423454999923706,-0.48713758587837225
1.790398359298706,-0.4536783695220947,10.926237106323242,-0.37482374906539917,-1.8797986507415771,-0.4343534409999848
1.4239068031311035,-0.7381422519683838,11.050819396972656,-0.37861722707748413,-2.4674947261810307,-0.4161939024925232
1.4162522554397585,-0.5358630418777466,11.30867671966553,-0.37599501013755804,-3.096919059753418,-0.45552653074264526
1.6817750930786133,-1.258699893951416,11.35475254058838,-0.3508556783199311,-3.71978759765625,-0.5630691647529603
2.5143573284149174,-2.1490409374237065,12.045761108398438,-0.22239215672016147,-4.402379512786866,-0.6811890602111816
1.4753389358520508,-2.444381952285767,12.104131698608398,0.05356002971529961,-5.224699974060059,-0.8566498160362245
-0.10510347783565521,-3.413887262344361,11.871965408325195,0.4120343327522278,-6.479007244110108,-1.0986365079879763
2.2696805000305176,-3.4206335544586186,15.602543830871584,0.7277233004570008,-8.374670028686523,-1.2935506105422976
6.271286964416504,-2.7237150669097905,22.067533493041996,0.6328962445259095,-9.912394523620607,-1.5155742168426514
16.4442310333252,-3.5298409461975098,24.41950225830078,-0.13819515705108643,-10.774956703186037,-1.6431374549865723
30.748886108398438,-4.998373985290527,29.408428192138672,-1.3090620040893555,-10.64768695831299,-1.571334481239319
38.63380432128906,-6.247797966003418,33.88739776611328,-2.3206250667572026,-9.80112075805664,-1.7103663682937624
31.65420722961426,-6.4708266258239755,24.885257720947266,-2.9059350490570073,-8.014580726623537,-1.9507198333740234
24.618192672729496,-9.028813362121584,26.97581291198731,-3.150662422180176,-5.966250896453858,-1.476501226425171
19.119989395141605,-11.909059524536133,23.887365341186527,-2.8369395732879643,-3.2074804306030273,-1.0906202793121338
28.818382263183594,-10.882183074951172,30.54040336608887,-1.6241910457611084,-0.8513310551643373,-1.4234426021575928
24.014101028442386,-12.854096412658693,30.39193916320801,-0.40741190314292913,2.6781427860260014,-0.9748104810714722
1.0297640562057497,-7.159609317779542,11.715456962585451,0.1713095456361771,3.82657527923584,-0.6044661402702333
-1.7713146209716797,0.7923800349235536,4.928511619567871,0.1899452805519104,3.9621632099151616,-0.6688154339790345
-2.3126780986785893,4.652123928070069,1.8820320367813113,-0.5979034900665283,3.76734471321106,-0.7585753202438354
-4.055861949920655,4.531437873840332,-0.3919495642185212,-1.4862139225006104,3.582408905029297,-0.8028175234794618
-3.7141165733337402,1.1097402572631836,-0.5968776345252992,-1.7650369405746462,3.4323067665100098,-0.8758041262626649
-2.925893068313599,-1.1043200492858887,0.5404676198959351,-1.4436453580856325,3.3987627029418945,-0.8601639270782471
-2.7723510265350346,-0.5499323010444642,1.427408814430237,-0.9274574518203735,3.55328917503357,-0.7686110734939575
-3.198488712310791,1.093947768211365,1.647587776184082,-0.7057023048400879,3.740626335144043,-0.607094705104828
-2.7980823516845703,2.0784683227539062,2.0568184852600098,-0.8518444895744325,3.914396286010742,-0.3797015249729157
-2.4515378475189213,1.558784604072571,1.8199083805084229,-1.036563038825989,4.144513130187988,-0.13282468914985657
-3.324179887771607,0.5484144091606141,0.4283190965652466,-1.0000396966934206,4.288933753967285,0.10014865547418596
-3.5393800735473633,1.3706376552581787,-0.21667759120464328,-0.8797542452812196,4.240556240081788,0.31105393171310425
-2.246057748794556,2.1810059547424316,0.49649351835250854,-0.8865616321563721,4.182716846466065,0.4884633421897888
-0.9142071008682251,2.0972101688385014,1.3458919525146484,-0.8955191969871522,4.209545135498047,0.577945351600647
0.2939269542694092,2.1985230445861816,1.9109722375869753,-0.835614800453186,4.2838501930236825,0.5947030782699585
1.728524923324585,2.882783889770508,1.9553353786468506,-0.793843150138855,4.395223617553711,0.5574570298194886
2.7415139675140385,4.0611329078674325,1.308256506919861,-0.8384242057800293,4.437631130218507,0.4779807925224304
4.684495449066163,6.922310829162598,1.403076171875,-1.1045968532562256,4.356195926666261,0.36159339547157293
8.128031730651857,7.009066104888917,0.8838501572608949,-1.4956028461456299,4.32446050643921,0.10714778304100037
9.87296772003174,3.3788545131683354,-0.44342392683029175,-1.3541178703308105,4.204090118408203,-0.21679560840129855
11.411275863647461,2.0864350795745854,-1.2174226045608523,-0.750232756137848,3.9080710411071777,-0.3655929863452912
13.460689544677734,2.7714803218841557,-1.179894208908081,-0.2595467865467072,3.503894805908203,-0.25549596548080444
15.253458976745607,2.5631632804870605,-1.8768204450607302,0.02153178490698338,3.0404281616210938,-0.017427885904908184
16.669719696044922,1.4170228242874148,-2.81794285774231,0.3336569964885712,2.4148466587066655,0.23466312885284424
18.91564178466797,1.7475624084472656,-3.2004151344299316,0.7163247466087342,1.6858243942260742,0.5459681153297425
20.718257904052734,3.3278763294219975,-3.7774021625518803,0.9400817155838013,0.9626101851463319,0.8555737137794496
21.134244918823246,4.506066799163819,-4.5295820236206055,0.946386754512787,0.22784927487373352,1.106427311897278
19.897008895874027,4.171463489532472,-5.900193691253663,0.915303409099579,-0.49069920182228094,1.291022539138794
17.02001953125,3.3124074935913086,-7.024930953979492,1.1607913970947266,-1.228164315223694,1.3051536083221436
23.800811767578125,10.280421257019045,-6.856603145599366,1.2141706943511963,-2.0249755382537846,1.292225480079651
107.05848693847656,41.02098846435547,59.32903671264649,-3.7361643314361577,-1.9906744956970215,1.2897623777389529
-12.957242965698242,4.372523307800293,-19.14917755126953,-1.196746587753296,2.8496551513671875,-0.2768032848834992
15.253764152526857,-10.05283832550049,22.01639175415039,-0.30495271086692816,1.7093937397003174,0.5638999342918397
-12.498180389404297,-13.0974817276001,9.15931510925293,-0.14995074272155762,0.7977349162101747,0.28974410891532904
0.5083822011947632,-3.776260614395142,15.789494514465334,0.16429404914379123,-0.3119581937789917,-0.7810086607933046
3.376368999481201,-10.064476013183594,10.416012763977053,0.34711402654647827,-0.5480996370315552,-0.904013216495514
7.1803250312805185,5.875345706939698,9.583127975463867,0.49282011389732366,-0.5738430023193359,-0.89974182844162
8.983226776123047,4.948596477508546,8.19411373138428,0.339358001947403,-0.29013580083847046,-0.5856195688247681
8.570034980773928,2.472556352615357,8.412283897399904,0.09332307428121568,0.07225161790847778,-0.17174656689167025
5.604480743408203,-0.8903508186340332,9.098610877990724,0.013418063521385193,0.3454967141151428,-0.037460964173078544
4.052551746368409,-3.241425037384033,9.662788391113281,0.11017408967018127,0.3360570967197419,-0.11717477440834045
4.104901790618897,-1.9311792850494385,9.8571252822876,0.20255570113658908,0.25363922119140625,-0.20706018805503845
4.905171871185304,0.27616062760353094,9.741787910461428,0.20348745584487915,0.21852450072765353,-0.1921589970588684
5.209546566009522,0.791373610496521,9.753555297851562,0.08725018799304962,0.21583610773086548,-0.0826670601963997
4.662050724029542,0.0902123898267746,9.870230674743654,0.04393011704087258,0.1786644160747528,0.0003355641674716026
4.168976783752441,-0.7489143013954164,9.912146568298342,0.014383018016815186,0.12574477493762973,0.02040994353592396
4.13018798828125,-0.6195220351219178,10.053030014038086,-0.013473942875862122,0.046852115541696555,0.01504492573440075
4.310032844543457,-0.43548357486724854,9.930521011352539,-0.042573101818561554,-0.02688334509730339,0.016278510913252834
4.654018402099609,-0.2450837790966034,9.789327621459961,-0.0709938108921051,-0.06757353991270067,0.034356050193309784
4.6275634765625,-0.2108850330114365,9.713376045227053,-0.10157014429569244,-0.07368200272321702,0.06675734370946886
4.347363471984863,-0.607453465461731,9.768318176269531,-0.10686548054218292,-0.0963692292571068,0.08042113482952118
4.321217060089112,-0.9052738547325135,9.790390968322756,-0.096223883330822,-0.14027707278728488,0.06939665973186493
4.483391284942628,-1.2202256917953493,9.557071685791016,-0.07193051278591156,-0.1683001667261124,0.04368572682142258
4.739815711975098,-1.2297128438949587,9.374569892883303,-0.03612593188881875,-0.1476292908191681,0.026801709085702896
4.808807373046875,-1.0507092475891113,9.38284683227539,-0.0011218071449548006,-0.11910227686166765,0.012169543653726578
4.839628696441651,-0.9971712231636048,9.297540664672852,0.019406091421842575,-0.07302902638912201,0.008226790465414526
4.749195575714112,-0.3387333154678345,9.46550178527832,0.011897053569555283,-0.0536077730357647,0.024348698556423187
4.56144666671753,-0.16481973230838778,9.703266143798828,-0.02988293953239918,-0.07208395004272461,0.05167341232299805
4.476459503173828,-0.8433799743652344,9.56535053253174,-0.06055975705385208,-0.09316543489694597,0.06398652493953705
4.299687862396241,-0.8630904555320741,9.400134086608888,-0.055466435849666595,-0.12117736041545868,0.055824819952249534
4.174925327301026,-1.021467685699463,9.518382072448732,-0.04242504760622979,-0.16377761960029602,0.023859845474362377
4.184328556060792,-0.9477509260177612,9.471839904785156,-0.034666154533624656,-0.2050166130065918,0.005099114030599594
4.096765995025636,-1.0539522171020508,9.45053482055664,-0.02507278323173523,-0.24509383738040927,-0.017758645117282867
4.106777191162109,-1.0910296440124512,9.541755676269531,0.010312638245522978,-0.33083400130271917,-0.061742834746837616
4.185623645782472,-0.2696897685527802,9.548154830932617,0.020979885011911392,-0.39778450131416326,-0.07713629305362701
3.702631950378418,-1.4271234273910525,9.505404472351076,0.05316712707281113,-0.4748739898204804,-0.12229443341493608
3.999013900756836,-1.462568759918213,9.424322128295898,0.10348402708768846,-0.6019974946975708,-0.19990779459476474
3.9118266105651855,-1.365376114845276,9.54074001312256,0.10425715148448944,-0.7082374095916748,-0.28320047259330755
3.7434394359588627,-1.968667984008789,9.399224281311037,0.16720937192440036,-0.8514405488967896,-0.36071535944938665
4.6747894287109375,0.20793674886226657,10.000756263732912,0.17278711497783664,-1.0058021545410156,-0.4051405191421509
3.9783568382263184,-0.9681290984153749,9.63994026184082,0.18962997198104858,-1.1019276380538943,-0.3716757297515869
4.181676387786866,-0.7128921747207642,10.151931762695312,0.23619656264781955,-1.2914677858352663,-0.38575756549835205
4.647538661956788,-0.5660710334777832,9.779953956604006,0.2547840476036072,-1.4668120145797732,-0.37959033250808716
4.951667308807374,0.2142181098461151,9.940996170043945,0.229302391409874,-1.6324539184570312,-0.3586331605911255
4.701930522918702,-0.1763899028301239,9.981529235839844,0.17761968076229098,-1.8037936687469482,-0.33569434285163885
4.976449012756348,0.011957064270973206,9.907715797424318,0.12228294461965562,-2.0146558284759526,-0.29393720626831055
5.041156768798828,-0.04370339214801788,9.820608139038086,0.08132254332304002,-2.2505035400390625,-0.26871702075004583
5.38443660736084,0.6822316646575928,10.010560989379883,0.0037946579977869987,-2.487069368362427,-0.2327350825071335
5.11512565612793,0.4154151678085327,9.665816307067873,-0.06812451034784318,-2.7377824783325195,-0.22160772979259494
5.325111865997315,0.36799484491348267,9.134202003479006,-0.04475320130586624,-3.0486464500427246,-0.23005686700344088
5.038804531097413,0.9814885258674623,9.074843406677248,0.10985525697469713,-3.5309505462646484,-0.23370666801929477
6.066511631011964,1.173860788345337,10.17220973968506,0.19366252422332764,-4.194310665130616,-0.1526618152856827
10.893525123596193,0.7611837387084961,14.261541366577148,-0.03426648676395416,-4.569731235504151,0.2814273238182068
15.314463615417482,-0.35012638568878174,17.383024215698246,-0.6840760111808778,-4.557940006256104,0.568993330001831
20.568771362304688,-3.667464256286621,17.423376083374027,-1.1511309146881104,-4.394906520843507,0.27791041135787964
33.00049209594727,-6.871204376220703,13.065386772155763,-1.0328873395919802,-4.183204650878906,-0.5181570053100586
38.34007644653321,-9.171122550964357,8.533288002014162,0.1902311146259308,-4.024081707000733,-1.2028098106384277
42.88911437988281,-7.386248111724854,12.848037719726562,1.231941103935242,-3.3583204746246342,-1.442870855331421
34.47020721435547,-2.5770733356475835,10.927447319030763,1.698555111885071,-3.5365514755249023,-1.4533315896987917
44.403820037841804,0.9743293523788452,25.77454376220703,1.0023925304412842,-2.895443677902222,-1.5202630758285525
27.295965194702152,-0.9728000760078431,20.589584350585938,-0.03857783600687981,-1.9242889881134033,-1.4031225442886355
20.933080673217777,-3.393138885498047,16.09517860412598,-0.5457050800323486,-2.072411060333252,-1.526374936103821
18.85544204711914,-7.055942535400391,18.22229766845703,-0.43399366736412054,-2.123157024383545,-1.6288281679153445
16.678842544555668,-9.815448760986328,20.726478576660156,0.13356846570968628,-1.785083889961243,-1.5366693735122683
12.568777084350586,-8.929783821105959,22.61614990234375,0.9221240282058716,-1.0533317327499392,-1.3942444324493408
6.364554882049561,-5.609637260437012,22.06731414794922,1.1448695659637451,-0.07669281959533691,-1.1320444345474245
-1.853346824645996,-3.7476356029510502,17.544639587402344,1.0244389772415163,0.8739930391311646,-1.0026291608810427
-10.399761199951172,-3.4126052856445312,11.644326210021974,0.8483426570892334,1.3406440019607546,-1.022734045982361
-14.998797416687013,-3.255689382553101,7.53442144393921,0.6801615357398988,1.3305199146270752,-1.0425511598587038
-15.054862976074219,-2.9266867637634277,7.294907569885254,0.3963661789894104,1.2399017810821533,-0.9513137936592103
-14.895439147949219,-3.447068214416504,7.769948959350586,0.051582049578428275,1.4891331195831299,-0.7632494568824769
-16.399240493774418,-4.685544967651367,7.056315898895265,-0.2026645839214325,1.8479014635086062,-0.5229486823081971
-17.389169692993168,-5.0425429344177255,5.3107757568359375,-0.4047279059886933,2.187389373779297,-0.2103446871042252
-17.285795211791996,-4.044520854949952,4.642164707183839,-0.7501046657562256,2.45133638381958,0.17758224904537204
-15.78472900390625,-3.888948202133179,4.324575901031495,-1.163135647773743,2.7787532806396484,0.6585189700126649
-15.132159233093263,-4.351571559906007,3.022043228149414,-1.3521081209182741,3.0989255905151367,1.1379165649414062
-14.416722297668459,-3.081399440765381,1.650123476982117,-1.3761591911315918,3.27242922782898,1.535740613937378
-12.276928901672365,-0.5409446954727173,1.4171438217163086,-1.5265842676162722,3.4075157642364506,1.8333516120910645
-10.14711093902588,0.5546715855598451,-0.0975911393761635,-1.7147953510284424,3.56583046913147,2.042452335357666
-8.213816642761232,1.5200343132019043,-2.286599397659302,-1.7391960620880127,3.5234963893890385,2.1600816249847417
-4.0493741035461435,3.531543731689453,-1.433157205581665,-1.8754352331161501,3.365015983581543,2.2232663631439213
1.2907217741012575,4.395175457000733,0.9491111040115356,-2.263035297393799,3.409850597381592,2.26805853843689
7.527849197387695,2.8016312122344975,3.160098075866699,-2.598634719848633,3.7233159542083745,2.386075019836426
12.431822776794435,0.2919136881828308,1.7744494676589968,-2.3230323791503906,4.0776429176330575,2.4626486301422124
16.667675018310547,0.9324108958244325,-1.184770703315735,-1.7016181945800781,4.154522418975831,2.4002370834350586
18.53521537780762,4.473018169403077,-5.9508209228515625,-1.4120073318481445,3.8207383155822754,2.180790185928345
18.92678451538086,6.876027584075929,-9.420674324035646,-1.7300910949707031,2.965455770492554,1.8735361099243164
20.680099487304688,4.0854949951171875,-11.61688232421875,-2.128261089324951,1.8894041776657107,1.649332642555237
20.2632007598877,0.6286800503730775,-12.944416999816896,-2.072676181793213,0.6237565875053407,1.695117473602295
20.002332687377933,-0.1122906506061554,-10.89864730834961,-1.9974067211151123,-0.5590088367462158,2.192290544509888
49.28296661376953,0.5794708728790283,-12.79864501953125,0.071965292096138,-1.4736791849136355,0.8033055067062378
65.28907012939455,19.76000022888184,18.225570678710938,3.3583145141601562,-1.976539731025696,-3.82516360282898
43.86803817749024,-6.191151142120362,26.13604736328125,2.1255030632019043,3.912359952926636,-1.5531649589538574
-4.670728206634522,-11.791919708251953,5.165240764617921,2.219958066940308,2.780232191085816,-0.09134261310100555
-7.922685146331788,23.31103324890137,23.89659881591797,0.836617410182953,2.425046443939209,-0.0636873170733452
-0.09627968072891235,-4.484612464904785,12.483221054077148,0.18572361767292025,1.2899651527404785,-0.7184368371963501
2.9400815963745117,-6.085699081420898,8.956736564636232,0.371867835521698,0.4320428669452668,-0.3510650396347046
2.0166521072387695,1.4811133146286013,13.270055770874023,0.34578230977058416,-0.08510708063840867,-0.3831932544708252
4.914332866668702,-4.063296318054199,8.679550170898438,0.3964279294013977,-0.37518677115440374,-0.5762085914611816
8.175744056701662,0.6332383155822754,8.700663566589357,0.34694930911064154,-0.19510576128959656,-0.4257758855819702
7.716906547546387,1.7674965858459473,8.98080825805664,0.27293330430984497,0.09058656543493272,-0.11670349538326263
5.73396921157837,-0.9033941030502319,9.06509304046631,0.15395587682724,0.2966264486312866,0.05222288146615029
4.59736442565918,-1.5698227882385254,9.46292018890381,0.1540963798761368,0.29950642585754395,0.06509772688150407
4.271729469299316,-1.3633406162261963,9.659276008605959,0.12357775121927263,0.2154250144958496,0.022571444511413574
4.366423130035401,-1.2807297706604004,9.528346061706545,0.08345168828964233,0.12325178831815721,-0.003904028795659542
4.661820888519288,-0.5318999886512757,9.750375747680664,0.042421910911798484,0.054989535361528404,0.004445068538188934
4.626450061798097,-0.8417384624481201,9.710556983947756,-0.019314341247081757,-0.009789404459297659,0.03684479743242264
4.6354689598083505,-1.3131623268127441,9.563879013061523,-0.04050823301076889,-0.07751061767339708,0.03351278230547906
4.6173110008239755,-1.320883631706238,9.63172721862793,-0.05690849944949151,-0.15055501461029053,0.020091759040951732
4.725975036621094,-1.3428101539611816,9.57609272003174,-0.0755431056022644,-0.21529847383499146,0.022369792684912685
4.737406253814698,-1.3850042819976807,9.455519676208498,-0.07325642555952074,-0.2680841088294983,0.012986636720597746
5.039742946624757,-0.8501650691032411,9.543093681335451,-0.1054295152425766,-0.2926082313060761,0.03677967563271523
4.896213054656983,-1.0079376697540283,9.249570846557617,-0.1264225393533707,-0.3177323341369629,0.0630791261792183
5.010254383087159,-1.0362322330474854,9.30746841430664,-0.14974708855152133,-0.31689813733100897,0.10017292201519012
4.661149501800538,-1.5186944007873535,9.121702194213867,-0.14230485260486606,-0.3636518716812134,0.10026106983423234
4.877678394317628,-1.5627613067626953,9.269224166870117,-0.1384670585393906,-0.4064936637878418,0.0955410748720169
4.606064796447754,-1.5412575006484988,9.078071594238281,-0.11389373242855072,-0.47147259116172796,0.06364069879055023
4.6074280738830575,-1.4967353343963623,9.149406433105469,-0.12129659950733185,-0.5286698341369629,0.04703840985894204
4.62064266204834,-1.7418408393859863,9.150853157043459,-0.12695130705833435,-0.5990846753120423,0.0033230995759367943
4.464381217956543,-1.9534689188003542,8.95922374725342,-0.1448580771684647,-0.6658194065093994,-0.017765402793884277
5.020761013031007,-2.093899726867676,8.768903732299805,-0.14123496413230896,-0.7482578158378602,-0.07282702624797821
5.536501884460449,-1.9521548748016357,8.581293106079102,-0.12774783372879028,-0.7412290573120117,-0.09915367513895036
5.459323883056641,-1.5070533752441406,8.551751136779787,-0.09789492934942247,-0.7299288511276245,-0.11617482453584672
5.274286270141602,-1.7864214181900027,8.355249404907227,-0.10652591288089752,-0.7026134133338929,-0.1276126950979233
5.238201618194581,-2.0441622734069824,8.237823486328125,-0.07818309217691423,-0.7094897031784058,-0.1669636517763138
5.255374431610108,-1.8510510921478271,8.746589660644531,-0.034500125795602805,-0.7253614068031312,-0.20066037774085999
5.171861171722413,-2.023918628692627,8.567799568176271,-0.014508133754134178,-0.7664076685905458,-0.24950984120368958
5.727500438690186,-2.199209690093994,8.229983329772951,0.0010070099961012602,-0.7874576449394227,-0.3272887766361237
5.705498218536378,-1.592622995376587,8.395824432373047,0.030865939334034923,-0.8024610280990601,-0.36595252156257635
4.79752016067505,-2.036575555801392,9.133952140808107,0.054594960063695915,-0.8761374354362489,-0.3996460437774658
4.749016284942628,-2.2980787754058842,9.215548515319826,0.1397322118282318,-1.0555576086044314,-0.4677380919456482
5.5751919746398935,-1.589520335197449,9.354289054870607,0.2190817892551422,-1.2697447538375857,-0.5108883976936341
5.05316972732544,-0.6029834747314453,9.195636749267578,0.22958676517009738,-1.4383835792541504,-0.5427398085594178
5.148058414459229,-0.9428733587265015,9.504244804382326,0.22957356274127963,-1.680892586708069,-0.5312930345535278
5.07563591003418,-0.28138309717178345,9.63255023956299,0.23607909679412842,-1.9965013265609743,-0.47633713483810425
5.350327491760254,-0.4717991352081299,9.411764144897461,0.24468547105789185,-2.3735373020172124,-0.44700768589973455
5.458507537841797,-0.8258706331253052,8.905644416809084,0.2639323174953461,-2.7790517807006836,-0.40509572625160223
5.844053745269776,-0.1596076786518097,9.051777839660646,0.29227858781814575,-3.199906349182129,-0.34978303313255316
6.478435039520265,-0.31674712896347046,9.106137275695803,0.28472462296485906,-3.586887836456299,-0.249255046248436
7.495432376861573,0.07371367514133453,10.105174064636232,0.29495146870613104,-3.9596171379089355,-0.10691909492015839
8.640399932861328,-0.27312657237052923,11.93385410308838,0.2680735886096955,-4.246838569641113,0.10946740955114366
11.164509773254396,-2.085706472396851,14.713816642761232,0.14239177107810974,-4.32158088684082,0.2928535640239716
15.608261108398438,-2.8371894359588627,16.134437561035156,-0.24716982245445251,-4.14082956314087,0.3170551061630249
23.022706985473636,-4.266058921813965,17.186473846435547,-0.42882686853408813,-3.892149686813355,0.23242475092411044
27.467697143554688,-3.6889891624450684,13.27792263031006,-0.5957509279251099,-3.5933434963226323,-0.07159221172332764
33.509681701660156,-8.047943115234375,7.319877624511719,-0.31615653634071356,-3.576480627059937,-0.6727311611175537
37.34532165527344,-13.146432876586914,6.395271301269531,0.8503321409225464,-3.3550388813018803,-0.9257125854492188
34.208812713623054,-14.972981452941896,7.95735788345337,2.0562357902526855,-3.005253076553345,-0.5633313059806825
40.78953933715821,-8.178293228149414,16.100444793701172,2.8296959400177006,-3.3052191734313965,-0.5001731514930726
34.15395736694337,-3.435089111328125,25.01773452758789,3.082119226455689,-1.6292821168899538,-0.8249772787094116
18.507389068603516,2.4459476470947266,17.347183227539062,2.1296348571777344,-0.8527786135673524,-0.9684431552886963
14.37176513671875,4.736890316009522,14.595213890075685,0.7168213725090028,-0.8227739334106445,-1.4641304016113281
10.198048591613771,2.395465850830078,12.404098510742188,-0.5364443063735962,-0.8540715575218202,-2.0699033737182617
8.00115966796875,-0.7898013591766357,13.020085334777834,-1.3347202539443972,-0.9271944165229798,-2.5181894302368164
7.734877109527589,-4.555131435394288,13.902489662170412,-1.409825325012207,-0.6896088719367982,-2.6540560722351074
6.080974578857422,-6.685742378234863,13.768176078796388,-0.8241783976554872,-0.16748985648155212,-2.558445453643799
3.0970017910003667,-7.749852180480957,13.690771102905273,0.03296667709946633,0.46953433752059937,-2.3179047107696538
-0.24263635277748108,-6.385578632354737,13.244384765625,0.7225886583328247,1.1116392612457275,-1.8785449266433718
-3.7962172031402592,-3.4365711212158203,11.17187023162842,0.9275285601615907,1.6482982635498047,-1.3852456808090212
-8.033589363098146,-1.9026412963867188,7.605680942535401,0.7424106597900391,1.9988843202590945,-0.9387592673301698
-10.131632804870607,-2.368258476257324,5.456207275390625,0.42233136296272283,2.098682403564453,-0.5254080891609193
-10.29207515716553,-3.007938861846924,4.300920486450195,0.20037759840488437,2.1411182880401616,-0.06609281897544861
-10.981566429138185,-4.003972053527832,3.099636793136597,0.20731139183044434,2.2011272907257085,0.3832763433456421
-11.443779945373537,-3.349507570266724,2.5160088539123535,0.23879680037498474,2.230773210525513,0.8202562928199769
-11.78731918334961,-2.1480698585510254,1.7352700233459473,0.09154179692268372,2.279413461685181,1.2169365882873535
-11.230277061462404,-1.5672479867935183,1.6354910135269167,-0.15427374839782715,2.362931251525879,1.5399442911148074
-10.302427291870117,-1.4910806417465212,1.6492193937301638,-0.333182692527771,2.544282197952271,1.8037400245666504
-9.534537315368654,-0.9384206533432007,1.2028648853302002,-0.35278987884521484,2.7835090160369877,1.9764839410781863
-8.933789253234865,0.6336128115653993,0.3592976033687592,-0.36375841498374945,2.985030174255371,2.033328771591187
-7.826508045196534,2.2802240848541264,-0.6636051535606385,-0.45246180891990667,3.1334469318389897,1.9778587818145752
-6.49306344985962,3.328197479248047,-1.7093660831451416,-0.5613150596618652,3.222586870193482,1.8072023391723633
-3.659598588943482,4.124727249145508,-1.0575122833251953,-0.6961952447891235,3.2812101840972905,1.5323859453201296
-0.09576326608657837,3.9434070587158203,0.18211789429187777,-0.7846429944038392,3.458212375640869,1.188960671424866
3.4566421508789062,4.032428264617921,1.2558867931365967,-0.7775713801383973,3.7218515872955327,0.8289011716842651
7.24006462097168,4.8271589279174805,1.4536621570587158,-0.8038302063941957,3.992067813873291,0.49200299382209783
11.46022129058838,3.9168369770050053,0.3587411046028137,-0.7991005778312684,4.169976234436035,0.11519740521907806
15.583336830139162,1.8540222644805908,-1.7398946285247803,-0.6092618703842163,4.0683960914611825,-0.21153506636619568
20.098661422729496,0.9746071100234985,-3.1828539371490483,-0.41078743338584905,3.655739068984986,-0.2501057982444763
23.70586204528809,-0.05005006492137909,-4.341373920440675,-0.38832578063011175,3.0796384811401367,0.03350754454731942
24.457630157470703,-1.411487102508545,-7.651360988616944,-0.37270250916481024,2.4218029975891113,0.44541776180267334
21.352802276611328,-1.9062132835388184,-11.370556831359865,-0.30500772595405584,1.3751764297485352,0.8212841153144838
18.649625778198246,-2.5789794921875,-11.844668388366701,-0.2560610473155976,0.12196605652570726,1.207925796508789
14.728739738464357,-2.5760040283203125,-10.943658828735352,-0.0710287317633629,-0.8346647024154663,1.4946848154067995
35.09507751464844,6.368699550628663,-9.041740417480469,-0.12796260416507724,-1.9746136665344238,1.0849640369415283
74.161376953125,30.26995849609375,65.42240905761719,-1.7709527015686035,1.5684732198715212,-0.14739710092544556
-0.6379733085632324,-2.4140975475311284,-11.042783737182617,-0.9310951232910156,3.4048962593078613,-0.500452220439911
5.57459306716919,-15.951443672180178,17.093524932861328,0.012084570713341238,3.8765783309936523,0.518664300441742
-2.049824476242066,8.334918022155763,17.96470451354981,-0.15857841074466708,3.0861778259277344,-0.2645256519317627
-4.317081928253175,-14.697223663330078,10.175011634826662,0.45995569229125977,2.50267243385315,-0.5475330352783203
-2.6623153686523438,1.264603614807129,15.690232276916506,0.4092109799385071,0.7571016550064087,-0.19009365141391757
-0.2531225085258484,-1.9691059589385986,12.313545227050781,0.24730578064918518,-0.10170608013868333,-0.39182788133621216
5.162623882293702,0.12944439053535461,9.818159103393555,0.19150489568710327,-0.47942999005317694,-0.3935587108135224
8.18653964996338,1.1651229858398438,8.144208908081055,0.06941995024681091,-0.2800386250019074,-0.2363341748714447
8.150341033935547,0.6684867143630981,7.908550739288331,0.043119501322507865,0.10574711114168169,-0.0662255734205246
6.088637351989746,-1.402473568916321,8.550409317016602,0.06683818995952606,0.4041049182415009,0.010897327214479446
4.152310371398926,-0.60604065656662,9.529709815979006,0.06378571689128876,0.4764795601367951,0.03488462790846825
3.758908271789551,-0.23749186098575595,10.219361305236818,0.006798471789807082,0.38476622104644775,0.07674539834260942
3.6629767417907715,-0.7067853212356567,10.106431007385256,-0.055547356605529785,0.258758008480072,0.09179420024156572
4.20913028717041,-1.0424054861068728,9.822707176208498,-0.06256743520498277,0.16573143005371094,0.07963741570711137
4.130414009094238,-0.670513391494751,9.879606246948242,-0.065969355404377,0.0945335179567337,0.077021524310112
3.739947080612183,-0.7000483274459839,10.196794509887695,-0.10084673762321472,0.0022415386047214274,0.08921255171298981
3.623354434967041,-0.9885572195053101,10.23051166534424,-0.11851425468921661,-0.1439478099346161,0.07857077568769456
3.770379066467285,-1.033281445503235,10.132753372192383,-0.11824961006641388,-0.2755101621150971,0.05639197677373886
4.376805305480957,-0.9948678016662598,9.966771125793459,-0.14030545949935913,-0.36587521433830267,0.04215886816382409
4.273950576782227,-0.9803293943405151,9.588486671447756,-0.1709951609373093,-0.41324424743652344,0.044743161648511894
4.695855140686035,-0.9797450304031372,9.525423049926758,-0.19360347092151645,-0.41877481341362005,0.04652656614780426
4.671943664550781,-1.2005939483642578,9.376387596130373,-0.1765616238117218,-0.42434868216514593,0.04294714331626892
4.7107205390930185,-0.9284483194351196,9.647878646850586,-0.17152908444404602,-0.40017262101173406,0.05403606966137887
4.391904830932617,-0.7848207354545594,9.53597164154053,-0.1619115620851517,-0.4119921922683716,0.056139465421438224
4.45606565475464,-1.004220724105835,9.32864761352539,-0.20349891483783725,-0.41841903328895574,0.06636828184127808
4.281474590301515,-0.9815707802772523,9.379005432128906,-0.22876513004302979,-0.4616506397724152,0.05909271538257599
4.091129302978516,-1.5428342819213867,9.074341773986818,-0.25100278854370117,-0.5015997290611268,0.03523658588528634
4.490783214569093,-1.1668092012405398,9.382238388061523,-0.24595457315444946,-0.5742604136466981,0.01741434633731842
4.803053379058839,-1.1797466278076172,9.514891624450685,-0.2092764973640442,-0.6174566745758057,0.017754113301634792
4.653061389923097,-1.592264771461487,9.190352439880373,-0.18288786709308627,-0.6537363529205322,-0.0023364399094134574
4.871392726898194,-1.3793354034423828,9.051730155944826,-0.13439542055130005,-0.6823604702949525,-0.02814203687012196
4.725583076477051,-1.9030550718307497,8.829148292541506,-0.08338139951229095,-0.7038312554359437,-0.0757904201745987
5.694538116455078,-1.4606494903564453,8.694159507751467,-0.041298896074295044,-0.6815279722213745,-0.09479158371686937
5.372611045837402,-1.2074904441833496,8.785881996154787,-0.010272893123328687,-0.6373500823974609,-0.09490296989679338
5.2949018478393555,-1.7734367847442627,8.524294853210451,0.0021706966217607264,-0.6148892641067505,-0.13574811816215515
5.508775234222413,-1.5643072128295898,8.696155548095703,0.03194398432970047,-0.590622365474701,-0.17423787713050842
5.036246299743652,-1.1834210157394411,8.972831726074219,0.04926190152764321,-0.5807848572731019,-0.19720369577407837
5.110016345977784,-1.4724999666213991,8.829871177673342,0.06598468869924547,-0.6152269840240479,-0.19146047532558444
4.800884246826172,-1.6173324584960938,8.939020156860352,0.0876162424683571,-0.6516844034194946,-0.2073000967502594
4.757869720458984,-1.6653133630752566,8.950036048889162,0.11110382527112962,-0.7405663728713989,-0.2472443133592606
5.281532287597656,-1.182664155960083,9.203704833984375,0.12145980447530748,-0.8467206358909608,-0.254907488822937
4.754858016967773,-1.0161131620407107,9.366752624511719,0.11297976225614549,-0.9521569013595581,-0.24382688105106357
4.7802019119262695,-1.571411371231079,9.680735588073732,0.09168668836355211,-1.1404917240142822,-0.25856518745422363
4.580750465393066,-1.3205777406692507,9.802199363708498,0.20161375403404236,-1.3429239988327029,-0.27478641271591187
4.807946681976319,-0.5828790664672852,10.24287223815918,0.21493828296661377,-1.6037790775299072,-0.30853465199470526
4.952884674072266,-0.5010796785354614,9.820266723632812,0.2120715528726578,-1.852159023284912,-0.33213564753532415
4.768933773040772,-0.9018610715866089,9.64540195465088,0.21246051788330078,-2.1607244014739995,-0.3582013547420502
4.386438369750977,-0.7505079507827759,9.47325325012207,0.26119968295097357,-2.5455946922302246,-0.41817393898963934
5.308273792266847,-0.6076171994209291,9.43987560272217,0.2932368218898774,-2.9886872768402104,-0.4397992491722107
4.586287498474121,-0.6430972814559937,9.023612022399904,0.3830974996089936,-3.487483501434326,-0.42800250649452215
5.928658485412598,0.5984860062599183,9.731776237487795,0.4234321713447571,-3.996701002120972,-0.3907006680965424
7.339088439941406,0.2929379940032959,11.12698268890381,0.4128059148788452,-4.498134136199952,-0.20847386121749878
9.574563980102539,-0.15656532347202304,12.740071296691896,0.13418041169643405,-4.762455463409425,0.11514595150947571
13.788122177124023,-0.7522579431533813,14.570154190063477,-0.5357976555824281,-4.736632347106934,0.38293895125389105
16.310548782348636,-1.526564359664917,14.029110908508303,-1.1278804540634157,-4.382218360900879,0.47314882278442383
23.41146469116211,-1.8662340641021729,15.383682250976562,-1.4491237401962282,-3.9491443634033203,0.33459159731864935
27.115758895874027,-1.7355422973632812,13.104258537292482,-1.9467639923095703,-3.3170619010925293,-0.030070921406149868
28.286544799804688,-7.841822147369386,5.34173583984375,-1.2479623556137087,-2.86832332611084,-0.9281604886054994
35.570819854736335,-8.636176109313967,4.30353593826294,0.035227470099925995,-2.8584191799163823,-1.317707419395447
32.433422088623054,-7.244317531585694,5.9355573654174805,0.9361779689788818,-2.4414985179901127,-1.362227439880371
40.03404235839844,-4.996586322784425,14.555212020874023,1.3759355545043945,-2.2863831520080566,-1.6319979429244997
30.003345489501953,-3.985606908798218,17.32678985595703,1.719245433807373,-0.9778088927268983,-1.9153311252593994
18.344364166259766,-0.4946053624153137,10.850751876831055,1.1720139980316162,-0.8177011609077455,-2.0917565822601323
16.049701690673828,-1.0929112434387207,10.991338729858398,0.567914605140686,-1.2380241155624392,-2.5028834342956543
12.788004875183107,-2.2574877738952637,11.375111579895021,0.04459814727306366,-1.509364128112793,-2.819229364395142
12.13545322418213,-4.2212934494018555,13.65186882019043,-0.3400560915470124,-1.5063459873199463,-2.9415237903594975
12.282372474670412,-7.981941223144531,15.960637092590334,-0.2678413391113281,-1.0967823266983034,-2.773067712783814
9.371832847595217,-9.49989986419678,16.183485031127933,0.30799198150634766,-0.36724802851676946,-2.4302453994750977
3.5777866840362553,-8.75784683227539,14.248702049255373,1.1016443967819216,0.3875961005687714,-2.10599422454834
-1.1023083925247195,-6.196385383605957,12.639509201049805,1.540855884552002,0.8395612835884095,-1.7428131103515625
-3.1212770938873295,-3.452127456665039,11.451211929321289,1.3783689737319949,1.1786692142486572,-1.221646785736084
-6.263075351715089,-2.9024512767791752,8.42263698577881,1.1020147800445557,1.474558234214783,-0.7502325773239136
-9.751599311828615,-3.4278206825256348,5.971385955810547,0.9134788513183594,1.524564504623413,-0.38878795504570013
-10.53100109100342,-3.203359603881836,5.56273078918457,0.7430955767631532,1.376356601715088,-0.03782212361693383
-9.109839439392092,-2.3848066329956055,6.542840957641602,0.44512674212455755,1.3957529067993164,0.35266757011413574
-9.044116020202638,-2.631571531295777,6.455430507659913,0.20548462867736816,1.7186251878738406,0.6801904439926147
-10.31027603149414,-2.1537001132965092,4.984029293060304,0.059521783143281944,2.0022394657135014,0.9193851947784424
-10.184422492980959,-0.5217385292053223,4.243488788604737,-0.15268683433532715,2.1607620716094975,1.1148560047149658
-8.77668857574463,0.2727604806423188,4.747673034667969,-0.47928610444068914,2.3703203201293945,1.2993104457855225
-7.874520778656007,-0.024920634925365448,4.505910396575929,-0.6605139374732972,2.7025036811828613,1.4170368909835818
-8.017767906188967,0.5922352075576782,3.163788318634033,-0.635905683040619,3.0013239383697514,1.4025888442993164
-7.413351058959961,2.540200710296631,2.428553581237793,-0.7066145539283754,3.180206775665283,1.3114894628524782
-5.791266441345215,3.5985069274902344,2.147642850875855,-0.9057180285453797,3.3721957206726074,1.1150436401367188
-3.8525459766387944,4.253128528594972,2.1619169712066655,-1.0842264890670779,3.6085758209228516,0.8384544253349305
-2.1568648815155034,6.005461692810059,1.5914063453674316,-1.2753362655639648,3.880265712738037,0.5056253075599672
-0.24561323225498202,7.114595890045167,0.20604604482650757,-1.5043890476226807,4.090453624725343,0.0774044394493103
2.605974912643433,6.234024524688722,-0.5761250853538514,-1.5867859125137331,4.174593925476074,-0.42399632930755615
6.189202785491944,4.234199523925781,-0.17596355080604553,-1.3621530532836914,4.185040950775147,-0.8399722576141357
8.784813880920412,2.55195164680481,-0.2545381784439087,-0.9247334003448486,4.190314292907715,-1.0239299535751345
10.186777114868164,2.238649368286133,-1.4666181802749636,-0.5406593680381776,4.055866241455078,-0.9446510672569276
12.409744262695312,1.6508619785308838,-2.57196593284607,-0.3431839346885681,3.7127735614776616,-0.6807804703712464
15.090888023376467,0.33474978804588323,-2.6509671211242676,-0.1889743208885193,3.2281630039215092,-0.2487998902797699
17.88175773620606,0.2994343042373657,-1.7902226448059082,-0.12456559389829637,2.768356084823609,0.41004133224487305
19.042633056640625,0.5568528175354004,-2.4461917877197266,-0.20189633965492249,2.391271829605103,1.1659767627716064
17.67223358154297,0.12103886902332306,-4.798754215240479,-0.204280823469162,1.8691099882125857,1.817583203315735
15.681777954101562,0.8051923513412476,-6.645236015319824,-0.12877182662487033,1.1686158180236816,2.2971384525299077
37.39965438842774,17.43518829345703,-8.54052734375,-1.7245457172393799,-0.6207748651504517,2.7288587093353276
85.33448028564455,44.84660339355469,44.39474105834962,-3.6156404018402104,0.6316455602645874,1.4714707136154177
7.21351194381714,-4.974020957946777,0.3917524814605713,-1.545583724975586,3.2473175525665288,0.34596636891365057
6.496569633483887,-18.501094818115234,13.458167076110842,-0.34006720781326294,3.331331014633179,1.356130838394165
-13.53262710571289,-2.43631386756897,13.676424980163576,-0.20218583941459656,2.0134072303771973,0.35823908448219305
-3.2367837429046635,-15.41911029815674,12.49576187133789,0.3345416188240051,0.9449456334114076,-0.4368416666984558
-3.039925813674927,-1.9450110197067263,13.819143295288086,0.45697024464607244,-0.02824385091662407,-0.5631269216537476
2.971771240234375,0.4012658298015595,11.471222877502443,0.3802781105041504,-0.5152310729026796,-0.8745995759963989
8.347745895385742,2.876686334609986,9.018113136291506,0.35112667083740234,-0.5272165536880493,-0.6112213730812074
8.401168823242188,4.991710662841797,8.196446418762209,0.06943868845701219,-0.291633665561676,-0.21660785377025607
7.561913013458253,1.9706518650054932,8.359916687011719,-0.10389494895935059,0.075206957757473,0.09315275400877
5.833869934082031,-1.8037883043289187,8.765541076660156,-0.07828295230865479,0.3438806831836701,0.1474643349647522
3.964609146118164,-2.2599580287933354,9.59499263763428,0.027009859681129456,0.4375123381614685,0.0598914884030819
3.5250344276428223,-1.0495229959487917,10.040544509887695,0.06626202911138536,0.37852686643600464,-0.009689050726592542
3.919349908828736,0.22073100507259372,10.165038108825685,0.051637660712003715,0.27606111764907837,-0.020045205950737
3.9874107837677006,0.3351731300354004,10.192010879516602,-0.019072202965617183,0.21229276061058044,0.03835380449891091
3.726006507873535,-0.30320727825164795,10.028579711914062,-0.0528499037027359,0.1333075761795044,0.07529065757989885
3.6115989685058594,-0.506394922733307,10.305941581726076,-0.06234246492385864,0.018031423911452297,0.0637170821428299
3.4263913631439213,-0.7539231777191162,10.221942901611328,-0.08572947978973389,-0.10508932918310167,0.03669052198529244
3.9516136646270756,-0.6515160799026489,10.006434440612795,-0.08204064518213273,-0.19752708077430725,0.0048648747615516194
4.435119152069093,-0.16723407804965976,9.83700466156006,-0.10690252482891083,-0.2270096242427826,0.016792083159089092
4.468877792358398,-0.1597166359424591,9.778120994567873,-0.13895736634731296,-0.21711918711662292,0.05788639560341836
4.405991554260254,-0.7983297705650331,9.590456962585451,-0.12736435234546664,-0.21638387441635132,0.06595692038536072
4.576175689697266,-0.6616712808609009,9.612490653991701,-0.12366714328527452,-0.19893786311149597,0.06302206963300706
4.4436445236206055,-0.3430458009243012,9.699295043945312,-0.14150774478912354,-0.19924557209014893,0.08126754313707353
4.148162841796875,-0.9082592725753784,9.732998847961428,-0.1293660253286362,-0.22155967354774475,0.06998393684625627
4.304931640625,-0.8057141304016113,9.662195205688477,-0.12681283056735995,-0.24531742930412292,0.054804302752017975
4.341233730316163,-0.5035887956619263,9.716223716735842,-0.1172793060541153,-0.2581970393657685,0.06010734289884567
4.176671504974366,-1.265601992607117,9.535091400146484,-0.09194761514663696,-0.2888813614845276,0.04653632268309594
4.607055187225343,-0.80459862947464,9.577715873718263,-0.07874840497970581,-0.29330083727836614,0.02920960634946823
4.265420913696289,-0.9983358383178711,9.374753952026367,-0.07542385160923004,-0.2911897003650666,0.029498526826500896
4.291861534118652,-0.5346461534500122,9.785384178161623,-0.044603459537029266,-0.3325920403003693,0.009952114894986153
3.9599516391754155,-1.0404509305953982,9.640339851379396,-0.054078906774520874,-0.36653202772140503,-0.002480573253706098
4.349405765533448,-0.6908988952636719,9.641202926635742,-0.029460005462169647,-0.4368104040622712,-0.013551337644457817
3.9954011440277104,-1.2087980508804324,9.449273109436037,0.0026031287852674727,-0.4938564896583557,-0.022262468934059143
4.398965358734132,-0.8577535748481752,9.302370071411133,0.0250107403844595,-0.5516207218170166,-0.044130917638540275
4.424834728240968,-0.5561070442199707,9.272349357604982,0.02863723412156105,-0.5846730470657349,-0.044992435723543174
4.084221839904785,-0.7713913917541504,9.60916042327881,0.028411436825990677,-0.6480169892311097,-0.06338903307914734
4.252837657928468,-0.6873284578323364,9.591448783874513,0.06281285732984544,-0.7295098304748535,-0.07874555885791779
3.881080865859986,-1.171522855758667,9.261432647705078,0.09129099547863007,-0.8347871899604798,-0.12544840574264526
4.704936504364015,-0.07333625853061676,9.418210983276367,0.10462196916341783,-0.9516583085060121,-0.1269875168800354
4.3575239181518555,-0.7689779996871948,9.720457077026367,0.09451206773519517,-1.0296428203582764,-0.12975321710109713
4.214092254638672,-0.5570777654647827,9.742790222167969,0.10037144273519517,-1.1887152194976807,-0.1469542682170868
4.476278305053711,-0.22901226580142978,9.574352264404297,0.07683713734149933,-1.335696578025818,-0.16680234670639038
5.023968696594238,-0.2107754945755005,9.600319862365724,0.005323465447872878,-1.4540227651596072,-0.190559983253479
5.5153608322143555,-0.5806225538253784,10.305474281311037,0.016642974689602855,-1.5621984004974365,-0.15501396358013156
4.40399169921875,0.05255098640918732,9.74572277069092,0.014737995341420174,-1.7034038305282595,-0.11508070677518846
4.664080619812012,-0.300711989402771,9.848084449768068,-0.02650391310453415,-1.8641830682754519,-0.16595718264579773
5.290143966674805,-0.12760087847709656,9.87106704711914,-0.08880473673343658,-2.107646942138672,-0.16545043885707858
5.328211784362793,-0.25894856452941895,9.852084159851076,-0.12771035730838778,-2.288968563079834,-0.1825513690710068
4.830545902252198,-1.2240748405456543,8.746418952941896,-0.10254014283418657,-2.5108766555786133,-0.19068652391433716
4.905053615570069,-1.1930572986602783,8.82553005218506,0.04147568717598916,-2.8546953201293945,-0.28090319037437445
4.81775712966919,-1.7365081310272217,8.562845230102539,0.26866888999938965,-3.3288674354553223,-0.4128341972827912
5.649894714355469,-1.0086088180541992,9.671471595764162,0.4226608574390412,-3.841434955596924,-0.43321248888969427
6.808627128601074,-1.1661787033081055,10.760216712951662,0.5391782522201538,-4.281249523162843,-0.32863196730613714
10.495943069458008,0.2784340083599091,12.748600006103516,0.37088212370872503,-4.594633102416992,-0.11593637615442277
13.675081253051758,0.23949486017227173,13.85106945037842,-0.18661080300807956,-4.528162479400636,0.1780242621898651
17.41240692138672,-1.9063045978546143,13.961299896240234,-0.5339620113372803,-4.22808599472046,0.2578064203262329
25.641210556030277,-2.902096748352051,14.688835144042969,-0.6061218976974487,-3.777652502059937,0.05426378920674325
29.990839004516605,-4.0393128395080575,9.174507141113281,-0.6506587266921997,-3.3790524005889897,-0.4171023964881897
31.579891204833984,-8.529604911804201,4.118329524993897,0.516596794128418,-3.206862449645996,-1.164859175682068
34.538490295410156,-10.821228981018068,6.272246837615968,2.392669677734375,-2.848124742507935,-1.301011323928833
32.78282928466797,-5.9043593406677255,8.037174224853516,3.486781597137451,-3.017274141311646,-1.1409527063369753
42.856658935546875,0.7653271555900575,24.95369148254395,2.954675912857056,-2.100739002227783,-1.0418080091476443
24.5504150390625,2.4195356369018555,19.895545959472656,1.6173943281173708,-0.6879999041557313,-0.8565618991851807
16.92101287841797,2.3575401306152344,15.551843643188477,0.09451705962419511,-0.6146384477615356,-0.8431345820426942
12.630573272705078,-0.38705211877822876,13.411079406738281,-0.8281320333480835,-0.7273394465446473,-1.1369181871414187
9.510124206542969,-3.7912521362304688,12.550160408020021,-1.0355728864669802,-0.8649976253509521,-1.5300530195236208
7.417533874511719,-6.308481216430664,13.498208999633789,-0.6261385083198548,-0.8834545016288758,-1.8915185928344727
5.978297233581543,-6.428179740905762,15.03097152709961,0.030327564105391506,-0.6936851739883423,-1.9973047971725466
5.024361610412598,-4.293792724609375,16.110338211059574,0.39788198471069336,-0.20700754225254062,-1.9018806219100954
2.096741199493408,-3.1786124706268315,15.257954597473146,0.4147578477859497,0.4974133670330048,-1.7460734844207764
-2.8176500797271733,-3.293849468231201,11.887454032897951,0.4159688353538513,1.0576400756835938,-1.6656929254531863
-7.085463047027589,-3.259984016418457,8.571760177612305,0.4220852851867676,1.2292829751968386,-1.64015793800354
-7.8915724754333505,-2.7364983558654785,7.560606956481934,0.33366966247558594,1.2213746309280398,-1.5429631471633913
-8.396990776062013,-3.462404012680054,7.215842723846436,0.17781633138656616,1.2475374937057497,-1.3559350967407227
-7.295459270477296,-4.466748237609863,7.966531753540039,0.02931670844554901,1.4610376358032227,-1.0461496114730837
-7.4744062423706055,-5.1952862739563,7.237885475158691,0.006016135215759277,1.8137716054916384,-0.688309907913208
-9.506132125854492,-4.784820079803468,5.004744529724121,-0.05162772536277771,2.0301802158355717,-0.32665798068046575
-10.366537094116211,-3.9149842262268066,3.3805108070373535,-0.2714872062206269,2.0306596755981445,0.06482241302728654
-9.50221347808838,-3.3774843215942383,3.4352114200592045,-0.6257743835449219,1.9874811172485352,0.4865186512470246
-7.790243148803711,-3.772143840789795,4.1473388671875,-0.9379925131797792,2.1036596298217773,0.9155486226081849
-7.067852020263672,-4.2489776611328125,4.007050514221191,-1.0759781599044802,2.344015598297119,1.3093934059143066
-6.4003705978393555,-3.7428674697875977,3.6792795658111577,-1.133664608001709,2.579595804214478,1.6680140495300293
-5.340080261230469,-2.9595723152160645,3.4613907337188725,-1.219644904136658,2.794784784317017,1.9844884872436523
-3.6587736606597905,-2.262859106063843,3.3257629871368413,-1.345469117164612,3.0166664123535156,2.2867743968963627
-2.5625727176666264,-0.7286831140518188,2.3167440891265874,-1.442507028579712,3.2156493663787846,2.5910055637359624
-1.4620231389999392,1.8982623815536501,1.2504003047943115,-1.646905303001404,3.3016128540039062,2.7962033748626713
1.0641841888427734,4.0731048583984375,1.0107476711273193,-1.9868718385696413,3.3116486072540288,2.8249692916870117
4.341728210449219,4.387803077697754,0.6842394471168519,-2.248830080032349,3.330977439880371,2.6905677318573002
7.585260868072511,3.3027000427246094,0.18283650279045105,-2.1888377666473393,3.2643957138061523,2.499490737915039
11.040253639221193,2.6422858238220215,0.3389504551887512,-1.932359218597412,3.13099217414856,2.342559337615967
13.919661521911623,2.3550088405609135,0.004401125013828278,-1.6121654510498047,3.0032496452331543,2.2316892147064213
16.115032196044922,2.561773538589478,-1.1333034038543701,-1.3921105861663818,2.764652013778687,2.2065787315368652
18.75972938537598,1.7042365074157715,-2.599801301956177,-1.3391369581222536,2.343568801879883,2.2848544120788574
20.27492904663086,0.04339826852083206,-4.8348493576049805,-1.152822494506836,1.7961708307266238,2.410308361053467
18.641143798828125,0.5065408945083618,-9.191077232360842,-0.840303122997284,1.0566078424453738,2.5180230140686035
14.72136974334717,2.940047979354859,-13.94729995727539,-0.879400372505188,-0.12929429113864901,2.6412267684936523
26.553421020507812,2.7103614807128906,-17.92959785461426,-0.7347902655601503,-1.496781826019287,2.2555441856384277
60.20930480957031,26.128623962402344,11.351964950561523,4.045839786529542,-2.7286477088928223,-3.7829148769378667
60.94526672363281,14.154787063598633,38.065570831298835,0.5295124650001527,2.89220404624939,-1.5762107372283936
-2.663324594497681,-21.865516662597656,-5.31756591796875,0.48218384385108953,2.585390090942383,-0.08323796838521959
-2.1285736560821538,16.002239227294922,21.640460968017578,0.8395067453384399,2.7158725261688237,0.4215268790721894
-0.2365400791168213,-2.972957849502564,13.105350494384766,0.11062420904636383,2.4420664310455327,-0.5520440340042114
0.030771415680646896,-13.205172538757326,7.745273113250733,0.815358340740204,1.4148792028427126,-0.4183732867240906
-0.2956581711769104,5.544958114624023,15.11046886444092,0.6484174132347108,0.6717579364776611,-0.5895192027091981
2.7560870647430424,-3.5724430084228516,10.549585342407227,0.57198166847229,0.040247727185487754,-0.639550268650055
6.042326927185059,4.764969825744629,10.815696716308594,0.33467712998390203,-0.18514269590377808,-0.4172895252704621
5.806523799896241,1.3958590030670166,9.488495826721193,0.05676615238189697,-0.18060150742530823,-0.08323910087347032
5.455644607543945,-2.0115790367126465,8.716036796569826,0.06897860020399095,-0.135088711977005,-0.02235914953052998
5.418311595916749,-2.130430221557617,8.752115249633789,0.11857764422893524,-0.0538652427494526,-0.07085209339857103
5.532168388366699,-2.3969638347625737,8.852192878723146,0.17895302176475525,0.03823323175311089,-0.1593741476535797
5.293869972229004,-0.4954809546470642,9.463264465332031,0.1648414134979248,0.08635097742080688,-0.14183311164379123
4.765843391418457,0.0022697746753692627,9.724737167358398,0.07307656109333038,0.08206208795309068,-0.05556497722864151
4.421730041503906,-0.334030956029892,9.761869430541992,-0.018073443323373795,0.012919685803353788,0.013417414389550688
4.084022045135499,-0.9196544289588929,10.093994140625,-0.07214861363172533,-0.11522644758224487,0.045284774154424674
4.07074785232544,-1.1785641908645632,10.059561729431154,-0.1074335128068924,-0.26908308267593384,0.03212742134928704
4.172049045562745,-0.8132216334342958,9.977334976196289,-0.15218046307563782,-0.41833230853080755,0.03301476687192917
4.168425559997559,-0.9792083501815796,10.004981994628906,-0.19860951602458957,-0.5675147771835327,0.04150798171758652
4.178646087646484,-0.9243192076683046,9.89552116394043,-0.2137735337018967,-0.7185385227203369,0.05242409929633141
4.4993958473205575,-1.1126891374588015,9.73610019683838,-0.21681320667266846,-0.8682861328125,0.054449010640382774
3.8215456008911133,-1.1078875064849854,9.493719100952148,-0.24174246191978455,-1.0099817514419558,0.05243949592113495
4.91906499862671,-1.75960648059845,9.222249984741211,-0.22305978834629062,-1.1701560020446777,0.026199258863925934
4.644421100616456,-1.2652859687805176,9.1315393447876,-0.21867376565933228,-1.2381232976913454,-0.005561547353863716
5.010838508605957,-1.5998687744140625,8.463661193847656,-0.18663474917411804,-1.313084602355957,-0.05150179937481881
6.31081485748291,-2.110855340957642,8.567767143249513,-0.14326609671115878,-1.2585737705230713,-0.1273160129785538
6.166034698486328,-2.1553013324737553,8.267975807189943,-0.07639356702566148,-1.1589336395263672,-0.17184379696846008
6.106127738952637,-2.2237415313720703,7.86622428894043,0.056235477328300476,-1.0563298463821413,-0.20652827620506287
6.352858543395996,-1.9047601222991943,8.250224113464357,0.06728342920541765,-0.9780395627021791,-0.24377506971359253
6.239567756652832,-1.7128096818923952,8.161251068115234,0.09702724963426591,-0.9109833240509033,-0.24045599997043612
6.102272033691406,-1.5495600700378418,8.177983283996584,0.12510648369789124,-0.8746970295906068,-0.2627072632312775
6.38155460357666,-1.5118751525878906,8.09754753112793,0.14164820313453674,-0.8243370652198793,-0.25963133573532104
6.179624557495117,-1.847694516181946,7.941235065460206,0.18599170446395874,-0.7863959074020386,-0.2767075598239899
6.310678005218507,-1.3460565805435183,8.271155357360842,0.22447811067104342,-0.7659493684768677,-0.2918918430805207
6.46230411529541,-1.4437228441238406,8.155834197998047,0.2396833598613739,-0.721911132335663,-0.2920354306697846
6.233278751373292,-1.9024817943572998,8.046471595764162,0.28458547592163086,-0.7017590403556825,-0.33515632152557373
6.619464874267578,-1.6771408319473269,7.969958305358887,0.3338556587696076,-0.6775752902030946,-0.357646107673645
6.767654895782472,-1.4367913007736208,7.862438678741456,0.3490897119045258,-0.6231033802032471,-0.3894618451595307
6.556744098663331,-1.733041524887085,7.726202011108398,0.38516104221343994,-0.5790793299674989,-0.43227133154869085
6.505770206451417,-1.1580344438552859,7.871483325958253,0.427038311958313,-0.5374675393104554,-0.42163801193237305
6.3551955223083505,-0.5516196489334106,7.65132761001587,0.4151450991630554,-0.5190746784210205,-0.39871004223823553
6.371284484863281,-0.0625051036477089,7.846010208129883,0.3749601542949677,-0.5157684087753296,-0.3709768354892731
6.751491546630859,0.14255194365978244,8.094338417053224,0.32824504375457764,-0.49838301539421087,-0.33396568894386297
6.455931186676026,-0.1558729857206345,7.789858818054199,0.3213353157043457,-0.4735285937786103,-0.3038948178291321
6.321228981018066,-0.20022785663604736,8.03096103668213,0.3077536523342133,-0.4975623190402985,-0.287578284740448
6.252079486846925,-0.5364066362380981,8.320437431335451,0.29344087839126587,-0.5645799040794374,-0.27985960245132446
6.097766876220703,0.05252547562122345,8.307967185974123,0.2796699702739716,-0.6603903770446777,-0.26886940002441406
6.099544048309327,-0.18421064317226413,8.645082473754883,0.27029255032539373,-0.7719854116439819,-0.26084002852439886
6.199217319488526,-0.760167419910431,8.50908088684082,0.2986559271812439,-0.8877260684967041,-0.2757985889911652
6.434202194213867,-0.8464295864105225,8.062781333923342,0.3414342403411865,-1.0189315080642702,-0.3019635081291199
6.676514625549316,-0.709803581237793,8.225434303283693,0.36392500996589666,-1.13533616065979,-0.32021886110305786
6.465789318084718,-1.2853966951370241,8.079095840454102,0.42885360121726995,-1.2687528133392334,-0.3479877412319184
6.653395175933839,-1.1340514421463015,7.993454933166504,0.47188970446586614,-1.4495404958724978,-0.39358192682266235
6.609425067901612,-0.9392458796501161,8.096885681152344,0.5219676494598389,-1.6686915159225466,-0.4485263228416443
6.383532047271729,-0.6639328598976136,8.174779891967773,0.5695387125015259,-1.9350699186325075,-0.48395499587059027
6.129865646362305,-0.7021102309226991,8.477896690368654,0.6521374583244325,-2.312946319580078,-0.5130832791328431
5.963198184967042,-0.2330250591039658,8.328180313110352,0.7231521606445312,-2.818279266357422,-0.5327711701393129
6.229743957519531,0.4791638255119324,8.460371017456055,0.7485546469688417,-3.443267822265625,-0.5534057021141053
8.583745956420898,0.09354124963283539,8.696512222290039,0.7821129560470581,-4.113137722015382,-0.41793653368949896
7.148441314697266,1.2215853929519656,8.378355026245117,0.8006585240364076,-4.952144622802734,-0.12469091266393663
9.097071647644045,2.0594005584716797,10.981139183044435,0.6068105101585389,-5.479118824005128,0.021324291825294495
12.557962417602539,0.9294981360435487,12.2290735244751,0.3798670172691345,-5.292086124420167,0.02268906682729721
15.812894821166992,-1.2011438608169558,10.841650009155273,0.24914586544036865,-4.8129944801330575,-0.004050061572343112
19.73582267761231,0.006644308567047119,10.98005771636963,-0.00025448313681408763,-4.211114406585694,-0.01583719253540039
26.557828903198246,0.5433006286621094,11.381702423095703,-0.5892223119735718,-3.5819077491760254,0.1129380986094475
23.445560455322266,-0.9354681372642518,9.498244285583498,-1.3168227672576904,-2.810674905776978,0.26733654737472534
19.317012786865234,-1.36676561832428,5.291293144226074,-1.9349346160888672,-2.4893805980682377,0.0872451886534691
17.502498626708984,-4.914205074310304,0.9788888096809388,-1.2885048389434814,-2.620373964309693,-0.624707818031311
17.42559814453125,-6.330311298370362,-2.6780567169189453,0.1842063814401627,-3.0316588878631596,-1.331918716430664
17.484359741210938,-4.9491286277771005,-2.638339042663574,1.7748711109161377,-3.7353756427764897,-1.9384450912475586
18.603765487670902,0.3305462598800659,-1.5214277505874636,2.732681035995484,-4.6534271240234375,-2.3630895614624023
29.440771102905277,4.526304244995117,9.889110565185547,2.4677898883819585,-4.744977951049805,-2.5980226993560795
23.06009292602539,4.861849784851074,10.694861412048342,1.5344961881637575,-3.768866300582886,-2.5593857765197754
20.954660415649418,4.578478813171387,10.3229455947876,0.2708209156990051,-3.1440036296844487,-2.526515007019043
17.565309524536136,1.7260566949844363,9.360849380493164,-0.6121622920036317,-2.579587459564209,-2.6265010833740234
13.837269783020021,-0.5894381999969482,7.741052627563477,-1.0787137746810915,-2.274385452270508,-2.7111322879791264
11.255313873291016,-2.9523270130157475,6.710600376129151,-1.1259534358978271,-2.1102986335754395,-2.8042867183685307
8.866326332092287,-5.680399417877198,5.676865577697754,-0.7890795469284058,-2.0425345897674565,-2.802675247192383
6.978714466094972,-6.948949337005616,5.320510387420655,-0.1235840916633606,-2.0441806316375737,-2.683400392532349
5.618181228637695,-6.790014266967773,5.663490295410156,0.5254217982292176,-2.04597806930542,-2.4183323383331303
0.8262151479721069,-8.3233118057251,5.195765495300293,0.9768326282501221,-2.0255932807922363,-1.9897235631942751
-14.863966941833498,1.192779541015625,-11.788586616516115,0.9723903536796571,-3.670999050140381,-1.6726795434951784
26.057003021240234,-3.2792150974273686,17.003578186035156,1.030034899711609,-3.4582200050354004,-1.674802541732788
0.23284614086151123,-5.660468101501465,13.369941711425781,0.630970060825348,-1.631201982498169,-0.5028956532478334
-0.7426413893699647,-3.461534023284912,10.215291023254396,0.006131761707365513,-0.7227791547775269,0.41097685694694525
7.113476753234863,-7.2244839668273935,14.753176689147951,0.07789102941751481,0.027756694704294205,1.0650449991226199
2.1382844448089604,-4.834904670715332,12.470734596252443,0.225256085395813,1.051427483558655,1.66907274723053
1.2037007808685303,-3.050149440765381,11.707757949829102,0.29608520865440374,1.8412978649139404,2.035976648330689
2.0009133815765385,-0.09132803976535797,11.93879508972168,0.22393402457237244,2.597684383392334,2.2613251209259038
1.4285774230957031,1.7818807363510134,11.702192306518555,-0.1817571222782135,3.255430936813355,2.3878889083862305
3.1482055187225346,3.4276771545410156,12.351702690124513,-0.6759491562843324,3.971872329711914,2.443265914916992
1.9766528606414795,2.923997402191162,10.080831527709961,-1.0265616178512575,4.730273246765137,2.4341642856597905
-0.5548020601272583,3.5591959953308105,6.820850849151612,-1.1516429185867312,5.101792812347413,2.2909722328186035
-2.267091512680054,4.386502742767335,4.340192794799805,-1.2068867683410645,5.072452068328858,2.0631537437438965
-2.739818572998047,4.750358581542969,3.3413643836975098,-1.1647250652313232,4.830931186676026,1.7707720994949343
-1.4156702756881716,5.221367359161378,4.129756927490234,-1.1260371208190918,4.621228694915772,1.4081552028656006
-0.3894218504428864,4.992736339569093,5.398127079010011,-1.080341935157776,4.571881771087647,1.018122673034668
0.18668144941329956,5.440860748291016,6.591333866119386,-1.038663625717163,4.654604434967042,0.584740400314331
0.6081360578536987,5.906933307647706,7.419426918029785,-1.1177377700805664,4.822270870208741,0.158720538020134
0.9708504080772401,6.055600166320801,7.817121028900147,-1.3631720542907715,4.976347446441651,-0.20570605993270874
1.499439001083374,5.5189208984375,8.027976989746094,-1.6840204000473025,5.12168836593628,-0.4939073324203491
2.1125671863555913,4.445535182952882,8.145045280456545,-1.9734846353530886,5.249772071838379,-0.6992942690849305
3.031668186187744,3.50675106048584,8.70203495025635,-2.154922723770142,5.334170341491699,-0.8594721555709839
4.546420574188233,3.2523996829986577,9.874841690063477,-2.3150851726531987,5.424299240112305,-0.9610616564750672
6.332259178161621,3.1789870262145996,10.757118225097656,-2.516396999359131,5.572572708129883,-1.014017462730408
7.993606090545655,3.0900793075561523,11.397109031677248,-2.755815744400025,5.71674919128418,-0.9992496371269227
9.381891250610352,3.3419821262359624,11.830734252929688,-2.983636617660523,5.8071136474609375,-0.9314824342727661
10.813937187194826,4.540746688842773,12.151690483093263,-3.2331922054290776,5.833154678344727,-0.8791299462318422
12.16324234008789,6.1135268211364755,11.893961906433107,-3.5889379978179936,5.776488780975343,-0.909028172492981
13.522815704345703,7.1089138984680185,11.480872154235842,-3.9745953083038335,5.593194007873535,-1.0316525697708132
15.023966789245607,7.444701194763184,11.245765686035156,-4.236514568328858,5.311591148376465,-1.2442913055419922
16.18802070617676,8.097025871276857,10.732102394104006,-4.361541748046875,4.914843082427979,-1.4803345203399658
17.8143482208252,9.876198768615724,10.693922996520998,-4.486137390136719,4.405758857727051,-1.6347700357437136
19.361104965209964,11.720417976379396,10.506402969360352,-4.620444774627686,3.9452667236328125,-1.756092190742493
21.040977478027344,12.804019927978516,9.99724864959717,-4.59705400466919,3.57200288772583,-1.9381859302520752
22.47606468200684,14.422137260437013,9.511750221252443,-4.316470146179199,3.2863390445709233,-2.1469149589538574
22.62396240234375,16.143775939941406,7.961095333099366,-3.986069679260254,3.0734786987304688,-2.3290712833404545
21.492494583129886,15.512692451477053,4.902280807495117,-3.548444509506226,2.8330259323120117,-2.439998865127564
19.96166038513184,12.260548591613771,1.5216244459152224,-2.8064997196197514,2.4323692321777344,-2.5301027297973633
19.543758392333984,9.170481681823732,-0.7252504825592041,-1.8243550062179568,1.9173915386199951,-2.6231548786163335
18.447803497314453,0.2703191041946411,-4.267922878265382,-0.429107129573822,1.1908900737762451,-2.663357019424439
17.915903091430668,6.63665533065796,-12.169168472290039,2.338678598403931,-0.05746793746948242,-2.9345138072967534
