AccX,AccY,AccZ,GyrX,GyrY,GyrZ
6.673242751276122e-05,-1.3561604646383785e-05,0.00015520262240897867,6.588820156139263e-08,-1.4245483725972008e-07,-1.9303691090044597e-07
4.174939632415772,-0.8268153667449951,9.716146469116211,0.00073585519567132,-0.010176953859627249,-0.011541459709405899
4.170657157897949,-0.8424965143203735,9.738754272460938,0.0009752983460202813,-0.009430943988263609,-0.009029752574861051
4.174860477447511,-0.8463324308395386,9.743018150329592,0.0005970952333882451,-0.00953266490250826,-0.010317659005522728
4.169142723083496,-0.8657363653182983,9.67475986480713,0.00018727921997196972,-0.010986456647515297,-0.010147360153496267
4.165164947509766,-0.8526281714439393,9.69474983215332,0.0008567189797759056,-0.010134770534932615,-0.00841863825917244
4.137362480163574,-0.8479563593864442,9.697520256042482,2.464119461365044e-05,-0.009651641361415388,-0.009932632558047773
4.148236751556397,-0.8550920486450195,9.691819190979006,-0.0008589515928179026,-0.011288545094430448,-0.010714445263147354
4.133563041687012,-0.8475176095962524,9.696889877319336,2.824638067977503e-05,-0.01240052655339241,-0.0103678060695529
4.1517653465271005,-0.853193998336792,9.70499038696289,-0.0005646446370519699,-0.011181861162185669,-0.01172443386167288
4.146013259887695,-0.8488791584968568,9.689275741577148,0.00012799444084521386,-0.011936942115426064,-0.010130750015377998
4.165256500244141,-0.8529505729675293,9.71058750152588,-0.00011810394789790736,-0.01318238116800785,-0.01331153977662325
4.155736923217773,-0.8500648736953735,9.68752193450928,0.00023144485021475705,-0.012865827418863775,-0.010697150602936745
4.174552917480469,-0.8715670108795166,9.702546119689943,0.001764439861290157,-0.011191325262188911,-0.012464373372495176
4.173381805419922,-0.8431984186172485,9.693066596984865,0.0008121422142721714,-0.011102449148893356,-0.012124694883823395
4.1534833908081055,-0.8623046875,9.68819332122803,0.0012349345488473775,-0.009636308997869492,-0.010264567099511625
4.151639938354492,-0.8522887825965882,9.684681892395021,0.0026371160056442027,-0.011267150752246382,-0.011790720745921135
4.166380405426026,-0.841787874698639,9.725069999694826,0.0013786917552351952,-0.012229942716658117,-0.013085240498185158
4.189569473266602,-0.8363927602767944,9.727849960327148,0.0011917341034859419,-0.01278886664658785,-0.012577020563185217
4.1765198707580575,-0.8400297760963441,9.703915596008303,0.00011686364450724797,-0.013796253129839897,-0.012609825469553472
4.167757034301758,-0.8299075365066528,9.693108558654787,0.0008137992117553949,-0.01312611810863018,-0.010940921492874624
4.165347099304199,-0.8405433893203735,9.704710960388185,-0.0004905610694549979,-0.01166720874607563,-0.009134278632700445
4.178988933563233,-0.8530986309051514,9.724054336547852,0.00045647931983694434,-0.013095700182020666,-0.01017564069479704
4.169658660888672,-0.8528776168823242,9.713868141174318,0.0013658159878104925,-0.01153278071433306,-0.010129082947969437
4.163293838500977,-0.8370648622512817,9.696870803833008,0.0013759329449385405,-0.010934213176369667,-0.009268001653254034
4.136198520660401,-0.8450297117233276,9.7045373916626,-0.0003039712028112263,-0.012863844633102417,-0.011601286940276625
4.12840461730957,-0.9002853631973267,9.712902069091797,-0.0004391313705127687,-0.0180758498609066,-0.01417127437889576
4.153777122497559,-0.852962851524353,9.722574234008789,-0.0009953177068382502,-0.019405012950301174,-0.01446426659822464
4.169048309326172,-0.8359067440032959,9.702977180480959,0.00017117461538873613,-0.022103603929281235,-0.015842037275433544
4.165414810180664,-0.808597207069397,9.700831413269045,-0.0023034727200865746,-0.020874703302979473,-0.013342052698135376
4.1745667457580575,-0.8439340591430664,9.687500953674318,-0.0018635255983099344,-0.018702048808336258,-0.01123863272368908
4.194404125213624,-0.8541036248207093,9.677496910095217,-0.0006252711173146963,-0.018111569806933406,-0.01257728599011898
4.181674480438233,-0.8493093252182007,9.697988510131836,-0.0009794259676709773,-0.015554384328424932,-0.009489234536886215
4.177834987640382,-0.8474176526069642,9.68811893463135,0.0006443881429731846,-0.01417494844645262,-0.010095164179801941
4.138389587402344,-0.8748969435691835,9.691872596740724,0.000957489071879536,-0.014834502711892128,-0.010593211278319359
4.159185409545898,-0.8699933886528016,9.69887447357178,0.001303033088333905,-0.017108459025621414,-0.012806392274796964
4.155728340148926,-0.8508849143981934,9.714126586914062,0.0017716329311951997,-0.02088769339025021,-0.013466164469718933
4.197854518890382,-0.8530845046043397,9.707083702087404,0.001029209466651082,-0.021669870242476467,-0.014334313571453094
4.182278633117676,-0.8330106735229492,9.714531898498537,0.000677036528941244,-0.019646398723125458,-0.014859870076179504
4.189087390899659,-0.8480725288391113,9.6865234375,-0.00013274718367028984,-0.019133877009153366,-0.01335445884615183
4.185802936553956,-0.8538183569908143,9.696742057800295,5.022820914746263e-05,-0.017317121848464016,-0.012793371453881264
4.192625999450684,-0.8507794737815858,9.716458320617678,0.0012093584518879652,-0.014920013956725599,-0.015090156346559525
4.179286956787109,-0.8711544275283813,9.707218170166016,0.0028937172610312705,-0.014253523200750351,-0.014670105651021004
4.186335563659668,-0.8564520478248597,9.715639114379883,0.0026745817158371214,-0.012336116284132004,-0.013030483387410642
4.177066802978516,-0.8571126461029053,9.710814476013185,0.002306933980435133,-0.012157972902059555,-0.011271073482930662
4.153493881225586,-0.8782699704170228,9.68941402435303,0.0027988669462502003,-0.011665464378893377,-0.010333376005291939
4.158400058746339,-0.8487310409545898,9.715405464172365,0.003194308839738369,-0.014067209325730802,-0.014133994467556478
4.167068004608155,-0.8619239926338197,9.67632579803467,0.006187594030052424,-0.014633351936936378,-0.014424378983676435
4.181942939758301,-0.8226052522659302,9.684472084045412,0.00690704444423318,-0.01510272826999426,-0.015079755336046219
4.18543291091919,-0.8603441715240479,9.688891410827638,0.006343753542751075,-0.01133485697209835,-0.016586733981966976
4.188741683959961,-0.839426338672638,9.715241432189943,0.0044794389978051186,-0.012194097973406317,-0.01564414612948895
4.218008995056152,-0.8371431231498719,9.716555595397951,0.006549573969095946,-0.009520336985588074,-0.01204576436430216
4.191078662872315,-0.8269765377044678,9.688523292541506,0.005370271857827903,-0.007850307039916517,-0.011785207316279411
4.189373016357422,-0.8713940382003784,9.695561408996584,0.005647615063935519,-0.009304523468017578,-0.012805028818547727
4.157917499542237,-0.855749249458313,9.701436042785646,0.007579930592328311,-0.011405888944864273,-0.011275408789515495
4.180860042572022,-0.8775128722190858,9.728506088256836,0.0068817296996712685,-0.01240856107324362,-0.01409907452762127
4.185636043548585,-0.8550589084625244,9.693635940551758,0.009237635880708694,-0.012269716709852219,-0.016537019982934
4.200918197631836,-0.8341980576515199,9.684284210205078,0.007913241162896156,-0.010138769634068014,-0.015519179403781891
4.193350791931152,-0.8615078926086426,9.69774913787842,0.010471055284142494,-0.007560972589999438,-0.015319273807108404
4.196483612060547,-0.8308029174804688,9.682044982910156,0.01109742559492588,-0.004275459330528975,-0.01608285680413246
4.173691749572754,-0.8370081186294556,9.673194885253906,0.012030775658786299,-0.0024849895853549246,-0.016643822193145752
4.171348571777344,-0.8501474857330322,9.699823379516602,0.010724126361310484,-0.0021289661526679993,-0.014625293202698232
4.17468023300171,-0.8399460911750795,9.708696365356445,0.010404583066701889,-0.006810015533119441,-0.01627815328538418
4.1397199630737305,-0.8502754569053651,9.700924873352053,0.012262078002095222,-0.00727629428729415,-0.01855098083615303
4.179359436035156,-0.839167594909668,9.710102081298828,0.012035151943564415,-0.009107870981097221,-0.01808504201471806
4.1511945724487305,-0.817388653755188,9.690455436706545,0.010098829865455627,-0.009541061706840994,-0.01906917616724968
4.175003528594972,-0.8013472557067871,9.691988945007326,0.011630052700638771,-0.00904104206711054,-0.019189903512597088
4.173440456390382,-0.8333707451820375,9.703700065612795,0.0113845756277442,-0.008769126608967781,-0.01769390515983105
4.201747894287109,-0.7992766499519349,9.692990303039553,0.011997302994132042,-0.007016092538833618,-0.017648158594965938
4.211032867431641,-0.8009754419326782,9.684453964233398,0.009213001467287542,-0.006859200075268745,-0.016595238819718364
4.200467109680176,-0.8085325360298158,9.677639961242678,0.008347528986632826,-0.003916105255484581,-0.0157514326274395
4.1847805976867685,-0.8284724950790405,9.710829734802248,0.006865573115646839,-0.0037142725195735697,-0.013592738658189774
4.162605285644531,-0.8119624853134155,9.71089267730713,0.005945189855992794,-0.004743756726384163,-0.012606539763510229
4.18556022644043,-0.8143329024314881,9.701918601989748,0.0033790783490985636,-0.004255011677742004,-0.011449425481259825
4.170849323272706,-0.8142322897911073,9.706032752990724,0.001645826268941164,-0.007634254638105632,-0.01148179639130831
4.187560558319093,-0.7927167415618896,9.694087982177734,0.003165628528222442,-0.007850492373108864,-0.01084976550191641
4.180052280426026,-0.8084429502487183,9.69035530090332,0.000170596395037137,-0.00810994300991297,-0.00971401296555996
4.171166896820069,-0.8273001909255981,9.701617240905763,-0.000339839665684849,-0.007635076064616443,-0.008471762761473656
4.19960641860962,-0.8275034427642822,9.67702865600586,0.0005670034443028272,-0.004360447637736797,-0.007439944893121719
4.17218828201294,-0.826354205608368,9.667553901672365,0.0010090009309351444,-0.002010250231251121,-0.007659329101443291
4.1668806076049805,-0.8338889479637147,9.71498203277588,0.0037484422791749243,-0.0008396891062147916,-0.008327892050147057
4.174948692321777,-0.841296911239624,9.700505256652834,0.002161759184673429,-0.0011411230079829693,-0.008110969327390196
4.170014381408691,-0.8192517757415771,9.693168640136719,0.0023438269272446632,-0.001244932063855231,-0.009106553159654142
4.165966033935547,-0.8173497319221498,9.710433006286623,-0.00023999398399610075,-0.002552527468651533,-0.008229813538491728
4.158382415771484,-0.8398187160491943,9.70156002044678,-0.0007922066142782569,-0.003849618136882782,-0.008174569346010687
4.161571979522706,-0.8292216062545776,9.720145225524904,0.001593282213434577,-0.005359836388379336,-0.009765658527612686
4.167725086212159,-0.833584189414978,9.69954013824463,-0.0007665985031053424,-0.0068057174794375905,-0.009243129752576353
4.144696712493897,-0.8234591484069824,9.689607620239258,-0.0014520601835101843,-0.008771440945565702,-0.008919529616832733
4.164568424224854,-0.8326359391212464,9.69239616394043,-0.0018917107954621315,-0.0062345899641513824,-0.009216974489390852
4.151446819305421,-0.8318212032318115,9.6714563369751,-0.0012008229969069364,-0.00863802619278431,-0.010705492459237577
4.168119430541992,-0.8168376684188843,9.705603599548342,-0.0011359035270288589,-0.010798988863825798,-0.009637698531150818
4.173331260681152,-0.8119508028030396,9.711687088012695,-0.0035037067718803883,-0.01102015655487776,-0.009689129889011383
4.189199447631836,-0.812057375907898,9.70412826538086,-0.002901326166465879,-0.00888358522206545,-0.006952407769858837
4.187682628631593,-0.8269637823104858,9.70943355560303,-0.003969246987253428,-0.00794234685599804,-0.006898432504385711
4.185845851898194,-0.8374351859092714,9.72426986694336,-0.0035389715339988474,-0.008466389030218124,-0.007145063951611519
4.166894435882569,-0.8237998485565186,9.717013359069826,-0.0031940890476107597,-0.00786384101957083,-0.006163676269352436
4.161890506744386,-0.8449626564979554,9.705299377441406,-0.0031055656727403407,-0.00594319822266698,-0.006302080117166042
4.182171821594238,-0.8371247053146362,9.705376625061037,-0.0026750511024147276,-0.0037306509912014008,-0.005790420342236758
4.140769481658936,-0.8505800366401673,9.724239349365234,-0.0014134357916191222,-0.0034804968163371086,-0.006444394588470459
4.166185855865479,-0.8689248561859131,9.738359451293945,-0.0005752683500759305,-0.002600577659904957,-0.006640488747507335
4.162975311279297,-0.8131035566329956,9.69984531402588,0.0008775683236308397,-0.0031821120064705615,-0.007859734818339348
4.156148910522461,-0.8394894599914551,9.686359405517578,0.002388186752796173,-0.0036105432081967597,-0.007799520157277584
4.163651466369629,-0.8120982646942139,9.72109127044678,0.0007778925937600435,0.0004069722490385175,-0.007178956642746925
4.163537979125977,-0.8516432046890259,9.713436126708984,0.001097638043574989,-0.0012712276075035334,-0.007568176370114089
4.1773419380188,-0.848190188407898,9.706656455993654,-0.0019779354333877563,-0.0014642344322055578,-0.006258121225982905
4.145598411560059,-0.8427877426147461,9.720102310180664,0.0009394644293934107,-0.0013218383537605407,-0.00606642197817564
4.169040679931641,-0.8313720226287842,9.71935558319092,0.0016698314575478437,-0.001781592844054103,-0.006231115199625492
4.143738269805909,-0.8431597948074341,9.69083881378174,0.00016817099822219464,-0.003159468062222004,-0.007503271568566562
4.12391233444214,-0.8693530559539795,9.736706733703615,-8.997201803140342e-05,-0.0052273450419306755,-0.007611661683768035
4.160792827606202,-0.8546974658966064,9.672455787658693,0.0028945209924131636,-0.0056592924520373344,-0.009144569747149946
4.142829418182374,-0.8508994579315186,9.714648246765138,0.0044091688469052315,-0.005990991834551097,-0.011774494312703611
4.186697006225586,-0.8366137742996216,9.73690414428711,0.004634242504835129,-0.0073467553593218335,-0.011400235816836357
4.17852783203125,-0.8302481174468994,9.722809791564943,0.0039660390466451645,-0.00496971420943737,-0.00939155835658312
4.184509754180909,-0.8321486711502075,9.709478378295898,0.004582408349961043,-0.00291238771751523,-0.008566473610699179
4.180601596832276,-0.8457391262054443,9.74403476715088,0.005183008965104819,-0.001321193529292941,-0.00978098250925541
4.160679817199707,-0.8252339363098145,9.720573425292969,0.0043605612590909,0.002174578839913011,-0.006745414808392525
4.15450143814087,-0.8154265880584717,9.727946281433107,0.0035534484777599577,0.001761409570463002,-0.006132466718554497
4.135686874389648,-0.8075333833694458,9.69195556640625,0.00047691908548586076,0.000760929542593658,-0.004935553763061763
4.109964847564698,-0.8395388126373291,9.689207077026367,0.001008614548482001,0.0002149117353837937,-0.005794275552034378
4.133206844329835,-0.8514774441719056,9.72469711303711,0.0017538646934553983,-0.0010710782371461391,-0.008963865227997305
4.135918617248535,-0.8387624025344849,9.723822593688967,0.00396361481398344,-0.0028034495189785957,-0.007983029820024969
4.161029338836671,-0.791953444480896,9.726180076599123,0.003198615508154035,-0.004135427065193653,-0.007761365268379451
4.1472272872924805,-0.8095836639404297,9.740577697753906,0.0032721438910812144,-0.0032127401791512966,-0.008072298020124435
4.132301807403565,-0.8185877203941346,9.720901489257812,0.0019180384697392585,-0.0031596370972692966,-0.007609092164784671
4.100419998168945,-0.8380931615829468,9.717852592468263,-0.000656959426123649,-0.005642930511385203,-0.006924916058778763
4.127026081085206,-0.8713730573654175,9.748223304748537,-0.0013349002692848444,-0.010481872595846655,-0.010889081284403801
4.17262887954712,-0.79378479719162,9.742439270019531,-0.0015929888468235731,-0.011250481940805914,-0.009017053060233595
4.155766963958741,-0.8024876713752748,9.70657253265381,-0.0026514860801398754,-0.011760749854147436,-0.006588159129023552
4.138539791107179,-0.828226149082184,9.675560951232912,-0.005667399149388076,-0.010071436874568464,-0.00535984430462122
4.105292797088624,-0.8452670574188232,9.696539878845217,-0.0033807624131441116,-0.011098450981080534,-0.007320343516767025
4.135255813598633,-0.8846611380577089,9.705289840698242,-7.034815644146876e-05,-0.014487173408269882,-0.01028590276837349
4.128324031829835,-0.8402697443962098,9.693742752075195,0.0003507780202198774,-0.01573846861720085,-0.013416129164397718
4.134754180908203,-0.8628817200660707,9.695006370544435,-0.0002598946739453823,-0.019116783514618877,-0.015075435861945152
4.172137260437012,-0.8454190492630005,9.73384189605713,0.0007485937094315886,-0.019260829314589504,-0.013758210465312004
4.150022983551026,-0.8382082581520082,9.708486557006836,0.0007074549794197083,-0.017211424186825756,-0.014717365615069868
4.161197185516358,-0.8259300589561464,9.690767288208008,0.0006959768943488598,-0.016346247866749767,-0.014527156949043274
4.152499675750733,-0.8312786817550659,9.689104080200195,0.002397294389083982,-0.013600793667137625,-0.01486244797706604
4.119487285614015,-0.8498992323875428,9.689786911010742,0.0028257111553102736,-0.015431413426995277,-0.01684399507939816
4.113450527191163,-0.8610242605209351,9.714026451110842,0.0040788822807371625,-0.020027536898851395,-0.01889108121395111
4.140296459197999,-0.8128159046173096,9.722679138183594,0.0030658643227070574,-0.020497620105743408,-0.017878988757729534
4.144284248352051,-0.8580204844474794,9.685455322265625,0.004132431000471115,-0.02049366384744644,-0.018933637067675594
4.135414600372315,-0.8745943903923036,9.71347427368164,0.005222701467573643,-0.0205873865634203,-0.01911851391196251
4.189575672149659,-0.8397589921951294,9.701491355895998,0.00631560105830431,-0.018147172406315807,-0.020291237160563472
4.205179214477539,-0.7870635986328125,9.723381996154787,0.007846246473491194,-0.017191268503665924,-0.016485592350363735
4.144551753997804,-0.8307669162750244,9.686613082885742,0.006654385942965747,-0.013704591430723669,-0.014670908451080322
4.137855529785156,-0.915724813938141,9.669167518615724,0.010679877363145353,-0.010510005056858063,-0.01786705665290356
4.114010810852051,-0.8934436440467836,9.701105117797852,0.014286217279732229,-0.012789452448487282,-0.021267153322696686
4.126821041107179,-0.8602508902549745,9.717385292053224,0.01801852695643902,-0.013815371319651604,-0.028397263959050182
4.162684917449952,-0.8511542677879335,9.720112800598146,0.018518857657909393,-0.015367873013019562,-0.025975523516535762
4.171380996704102,-0.7425072193145752,9.73052501678467,0.01663423702120781,-0.016184629872441295,-0.023381665349006653
4.1531996726989755,-0.7985643148422241,9.703109741210938,0.013160312548279762,-0.014573306776583196,-0.023370349779725078
4.183683395385742,-0.846725583076477,9.692137718200685,0.016629973426461223,-0.014314685016870499,-0.02312886901199818
4.178043842315675,-0.7595095038414003,9.692157745361328,0.012562097050249578,-0.010514480061829092,-0.021196771413087845
4.183398246765137,-0.764666259288788,9.72214984893799,0.00975053384900093,-0.010032716207206251,-0.018710240721702576
4.17509651184082,-0.7855792045593262,9.701596260070803,0.010947918519377708,-0.006588520947843791,-0.016106350347399715
4.181986331939698,-0.8166598677635194,9.707755088806154,0.009408122859895231,-0.006068253889679909,-0.015239472500979902
4.149013519287109,-0.8276473879814149,9.68636989593506,0.010512404143810272,-0.0032425532117486,-0.014610736630856993
4.140913486480714,-0.8050980567932129,9.707856178283693,0.010856729000806808,-0.002592605305835605,-0.014907272532582283
4.186522483825684,-0.7814556360244751,9.738269805908203,0.007262833416461945,-0.003677115542814136,-0.014932780526578428
4.173501491546632,-0.733151137828827,9.726081848144531,0.003705501090735197,-0.0044676302932202825,-0.009937036782503128
4.1965651512146005,-0.7745418548583984,9.709596633911133,-0.002879610750824213,-0.007070397958159447,-0.0072457422502338895
4.185399532318116,-0.787027418613434,9.718530654907227,-0.0008637036080472172,-0.00311940535902977,-0.006399966310709716
4.147442340850831,-0.82899010181427,9.715590476989748,-0.0008587819174863399,-7.173143967520446e-05,-0.004026568494737148
4.140576839447022,-0.8486974835395814,9.768150329589844,-0.0007541984668932856,-0.0026061986573040485,-0.00276377028785646
4.166877746582031,-0.8070582151412964,9.712857246398928,0.001955340150743723,-0.0027010897174477577,-0.007009970489889384
4.159669876098633,-0.821989893913269,9.685869216918945,0.0009075402049347758,-0.0026467305142432456,-0.003728245384991169
4.207882881164551,-0.8080113530158998,9.701983451843263,0.000603034277446568,0.002417148789390922,-0.004534967709332705
4.211699008941651,-0.8158658146858216,9.654919624328615,0.006812489591538906,0.009838595055043699,-0.0030226558446884155
4.145261764526367,-0.85050767660141,9.697402954101562,0.011233391240239143,0.015501465648412704,-0.0031922410707920794
4.170001029968262,-0.8388513326644897,9.705665588378906,0.01133895292878151,0.016854668036103252,-0.006227714009582996
4.122452735900879,-0.8683589696884155,9.709428787231445,0.013853146694600584,0.014330940321087837,-0.008510733023285866
4.164246082305909,-0.7826853394508363,9.717501640319826,0.01459071133285761,0.012006010860204697,-0.008818785659968855
4.17613172531128,-0.7612689137458802,9.699989318847656,0.013669375330209732,0.014341631904244423,-0.005510808434337378
4.17470407485962,-0.7943187952041626,9.708951950073242,0.014642777852714063,0.018628805875778198,-0.004607081878930331
4.204668521881104,-0.7650866508483887,9.715229034423828,0.01642165333032608,0.023639837279915813,-0.004640962462872268
4.187176704406738,-0.7258604168891908,9.720545768737795,0.016850380226969722,0.03411218523979187,-0.00033819655072875326
4.083637237548828,-0.7672172784805298,9.723880767822266,0.013926793821156027,0.03541256859898568,-0.00014000030932947993
4.128808975219727,-0.8202758431434632,9.70552730560303,0.010766851715743543,0.03809177130460739,0.002496167784556747
4.133655548095703,-0.7315855026245117,9.749685287475586,0.009802352637052536,0.03982030227780343,0.004967581946402789
4.147800445556641,-0.747618556022644,9.757965087890625,0.008271848782896996,0.04189031198620797,0.006150535307824612
4.140617370605469,-0.711356520652771,9.749553680419922,0.002872757613658905,0.04157061129808426,0.009486666880548002
4.226415634155273,-0.7730774879455566,9.65724277496338,0.0016520501812919976,0.05099368095397949,0.0183646883815527
4.210729122161866,-0.8240143656730653,9.63652229309082,0.008918457664549352,0.06902623176574707,0.018975235521793365
4.233006477355957,-0.7994601726531982,9.644236564636232,0.018439091742038727,0.08884967118501665,0.019976411014795303
4.201888084411621,-0.6727787256240845,9.678181648254396,0.019623830914497375,0.10888253152370453,0.02773099206387997
4.037790298461914,-0.6406421065330506,9.739811897277834,0.009111080318689346,0.11989670246839525,0.038695625960826874
4.066608905792237,-0.7652485370635986,9.775769233703615,-0.0032293531112372875,0.11337297409772874,0.045039225369691856
4.005741596221925,-0.7987935543060303,9.761096954345703,-0.0018895462853834035,0.11205127835273743,0.045744474977254874
3.9842476844787598,-0.7521315813064575,9.805574417114258,-0.0051805730909109116,0.10582998394966125,0.04883194342255593
4.158369064331055,-0.832949161529541,9.73606586456299,-0.0038645965978503227,0.10963340848684312,0.052317917346954346
3.972378015518189,-0.9584935903549194,9.741229057312013,0.004991385154426098,0.11834032088518144,0.0542648769915104
3.92928409576416,-0.882711946964264,9.779822349548342,0.009024476632475853,0.10821952670812608,0.044378042221069336
4.118729591369629,-0.830351710319519,9.817506790161133,0.007412007544189692,0.10575487464666368,0.04515087604522705
3.977418184280396,-0.7990845441818237,9.857198715209961,0.003045789664611221,0.10015004873275757,0.05470095202326775
3.9737288951873784,-0.7635087966918945,9.944560050964357,-0.008286792784929276,0.08784098178148271,0.06059481576085091
3.872617721557617,-0.7521747350692749,9.985422134399414,-0.02074733935296536,0.06707830727100372,0.06625062972307207
3.907900810241699,-0.7367523908615112,10.011292457580568,-0.03491094335913659,0.042852837592363364,0.07146449387073517
3.8186678886413574,-0.7211595177650453,10.017818450927734,-0.052690744400024414,0.018992511555552486,0.07615116238594055
3.827803134918213,-0.8101257085800171,9.973283767700195,-0.06296730041503906,-0.0028081324417144064,0.07138551026582719
3.8110342025756836,-0.7858333587646484,9.891218185424805,-0.0636972561478615,-0.019274912774562836,0.061179999262094505
3.759737491607666,-0.9181631803512573,9.83403205871582,-0.04724079743027688,-0.01933241076767445,0.052096039056777954
3.752111196517945,-1.054312586784363,9.809331893920898,-0.047271203249692924,-0.04147859662771225,0.023315200582146648
3.789376735687256,-1.0907801389694216,9.645058631896974,-0.03206898272037506,-0.04336918517947198,0.0010191892506554725
3.5417482852935795,-1.1445659399032595,9.793556213378906,-0.02563361264765263,-0.06398609280586243,-0.026828924193978313
3.9843621253967285,-0.8679347038269043,9.81850337982178,-0.026053415611386303,-0.08251541107892992,-0.04404398798942566
3.9990181922912598,-0.7878414988517762,9.783457756042482,-0.025865146890282634,-0.08103594183921814,-0.047135856002569206
4.0024151802063,-0.8253105878829956,9.792843818664553,-0.03390301764011383,-0.08367674797773363,-0.04143043980002404
4.0533108711242685,-0.9344943761825562,9.716054916381836,-0.04031101614236832,-0.0803574100136757,-0.03553307056427002
4.016068458557129,-0.8536359071731567,9.743064880371094,-0.0429396778345108,-0.071773961186409,-0.03080963529646397
3.9557552337646484,-0.7489333748817445,9.79006576538086,-0.05337577313184738,-0.07195960730314256,-0.019234422594308853
3.87733006477356,-0.7878237962722778,9.846180915832521,-0.07352286577224731,-0.08684890717267992,-0.006942171137779952
3.947258472442627,-0.8818302154541016,9.806475639343263,-0.08524926751852037,-0.09902827441692352,-0.0025308083277195696
3.9451196193695073,-0.9292230010032655,9.68045425415039,-0.08619226515293121,-0.1068858802318573,-0.0008099772385321559
3.9794342517852788,-0.9918798804283143,9.754488945007326,-0.08675960451364519,-0.11087104678153992,-0.007035685237497092
3.969257354736328,-0.9829255938529969,9.73097896575928,-0.0892220363020897,-0.11575855314731598,-0.011153258383274078
3.8965559005737305,-0.780750036239624,9.819905281066896,-0.10691151767969133,-0.13602566719055176,-0.011627462692558767
3.9624917507171635,-0.7417926192283631,9.80891513824463,-0.1258382499217987,-0.16024371981620789,-0.004665112588554622
4.090847969055176,-0.9661635756492616,9.70768928527832,-0.13458329439163208,-0.16494689881801608,-0.0001345369964838028
3.8027489185333256,-1.1544523239135742,9.606538772583008,-0.12667115032672885,-0.16927412152290344,-0.013683442026376724
3.888548612594605,-1.1131618022918701,9.783350944519045,-0.12316254526376726,-0.19252437353134155,-0.03104500658810139
4.02857255935669,-1.0188672542572021,9.818247795104982,-0.11590171605348588,-0.21114884316921237,-0.03543467819690704
3.8529899120330815,-1.082686185836792,9.654317855834961,-0.09175474196672441,-0.225140780210495,-0.05239169672131539
3.6857242584228516,-1.3274364471435547,9.600218772888185,-0.04287151247262955,-0.2513289153575898,-0.10202606767416002
3.648743152618408,-1.4161092042922976,9.64117431640625,0.008864056318998337,-0.2889144718647004,-0.1634766161441803
4.15006160736084,-1.0637812614440918,9.845368385314943,0.02990052662789822,-0.33962503075599676,-0.19060420989990234
4.21578073501587,-0.6177492141723633,9.828370094299318,0.02067217230796814,-0.37155517935752874,-0.17598044872283936
3.9744391441345215,-0.5210573673248291,9.983274459838867,0.0058879838325083264,-0.4216696619987488,-0.16348159313201904
4.028288841247559,-0.6647861003875732,9.954988479614258,-0.0023948515299707655,-0.4910224676132202,-0.152485266327858
3.6396260261535645,-0.8657267093658447,9.996255874633789,0.006187498569488525,-0.5808831453323364,-0.1781125217676163
3.768914222717285,-0.8423926234245301,10.155113220214844,-0.018781704828143123,-0.7024104595184326,-0.21552456915378573
3.382399082183838,-0.6653282642364502,10.241926193237305,-0.06602563709020616,-0.8878259658813477,-0.21096602082252502
2.8037281036376953,-1.155335307121277,10.329277992248537,-0.04750101640820504,-1.1419451236724854,-0.21192218363285067
3.2847371101379395,-0.7003042697906494,10.377505302429201,-0.04667041078209878,-1.4515525102615359,-0.20012035965919495
3.2601780891418457,-0.622807502746582,10.43474006652832,-0.08126940578222276,-1.7259461879730225,-0.17474465072155002
3.409436941146851,-0.7011505961418153,10.480537414550781,-0.10390616953372955,-2.0064609050750737,-0.1870592385530472
3.5917317867279057,-0.7310435771942139,10.605209350585938,-0.11209737509489061,-2.289738655090332,-0.22194780409336093
3.975740194320679,-0.6316931247711182,10.583353996276857,-0.13854928314685824,-2.5671389102935795,-0.24390003085136414
4.073281288146973,-0.6330702900886537,10.153889656066896,-0.18168736994266513,-2.814697742462158,-0.2687487900257111
4.656775951385499,-1.111774563789368,10.827390670776367,-0.15176334977149963,-3.045714139938355,-0.31623163819313055
3.5293636322021484,-0.9020991325378418,9.963420867919922,-0.0689787194132805,-3.3306045532226562,-0.3310172855854035
2.970650911331177,-1.8683141469955447,9.324880599975586,0.24871461093425754,-3.8624131679534917,-0.44705837965011597
4.1679043769836435,-2.7023000717163086,9.633197784423828,0.6430591344833374,-4.621716976165772,-0.5872865915298462
5.765945911407472,-3.0537793636322026,10.81556034088135,0.8480006456375122,-5.200056552886964,-0.640215814113617
8.712732315063477,-3.76151704788208,12.727253913879396,0.8821461200714111,-5.661570072174073,-0.5993125438690186
12.734092712402344,-4.306607246398926,15.591174125671388,0.9024862647056581,-5.847771167755128,-0.5604909658432007
16.944810867309574,-5.212259292602539,16.507059097290043,1.1084198951721191,-5.784160137176515,-0.6643589735031128
25.44402313232422,-4.275746822357179,17.28836441040039,1.6206059455871582,-5.347101688385011,-1.0248569250106814
33.04958724975587,-5.378209114074707,13.93996334075928,1.9918794631958008,-4.769020557403565,-1.3967790603637695
30.318998336791996,-3.782810688018799,5.851650238037109,2.457264661788941,-4.568210124969483,-1.6588823795318604
39.31645202636719,-4.554228782653809,10.426734924316406,3.203485250473023,-4.1572160720825195,-1.7916415929794314
33.30157089233399,0.06552436947822571,6.163233757019043,3.791896343231201,-3.2637140750885014,-1.6497992277145388
47.552894592285156,7.82791566848755,20.004173278808594,2.439207077026367,-2.666953802108765,-1.5267164707183838
33.63067626953125,3.3500614166259766,20.991352081298828,0.9723764657974243,-0.6952465772628784,-1.4511023759841921
21.350765228271484,3.913848876953125,13.5540771484375,-0.8730283975601196,-0.21482948958873752,-1.0232973098754883
15.865718841552734,-0.7932682633399964,10.536713600158693,-2.0662462711334233,-0.3492833971977234,-0.8107428550720215
10.459700584411623,-6.652640819549561,7.743734359741211,-2.0328893661499023,-0.5893072485923768,-0.7784916162490845
7.588544368743897,-9.962207794189453,7.181771755218507,-0.9215837121009828,-0.9237658381462098,-0.9620122909545898
6.505277156829835,-7.961933612823487,8.812843322753906,0.4005403518676758,-1.030781149864197,-1.079836130142212
4.131394863128663,-3.0520577430725098,10.64320468902588,1.0366618633270264,-0.8678191304206849,-1.016308903694153
1.8463866710662842,0.7673176527023315,11.453860282897951,0.7837566733360292,-0.5245072841644287,-0.8669127821922303
-1.0993529558181765,1.0609090328216553,10.533755302429201,0.18056446313858032,-0.07123683393001556,-0.7760755419731141
-3.0782551765441895,-0.6548042297363281,9.569589614868164,-0.2375319004058838,0.37578502297401434,-0.7626760005950928
-3.825860023498535,-2.674266576766968,8.945093154907227,-0.2795350849628449,0.8634569644927979,-0.7194035053253174
-5.6289567947387695,-3.621735811233521,7.617897033691406,0.04311693459749222,1.3738425970077517,-0.64593505859375
-6.999978065490723,-3.3638973236083984,6.637347698211671,0.35519498586654663,1.7495384216308594,-0.5289235711097718
-7.093514919281007,-2.602872848510742,6.544858932495117,0.3911677300930024,2.0592026710510254,-0.32006499171257025
-6.776952266693116,-2.1713631153106694,6.3397583961486825,0.18307222425937655,2.459444046020508,-0.041344448924064636
-8.461502075195312,-2.753905057907105,3.8654394149780273,-0.025237845256924633,2.837984085083008,0.22413383424282077
-10.022192955017092,-2.6703948974609375,1.1824204921722412,-0.17820829153060913,2.9558024406433105,0.45143881440162664
-10.639852523803711,-2.0853304862976074,-0.8326978087425233,-0.3432577848434448,2.877926111221314,0.6568455696105957
-9.804927825927734,-1.434009075164795,-0.9252894520759584,-0.5788571834564209,2.706734895706177,0.8446195721626283
-7.78692388534546,-1.4998695850372314,0.7436342835426332,-0.8441381454467773,2.67278265953064,1.0536067485809326
-5.493621349334718,-2.155076026916504,2.3524322509765625,-0.9573057889938354,2.8989105224609375,1.2628408670425417
-4.712862014770508,-1.878981113433838,1.9474815130233767,-0.8944069147109985,3.232181310653687,1.4653942584991455
-4.975030422210694,-0.2744212448596955,0.054666142910718925,-0.8704518675804139,3.410827159881592,1.6723215579986572
-4.449575901031495,1.7496119737625124,-0.8570783138275146,-1.0125982761383057,3.3685252666473393,1.8472952842712402
-1.9611234664916992,2.756467342376709,0.5101279616355897,-1.2329061031341553,3.315274238586426,1.9263550043106081
0.6943508982658387,2.8404064178466797,1.8668389320373535,-1.2768944501876833,3.4103384017944336,1.871451020240784
2.574154138565064,3.747964143753052,2.182822942733765,-1.1585450172424316,3.5512745380401616,1.7038353681564333
4.579680442810059,5.37059211730957,2.061448574066162,-1.0839236974716189,3.625436782836914,1.4513870477676394
7.358767032623292,5.235124111175538,2.2102127075195312,-1.0204275846481325,3.638574361801148,1.0902321338653564
10.01718044281006,4.237550735473633,2.509805679321289,-0.7836259603500366,3.5931112766265874,0.6902675628662109
12.461419105529787,3.9722993373870854,2.4780886173248295,-0.504031777381897,3.4942834377288823,0.3588113486766816
13.870833396911623,3.455945253372193,1.9834023714065554,-0.30860453844070435,3.2940161228179936,0.14840900897979736
15.474696159362795,2.3351633548736577,1.98439359664917,-0.1512805670499802,2.985467672348023,0.0869799256324768
16.915494918823246,1.9363160133361816,2.4255661964416504,-0.015402816236019135,2.637402772903443,0.17240050435066223
17.3475341796875,1.461266279220581,2.142486095428467,0.06349273025989532,2.286995172500611,0.33811685442924505
17.03173828125,1.2196228504180908,0.9891765117645264,0.16442281007766724,1.8655937910079958,0.5610694885253906
15.86866569519043,2.102607250213623,-0.7095722556114198,0.20544619858264926,1.3223422765731814,0.8200474977493286
13.762797355651857,2.971970558166504,-2.8845450878143315,0.16055031120777133,0.6545648574829102,1.0266667604446413
10.301658630371094,3.085981845855713,-7.028818607330323,0.16942699253559115,-0.18826764822006226,1.1140305995941162
6.398715496063233,2.1211795806884766,-10.20876693725586,0.3799526393413544,-1.3899638652801514,1.0903149843215945
69.06552886962892,25.20305442810059,34.283470153808594,-2.520815849304199,-4.25430965423584,1.4094122648239138
27.50235366821289,9.988108634948732,16.333612442016605,-1.3046612739562988,4.2503933906555185,-0.04001067578792572
14.036923408508303,-3.7888755798339844,16.7587890625,-1.7411209344863894,1.1576111316680908,0.987484335899353
-4.360960483551026,-6.367471218109132,7.847098350524902,-0.4589111506938935,2.686461925506592,0.8641030192375184
-4.342325210571289,-7.032495021820069,15.002464294433594,-0.06433799862861633,1.0537421703338623,0.07612835615873338
-1.606194615364075,-10.970199584960938,11.35850238800049,0.3137436509132385,0.35972741246223455,-0.6458146572113037
1.6888414621353152,-1.701303243637085,12.124217987060547,0.4549497961997986,-0.13123844563961032,-0.7367586493492128
6.735708713531495,4.329622268676758,9.960822105407717,0.32712587714195257,-0.3772042393684387,-0.724349081516266
8.037940979003906,3.868937730789185,8.690613746643068,0.1255752891302109,-0.2535726726055146,-0.31020689010620117
7.491067886352539,1.2446538209915163,8.638710975646974,-0.11367336660623552,0.04772292077541351,0.05739498510956765
5.775317668914796,-1.553718090057373,8.64351558685303,-0.1422169804573059,0.2730072438716889,0.14469636976718905
4.110222816467285,-3.2618267536163335,9.1284875869751,-0.05437243729829788,0.3237212002277375,0.05220860242843628
3.738785743713379,-1.6993805170059206,9.787913322448732,0.03246314078569412,0.22245284914970398,-0.04845859482884408
4.1295270919799805,0.7723832726478578,10.300704002380373,-0.0373675860464573,0.11987550556659698,-0.02553915418684483
4.146509647369386,0.9576530456542969,10.423141479492188,-0.1789269745349884,-0.00034560592030175036,0.08601861447095872
4.105305194854737,-0.4722217917442322,10.08312511444092,-0.2592736184597016,-0.11435537040233612,0.16072829067707065
4.106961250305176,-1.3743584156036377,9.765223503112795,-0.2372613698244095,-0.23754148185253146,0.13182833790779114
4.269044876098633,-1.3825347423553467,9.814970016479492,-0.2185884863138199,-0.332438588142395,0.08178339153528215
4.572569370269776,-0.7930429577827455,9.752307891845703,-0.2386695146560669,-0.39226421713829046,0.05837377533316613
4.218461513519288,-0.42142051458358765,9.604638099670412,-0.29557615518569946,-0.45383849740028387,0.04559478163719177
4.702940464019776,-0.5390277504920961,9.800073623657227,-0.3494488894939423,-0.5198799967765809,0.0501861497759819
4.299211502075195,-0.5143758058547974,9.78774929046631,-0.40429368615150457,-0.607201337814331,0.06440878659486772
4.474390029907227,-0.8993574976921083,10.171377182006836,-0.45817169547081,-0.722650408744812,0.10121044516563416
4.048184394836426,-0.3483688235282898,9.967962265014648,-0.5273616313934326,-0.860425889492035,0.16227659583091736
4.46495008468628,-1.261967658996582,9.49031162261963,-0.5517750978469849,-0.9946000576019287,0.1725299507379532
4.822299003601074,-1.2276875972747803,9.43412494659424,-0.5568661093711854,-1.101623296737671,0.17279829084873202
4.581116676330566,-1.5377584695816042,9.027824401855469,-0.5465753078460693,-1.1751848459243777,0.16004405915737155
4.8130292892456055,-1.0724091529846191,9.142897605895998,-0.5720881819725038,-1.2400407791137695,0.1509521156549454
5.077873229980469,-1.4842294454574587,8.767279624938967,-0.5509411692619325,-1.3303495645523074,0.13221809267997742
5.208307743072511,-1.5644829273223877,8.93693733215332,-0.4870120584964753,-1.340524435043335,0.1207069978117943
5.536806106567383,-1.654936194419861,8.457374572753906,-0.4394694268703461,-1.3677568435668945,0.09902876615524292
5.794774055480957,-2.3917829990386967,8.429624557495117,-0.3502042889595032,-1.3001726865768435,0.0863267332315445
5.843928337097168,-2.1175978183746342,8.222575187683107,-0.2609876692295075,-1.2907055616378786,0.0456976518034935
5.796770572662354,-2.6138644218444824,7.743520259857179,-0.2051829695701599,-1.2268065214157107,-0.016841046512126923
6.2320523262023935,-2.4088048934936523,7.936637878417969,-0.16344350576400757,-1.1716209650039675,-0.062471766024827964
6.442544937133789,-2.68058443069458,7.618417263031007,-0.09276317059993744,-1.0655895471572878,-0.10923075675964355
6.776677131652832,-2.5824270248413086,7.67270565032959,-0.05314074456691742,-0.9642609357833862,-0.1539186388254166
6.565145015716554,-2.516316652297974,7.664407253265382,0.013948344625532629,-0.8561602830886841,-0.19450171291828158
6.4783902168273935,-1.9780637025833132,7.839500427246094,0.04961789771914483,-0.7873724699020386,-0.21882447600364685
6.439415454864503,-2.172639608383179,7.767787456512452,0.07255682349205017,-0.7394841313362123,-0.24005863070487976
6.747016429901124,-1.956292510032654,7.600641727447511,0.0943136438727379,-0.6974622607231141,-0.26326411962509155
6.769722938537598,-1.7778893709182741,7.527097702026367,0.10518550872802734,-0.6354860663414003,-0.28951138257980347
6.420639991760254,-1.9219231605529785,7.684247970581055,0.12413638830184937,-0.5923481583595277,-0.32379153370857244
6.326411247253418,-1.5707755088806152,7.923165321350098,0.1614745557308197,-0.5845779776573182,-0.3452356457710266
6.478678226470948,-1.5820558071136475,7.848480224609375,0.20181787014007568,-0.6031973361968994,-0.36699321866035467
6.3346219062805185,-1.6216527223587038,7.819725036621094,0.24579404294490817,-0.6331592798233032,-0.4075447618961335
6.090503215789796,-2.0452728271484375,7.824164390563965,0.2955919206142426,-0.687506914138794,-0.4886038303375244
6.069599151611328,-1.808490514755249,8.115716934204102,0.36449217796325684,-0.7725852131843568,-0.5489343404769897
6.049715518951417,-1.8972206115722656,7.747833728790284,0.41907215118408203,-0.8518733978271484,-0.626252591609955
6.350135803222656,-1.1109397411346436,7.825814723968507,0.40768909454345703,-0.9596992135047914,-0.6703227758407593
6.204607963562012,-0.4314817786216736,8.290467262268068,0.368669480085373,-1.063687801361084,-0.6516234874725342
6.216943264007569,-0.4600362777709961,8.390429496765138,0.3547711968421936,-1.178768038749695,-0.5831444263458252
7.289044380187988,0.5696374773979188,7.719480514526367,0.3322103917598725,-1.2758051156997683,-0.5068044662475586
7.68088436126709,0.7344490885734559,7.708457469940186,0.2786757051944733,-1.3073039054870605,-0.3806960880756379
7.167041778564453,-0.3091104030609131,7.703007698059082,0.25651848316192627,-1.3764413595199587,-0.2770873606204987
6.810637474060059,-1.1404013633728027,7.767085552215577,0.3085950314998627,-1.5349760055541992,-0.23997591435909274
6.914786815643311,-0.7913619875907899,7.923461437225343,0.3380202054977417,-1.776411533355713,-0.2154396623373032
6.985241889953613,-1.8553833961486816,7.876996994018555,0.41562777757644653,-2.0996072292327885,-0.204197496175766
6.809685230255128,-1.9678920507431032,7.468178272247315,0.47157955169677734,-2.488899946212769,-0.20813690125942233
6.66815185546875,-1.1100898981094363,8.324138641357422,0.5618093609809877,-2.9221739768981934,-0.2793174088001252
7.150197982788086,-2.0631315708160405,7.47299861907959,0.5757036805152894,-3.5060031414031987,-0.26907604932785034
7.396955013275147,-0.9563213586807251,7.714861392974854,0.5693566799163818,-4.126433849334718,-0.26646506786346436
7.743749141693116,-0.4427812695503235,8.233055114746094,0.5093563795089722,-4.651332378387452,-0.2706595361232758
8.543407440185547,0.8679475784301758,9.586402893066406,0.3598850071430207,-4.740818023681641,-0.3536503612995148
11.416830062866211,0.4293997287750244,10.00623893737793,0.2639463543891907,-4.363177299499512,-0.41814020276069647
13.844391822814943,0.23196730017662048,10.444780349731445,0.17428550124168396,-4.406394481658936,-0.16804233193397522
16.55591583251953,-0.37063854932785034,9.991365432739258,0.2025699466466904,-4.103781700134277,0.036460988223552704
22.500108718872074,-1.9459984302520752,9.781838417053224,0.30826941132545477,-3.419434070587158,0.021438309922814373
24.521312713623047,-5.090075016021729,9.310163497924805,0.03292498737573624,-2.780538558959961,-0.016751943156123165
23.482986450195312,-1.3760337829589844,7.4647841453552255,-0.9045653343200684,-2.0696885585784917,0.04451204836368561
18.185007095336918,-1.0077816247940066,0.4511336088180542,-1.7279332876205447,-1.8347880840301514,-0.405938982963562
21.612489700317386,-2.6047468185424805,-0.1815672516822815,-1.634443759918213,-1.9875944852828982,-1.10556960105896
20.579425811767578,-1.6403656005859375,-4.670919418334961,-1.0154998302459717,-2.218893527984619,-1.8406292200088503
19.284313201904297,-1.7638102769851687,-5.97525691986084,-0.1874279230833054,-3.030696392059326,-2.801730871200562
22.26676750183106,0.7404676079750062,-2.544174432754517,0.6300949454307557,-4.402669906616211,-3.672637462615967
31.30123519897461,2.7976717948913574,10.375312805175781,0.7862479090690614,-4.457849502563477,-4.138336658477784
24.33056640625,2.4048948287963867,9.742774963378906,0.2981693148612976,-3.8658061027526855,-4.109544277191163
23.245058059692386,2.062604188919068,11.07430648803711,-0.1878955513238907,-3.455601215362549,-4.127601146697999
19.291524887084964,0.06907647848129272,10.949569702148438,-0.4812425374984741,-2.9562680721282963,-4.07743787765503
15.304196357727053,-1.9896063804626465,10.723188400268555,-0.6120065450668335,-2.6093356609344487,-3.9644641876220703
12.530929565429688,-5.05585527420044,11.006407737731935,-0.2561291456222534,-2.34622859954834,-3.8127844333648686
10.702062606811523,-7.109748840332031,11.44297981262207,0.5619714856147767,-2.0657572746276855,-3.5692098140716557
9.127359390258789,-6.514786243438722,11.850775718688967,1.484938621520996,-1.6716209650039675,-3.3078749179840092
6.977324962615968,-4.232226848602296,11.605560302734375,2.0166831016540527,-1.1335681676864626,-3.0152831077575684
4.331998825073242,-2.3676528930664062,11.384201049804688,2.0103893280029297,-0.5930365324020386,-2.6706616878509526
2.7443084716796875,-0.9374510049819946,11.84676265716553,1.6543337106704714,-0.0928814560174942,-2.2999598979949956
1.5583983659744265,-0.8180696964263916,11.581100463867188,1.0381417274475098,0.4100522696971894,-1.949477553367615
-0.27588266134262085,-1.727170467376709,10.70706558227539,0.46750372648239136,0.8919144272804261,-1.6742887496948242
-1.6912412643432617,-2.7445788383483887,10.067371368408203,0.0704854801297188,1.2864390611648562,-1.4131722450256348
-2.03190279006958,-3.7782871723175053,10.061956405639648,-0.19427555799484253,1.661387085914612,-1.1166419982910156
-2.705429315567017,-5.210819721221925,9.249351501464844,-0.3038788735866547,2.063868522644043,-0.7645599842071533
-3.9251892566680913,-5.501210689544679,8.229244232177734,-0.3022199869155884,2.3624007701873784,-0.2809755206108093
-4.630785942077637,-5.5149335861206055,7.610732078552246,-0.3074685633182526,2.5428254604339604,0.29395562410354614
-4.327776908874512,-4.687175273895265,7.669630527496339,-0.33321443200111395,2.6889963150024414,0.8572621941566468
-3.4440650939941406,-3.384936094284058,8.39365863800049,-0.4237742125988007,2.9076132774353027,1.3175904750823975
-2.380829334259033,-1.3632595539093018,9.434494972229006,-0.6627368927001953,3.2542121410369877,1.6447324752807617
-2.0318703651428223,0.28206104040145874,9.541543960571289,-1.0305149555206299,3.701408863067627,1.8359061479568484
-2.350505828857422,1.0924935340881348,8.701769828796388,-1.373375415802002,4.127558231353761,1.8984253406524658
-2.643017292022705,1.4290398359298708,7.57649850845337,-1.6001046895980837,4.41032600402832,1.830543041229248
-2.3658370971679688,2.3402264118194585,6.994599342346191,-1.7470929622650146,4.579233646392823,1.6601190567016602
-1.7057141065597536,3.3714494705200195,7.009521484375,-1.9315444231033327,4.694087505340577,1.4203753471374512
-0.8754919767379761,4.041452884674073,7.368019104003906,-2.1779029369354252,4.805416107177734,1.1349748373031618
-0.12011261284351349,4.6153564453125,7.979453086853027,-2.469445943832398,4.906170845031738,0.8258872032165527
1.3248239755630495,5.081216335296632,9.016100883483888,-2.785718202590943,5.038784027099609,0.5102197527885438
2.425262928009033,5.394559860229492,9.70892333984375,-3.1135165691375737,5.230324268341065,0.1948283612728119
3.3667306900024414,5.695889472961426,10.19154167175293,-3.423712491989136,5.4031171798706055,-0.09865700453519823
4.249263763427734,6.358109951019288,10.345080375671388,-3.7533931732177734,5.5318055152893075,-0.36821231245994573
5.058650970458984,7.807333946228027,9.774977684020998,-4.125900745391847,5.558174133300781,-0.6319780945777894
5.9344987869262695,9.128943443298342,8.717432975769045,-4.594008922576905,5.415801525115968,-0.9144935607910156
6.899546146392823,9.319303512573242,8.326949119567873,-4.967679977416992,5.094277858734132,-1.268357515335083
8.170403480529787,9.645037651062013,9.224660873413086,-5.135574817657472,4.6689300537109375,-1.6906650066375732
11.15835189819336,11.054606437683107,11.94268321990967,-5.289759159088136,4.287627220153809,-2.1602756977081303
16.516542434692386,11.775991439819336,15.320725440979006,-5.594952583312988,4.21060848236084,-2.5934755802154545
20.304571151733402,11.475789070129396,16.18871879577637,-5.84935188293457,4.437213420867921,-2.8545031547546387
20.004064559936527,11.62496852874756,13.032027244567873,-6.061510562896729,4.505878448486328,-2.8744444847106934
19.269432067871094,12.092887878417969,10.04226303100586,-6.194515228271484,4.161696910858155,-2.7088589668273926
18.504817962646484,13.06185817718506,7.974139690399171,-6.12116813659668,3.5863513946533203,-2.521361589431763
18.024166107177734,16.644309997558594,7.12117862701416,-5.912566661834718,2.865975856781006,-2.441944837570191
16.483074188232422,21.201583862304688,4.58671760559082,-5.727015018463136,2.096996784210205,-2.5090737342834473
16.473180770874027,23.045499801635746,4.195037841796875,-5.229516506195069,1.3259806632995605,-2.695992231369019
18.035638809204105,20.893905639648438,6.085022449493409,-4.097454547882081,0.9595107436180116,-2.935606002807617
18.370967864990234,16.940032958984375,5.971591949462891,-2.497368812561035,0.9133705496788026,-3.0613222122192383
17.812393188476562,14.66839122772217,3.949435949325562,-1.126819372177124,0.9199700951576234,-2.9327156543731694
16.28628158569336,12.336427688598633,0.6877310276031494,-0.3962695002555847,0.8377147316932679,-2.649777412414551
14.094682693481445,8.877047538757326,-1.8116379976272585,-0.10856625437736511,0.48166245222091675,-2.2982666492462163
9.61506462097168,-1.380219101905823,-0.11649962514638902,1.8208799362182617,-0.5909613966941835,-2.0859580039978027
6.835747718811035,-2.9384410381317143,14.831130027770998,1.2993000745773318,-0.36895275115966797,-0.8452252149581909
17.809312820434574,-26.5349292755127,21.86359405517578,1.4832061529159548,-0.5742619037628174,-0.27246388792991644
9.92985248565674,-10.359054565429688,15.464421272277834,1.6664955615997314,-0.4117441773414612,-0.4000996053218842
5.940454483032227,13.207720756530763,13.839808464050295,1.3228955268859863,-0.48110720515251165,-0.24837440252304077
4.238224506378175,18.214838027954105,14.28886604309082,0.42853417992591863,-0.2570362687110901,-0.2454901933670044
2.5688073635101323,3.001894950866699,10.599542617797852,0.013064952567219734,-0.18998982012271884,-0.3168513774871826
3.904636859893799,-6.318132877349854,8.508595466613771,0.15833051502704623,-0.3213090598583222,-0.34813982248306274
4.736632823944093,0.06740891933441162,9.54564094543457,0.20412462949752808,-0.3319757282733918,-0.2510431408882141
4.339827060699464,3.9193367958068848,10.359156608581545,0.07151680439710618,-0.14482536911964417,-0.2024034857749939
4.229506969451905,-0.6249174475669862,9.70516586303711,0.008175305090844633,-0.06039822846651077,-0.19365458190441134
5.27699089050293,-3.4797444343566895,10.364099502563477,0.10544489324092865,-0.0640169233083725,-0.13283105194568637
4.8158020973205575,0.16069914400577548,10.742899894714357,0.08862565457820892,-0.008250874467194082,-0.009184090420603752
4.271805286407472,0.04949773848056793,10.44444465637207,0.002508994890376926,0.001168874092400074,-0.009735656902194023
4.292448043823242,-0.8487784266471864,10.25215816497803,-0.028721027076244354,-0.01254656817764044,0.018414024263620377
3.9543459415435795,-0.7018578648567201,10.17319107055664,-0.06446866691112518,-0.029362600296735764,0.04051898047327996
3.4232282638549805,-1.274764657020569,9.831639289855959,-0.10811617225408555,-0.0671233981847763,0.040967483073472984
3.910240650177002,-1.224682092666626,9.860523223876953,-0.0982848033308983,-0.11203126609325409,0.023422114551067352
4.098553180694581,-0.9187415838241577,9.86110019683838,-0.0823085606098175,-0.11080532521009447,0.020461563020944595
3.8279793262481694,-1.1134378910064697,9.690388679504396,-0.07055468112230302,-0.11338720470666887,0.019851453602313995
3.9621984958648686,-1.0874087810516357,9.875297546386719,-0.06535113602876665,-0.14078718423843384,0.008104634471237661
4.198146343231202,-1.062997817993164,9.957618713378906,-0.06713858246803284,-0.1388702839612961,0.005209158640354873
4.192618370056152,-0.9343284368515015,9.909513473510742,-0.07628468424081804,-0.12976598739624023,0.0054049133323133
4.194815158843995,-0.8463295698165894,9.808525085449219,-0.08616508543491364,-0.1119038313627243,0.011333242990076544
4.193713188171387,-1.008914113044739,9.763572692871094,-0.0914946272969246,-0.10198506712913513,0.01395519729703665
4.094645977020265,-0.8970658779144287,9.717879295349123,-0.09817253053188324,-0.0887424722313881,0.016693180426955227
3.8324253559112553,-1.0020519495010378,9.62515163421631,-0.10683602094650269,-0.10300620645284654,0.014430100098252296
4.186676025390625,-1.0020221471786501,9.700845718383789,-0.11669411510229112,-0.1097228303551674,0.010319748893380165
4.109771728515625,-1.0697947740554812,9.595602035522461,-0.1168273910880089,-0.09314572811126709,0.015025862492620947
3.7799499034881596,-1.4003235101699831,9.501801490783693,-0.10624408721923828,-0.10872886329889299,-0.0013036691816523673
4.16933298110962,-1.6030758619308474,9.461383819580078,-0.07357997447252275,-0.1134127676486969,-0.030567472800612453
4.102744579315186,-1.5212392807006836,9.357307434082031,-0.03129566833376885,-0.0889904871582985,-0.05031763017177582
3.898484706878662,-1.3979887962341309,9.532959938049318,-0.007529803086072207,-0.094936802983284,-0.0739700570702553
4.252362251281738,-1.5406687259674072,9.571125030517578,0.020430186763405803,-0.09113812446594238,-0.09749612212181091
4.235361576080323,-1.2580443620681765,9.494784355163576,0.04757858067750931,-0.06422898918390275,-0.10756395757198334
4.086235046386719,-0.9865885972976685,9.721056938171388,0.044771056622266776,-0.05883723124861718,-0.1007142961025238
4.2523865699768075,-0.7819504737854004,9.92991352081299,0.014549938961863518,-0.0691390708088875,-0.08103115856647491
4.180061340332031,-1.0106189250946045,9.763943672180178,-0.00931965559720993,-0.05661701038479806,-0.056984994560480125
3.816250085830689,-1.1619997024536133,9.6601037979126,-0.02060176990926266,-0.08247333765029907,-0.06094328686594964
3.727445125579834,-0.989087700843811,9.814982414245607,-0.03582967072725296,-0.13288098573684692,-0.08618570119142534
3.814119338989258,-1.286863684654236,9.757300376892092,-0.04739221930503845,-0.16764874756336215,-0.10498817265033722
3.4954967498779297,-1.7315576076507568,9.694137573242188,-0.034013837575912476,-0.20608322322368625,-0.14612530171871188
3.444112062454224,-1.493077039718628,9.786556243896484,0.0077241938561201096,-0.26655820012092596,-0.1932946741580963
3.859834432601929,-1.491368651390076,9.739322662353516,0.008534571155905724,-0.3365793824195862,-0.27206858992576605
3.9744827747344975,-1.055380702018738,9.939722061157227,0.010677199810743332,-0.3993510305881501,-0.30702507495880127
4.226928234100343,-0.8245338201522827,9.951303482055664,-0.02146478556096554,-0.4796064496040344,-0.32310187816619873
4.0988264083862305,-0.47627532482147217,10.054702758789062,-0.07572969049215318,-0.5721787214279175,-0.32395955920219427
4.1748504638671875,-0.1292300820350647,10.333086013793945,-0.15412813425064087,-0.6897813081741333,-0.31723460555076605
3.9504518508911133,-0.11476302891969682,10.296663284301758,-0.2602131068706513,-0.8563474416732788,-0.2923713624477387
3.4673404693603516,-0.3163685202598572,10.311249732971193,-0.3843979239463806,-1.0650168657302859,-0.3065595924854279
2.594195127487183,-0.7842662334442139,10.436664581298828,-0.4063416123390198,-1.3651286363601687,-0.2923277020454407
2.411559343338013,-0.5462418794631958,10.51473617553711,-0.42491042613983154,-1.8032009601593018,-0.23600901663303378
2.4687256813049316,-0.5187851786613465,10.818840980529787,-0.5096489191055298,-2.2295954227447514,-0.24468889832496643
2.2667393684387207,-0.2947436571121216,11.192753791809084,-0.5412443280220033,-2.704639434814453,-0.26217949390411377
2.349578380584717,-0.2518421113491059,11.504556655883789,-0.5712950229644775,-3.2147262096405034,-0.30381351709365845
1.565735459327698,-1.3155577182769775,11.409528732299805,-0.5454481840133667,-3.8360700607299805,-0.4318592846393586
1.255855441093445,-1.8284046649932861,12.152780532836914,-0.37102934718132025,-4.642483711242676,-0.594567358493805
-0.07133210450410844,-2.717446088790894,12.20914936065674,-0.09661290794610979,-5.769968032836914,-0.8497675657272339
0.34525108337402344,-5.255443572998047,12.793702125549318,0.29625171422958374,-7.426832675933839,-1.105508804321289
3.622515439987183,-3.019559383392334,17.568782806396484,0.4000858366489411,-9.062405586242678,-1.318408727645874
11.222118377685547,-3.237181901931763,20.601531982421875,-0.022396225482225418,-10.025015830993654,-1.6740295886993408
22.047662734985355,-4.194343090057374,24.558118820190433,-1.1177147626876833,-10.407211303710938,-1.5835566520690918
32.78005599975587,-4.892041683197022,28.13664817810059,-2.3128221035003667,-9.770172119140625,-1.6080442667007449
34.68553543090821,-2.14957857131958,31.70114517211914,-3.547576427459717,-8.690847396850586,-1.7770196199417116
28.068824768066406,-6.505155086517335,21.975505828857422,-4.6535797119140625,-7.015765666961671,-1.7351791858673096
22.154163360595703,-5.454726696014405,24.05587387084961,-5.718539714813233,-4.818767547607422,-1.1192009449005127
16.261844635009766,-9.951510429382326,21.401111602783203,-5.572614669799805,-2.038676977157593,-1.3976099491119385
34.233673095703125,-14.22996234893799,30.55306625366211,-3.489907026290894,0.36030337214469915,-2.163583755493164
12.885090827941896,-12.443282127380373,22.343097686767578,-1.5487403869628906,3.030542612075806,-1.5256178379058838
-0.003207370638847351,-4.348803520202637,8.257204055786133,-0.6603258252143861,3.567042350769043,-1.2857866287231445
-1.866941213607788,2.8892681598663335,4.078392505645753,-0.437619298696518,3.3691320419311523,-1.3926688432693484
-3.1306030750274663,6.427769660949707,2.316597223281861,-1.211848258972168,2.9026803970336914,-1.323895573616028
-3.8966269493103027,5.0491838455200195,1.729403018951416,-1.9956043958663943,2.6158223152160645,-1.237981677055359
-2.953607797622681,1.6865485906600954,3.2757301330566406,-2.1247048377990723,2.5963938236236577,-1.2149578332901003
-1.6134755611419678,-0.3934734761714936,5.165030956268311,-1.759446620941162,2.8108284473419194,-1.1130077838897705
-1.6817359924316406,0.06758831441402435,5.5083513259887695,-1.2265838384628298,3.2054355144500737,-0.9210512638092041
-2.2336242198944096,1.7722769975662234,5.275060653686523,-1.0043100118637087,3.6043949127197266,-0.6734567284584047
-2.329603672027588,2.582663059234619,4.725085735321046,-1.1225173473358154,3.910743951797486,-0.38431778550148016
-1.5419576168060303,2.0058236122131348,4.349736690521241,-1.2630162239074707,4.2160096168518075,-0.0942554920911789
-1.856093168258667,1.3409385681152344,2.9202830791473393,-1.2113250494003298,4.4586501121521005,0.1637486219406128
-2.398062229156494,2.0552449226379395,1.5716285705566406,-1.1000473499298096,4.545701503753663,0.3743070363998413
-2.028406381607056,3.00957465171814,0.8049269318580629,-1.0956536531448366,4.520702362060547,0.51999831199646
-1.1151307821273806,3.3383450508117676,0.9722625613212587,-1.1678575277328493,4.467890739440918,0.5793798565864564
0.5756032466888428,3.347588062286377,2.004101276397705,-1.2287325859069824,4.499106407165527,0.5522819161415101
2.184746742248535,3.4911537170410156,2.434412956237793,-1.2476445436477663,4.674221992492676,0.47393169999122625
3.085664033889771,3.551648378372193,1.567125201225281,-1.2479180097579958,4.836029052734375,0.3769683241844177
4.084155559539796,3.6505908966064453,0.35393840074539185,-1.2422627210617068,4.838296890258789,0.32324531674385076
5.632405757904054,3.670539379119873,-0.41218101978302,-1.2200735807418825,4.700899600982667,0.322371244430542
7.577416896820069,3.571652412414551,-0.8593518137931825,-1.165766954421997,4.452806949615479,0.36914485692977905
9.988635063171388,2.821958541870117,-1.2066168785095215,-1.004995584487915,4.073565006256104,0.43639293313026434
12.777063369750977,1.9509292840957644,-1.209871768951416,-0.6836168766021729,3.5864722728729252,0.5240758657455444
15.055868148803711,2.4507420063018803,-0.952485740184784,-0.29225882887840277,2.9912726879119877,0.6138031482696533
17.900697708129886,3.50968074798584,-0.630804181098938,-0.02854888699948788,2.3808717727661133,0.6708843111991883
20.609655380249027,3.575510740280152,-0.4358521103858948,0.16450323164463046,1.7959401607513428,0.6577565670013428
21.829019546508793,3.7608168125152592,-0.851630449295044,0.38291656970977783,1.2283147573471072,0.5969318151473999
21.711561203002933,4.588430881500245,-1.735746145248413,0.4883845746517182,0.643742859363556,0.5211894512176514
19.77318382263184,4.8727569580078125,-3.63086485862732,0.4511450827121735,-0.02687762677669525,0.43232169747352606
18.95675849914551,4.1782288551330575,-3.1339328289031987,0.3895825743675232,-0.8219570517539979,0.4000647366046906
18.386581420898438,2.669808626174927,-2.1135921478271484,0.4086903929710388,-1.3957935571670534,0.48634421825408936
74.28968811035156,1.1965527534484863,28.968082427978516,-0.2141874581575394,-3.1039364337921147,0.5684090852737427
27.69674110412598,41.45121383666993,9.71613883972168,-0.051388386636972434,1.686760425567627,-0.3526920378208161
0.2551582753658295,-3.764512538909912,10.400823593139648,-0.3141213059425354,1.2600570917129519,-0.2684768736362458
-0.39328053593635565,-2.7934200763702397,10.049952507019045,-0.08600315451622009,0.9981206059455873,0.16517740488052368
-5.858145713806152,-0.6581367850303651,10.402532577514648,-0.18564079701900485,-0.1393450051546097,0.0388384610414505
1.8734548091888428,-0.31384336948394775,12.276664733886719,-0.1935481280088425,-0.1920614242553711,-0.9475236535072328
5.976035118103027,-16.193626403808594,9.368021965026857,0.3917423784732819,-0.4126307964324951,-0.852692723274231
4.578900337219238,3.3448047637939453,10.667808532714844,0.564897894859314,-0.4464637935161591,-0.8496330976486206
10.038084030151367,0.9902117252349854,8.457565307617188,0.6706385016441346,0.09207192808389665,-0.9357539415359497
8.121013641357422,2.8279318809509277,9.046836853027344,0.46462392807006836,0.4251395165920258,-0.48207080364227295
5.75456190109253,2.5870203971862793,9.745704650878906,0.35145801305770874,0.6066305041313172,-0.2365548759698868
3.7995798587799077,-1.1588321924209597,10.366416931152344,0.252385675907135,0.5441072583198548,-0.16063693165779114
3.464264392852783,-1.636223316192627,10.486901283264162,0.2594025135040283,0.37971144914627075,-0.1684110909700394
3.856591939926148,-0.050970256328582764,10.167343139648438,0.24415312707424167,0.21606439352035522,-0.1912210434675217
4.635838508605957,1.224231481552124,10.066470146179201,0.1727217137813568,0.11355296522378923,-0.11693889647722246
4.367592334747315,0.6071578860282899,9.916934967041016,0.06319783627986908,0.0861160382628441,-0.015483459457755089
4.189135074615479,-0.6394549608230591,9.89980220794678,0.026594839990139008,0.05032331496477127,0.019987003877758983
4.165117740631104,-1.074383616447449,9.937302589416506,0.05260555818676949,-0.011266184970736504,0.008028733544051649
4.174672603607179,-0.7830944657325746,9.833951950073242,0.05971196666359902,-0.060352444648742676,-0.01681755855679512
4.667632102966309,-0.7390646934509277,9.626932144165039,0.08013602346181871,-0.07122926414012909,-0.03057847730815411
4.692516326904297,-0.4903936982154846,9.583402633666992,0.10099875181913377,-0.04367675259709359,-0.024294797331094742
4.344047546386719,-0.24707017838954928,9.797779083251953,0.08688323944807054,-0.045241475105285645,-0.009749670512974264
4.245075225830078,-0.37874990701675415,9.839218139648438,0.06317177414894104,-0.07749957591295244,0.0032677978742867713
4.369261264801026,-0.4324818253517151,9.814830780029297,0.043734125792980194,-0.11061110347509386,0.01382535882294178
4.4559292793273935,-0.41130605340003973,9.694204330444336,0.025438183918595317,-0.1300650089979172,0.03490738570690155
4.529095649719238,-0.3916089236736298,9.578976631164553,0.022392561659216884,-0.13331806659698486,0.0369057022035122
4.372976779937745,-0.24537768959999084,9.601929664611818,0.00025477935560047626,-0.13665045797824862,0.0420682616531849
4.278812885284425,-0.09917638450860979,9.698257446289062,-0.02404797449707985,-0.16010101139545443,0.053333647549152374
4.202322006225586,-0.5088060498237611,9.503714561462404,-0.019345285370945934,-0.19719649851322177,0.04005291312932968
4.156076431274414,-0.34120839834213257,9.790739059448242,-0.025906790047883987,-0.2349754720926285,0.034102968871593475
4.159698963165284,-0.6200804710388184,9.602533340454102,-0.03269395604729653,-0.2796003818511963,0.025492317974567413
4.222261428833008,-0.6437222957611084,9.371764183044435,-0.015382055193185806,-0.3231156170368195,-0.0013557560741901398
4.169328212738038,-0.7496296763420106,9.296947479248047,-0.006009286735206843,-0.35318329930305487,-0.018039163202047348
4.126607418060304,-0.5615488886833192,9.39973545074463,0.00736879650503397,-0.4175920188426972,-0.029180854558944702
3.9659042358398438,-0.4837237596511841,9.449076652526857,0.02504487708210945,-0.4920066893100739,-0.06471697241067888
3.8158726692199707,-1.0979135036468506,9.58387088775635,0.024056416004896164,-0.556793510913849,-0.12092939019203186
3.9612154960632324,-1.0797048807144167,9.455080032348633,0.10028276592493059,-0.6654128432273866,-0.1910020112991333
3.920447826385498,-0.6600747108459473,9.677499771118164,0.11164992302656175,-0.7891849279403687,-0.2408915609121323
4.164651393890382,-0.7932392358779907,9.701848983764648,0.1292838752269745,-0.9027519822120668,-0.27367463707923895
4.632244110107422,0.4923982620239258,9.643974304199219,0.12795053422451022,-1.0258235931396484,-0.3054428398609162
4.635965824127198,-0.4264411628246308,9.931806564331055,0.0018267575651407242,-1.081529140472412,-0.3213935792446137
4.029730796813965,0.1657259464263916,9.748540878295898,0.12086192518472673,-1.2754113674163818,-0.22960813343524936
4.818971633911133,-0.06836216151714325,10.235283851623537,0.07964580506086351,-1.417865514755249,-0.22832202911376953
4.321989059448242,-0.20262625813484192,9.797517776489258,0.08287324011325836,-1.626704812049866,-0.2082999050617218
4.739657402038574,-0.03159935772418976,10.274996757507326,0.06918444484472276,-1.8081890344619753,-0.19836196303367615
4.556269645690918,-0.7384880185127259,10.004432678222656,0.11201886832714081,-1.9987696409225466,-0.23069101572036743
5.082147598266602,-0.9199024438858032,9.445234298706055,0.14650830626487732,-2.1962449550628667,-0.2884292304515839
5.885588645935059,-0.6716157793998719,9.55035400390625,0.11061158776283264,-2.360453844070435,-0.33019256591796875
5.534821033477784,-0.5440123081207275,9.080955505371094,0.08210112899541856,-2.495404481887818,-0.3795570135116577
5.828552722930909,-0.6257005929946899,8.947128295898438,0.08432243019342424,-2.611110210418701,-0.4208711683750153
5.542819976806641,-0.5709941983222963,8.354969024658203,0.2058624029159546,-2.83088231086731,-0.4763270318508149
5.756821155548097,-0.14441768825054171,8.057491302490234,0.433448851108551,-3.1591722965240483,-0.552137017250061
6.405891418457031,0.4562286138534546,8.393635749816896,0.5899416208267212,-3.477193832397461,-0.549788534641266
7.356042385101319,0.4148067831993103,9.509517669677734,0.6702898740768433,-3.8048336505889897,-0.43944746255874634
9.190511703491211,1.3024482727050781,12.466153144836428,0.6435747742652894,-4.086492538452148,-0.18246203660964966
12.853702545166016,2.430359363555908,14.295884132385256,0.143375501036644,-4.18156623840332,0.15634201467037204
15.703346252441406,1.4305052757263184,12.87204360961914,-0.6250717639923096,-4.21364688873291,0.48498776555061346
21.66482734680176,1.6871521472930908,14.587517738342287,-1.3907763957977295,-4.169403553009034,0.5858464241027832
28.924818038940433,-0.9824467897415161,12.53287124633789,-1.856013536453247,-3.6142432689666752,0.32440385222435003
28.672246932983402,-10.288654327392578,4.021520137786866,-0.5414255857467651,-3.398393869400025,-0.35850512981414795
32.99542617797852,-9.466021537780763,5.637441635131836,1.4129557609558105,-3.555111885070801,-0.569738805294037
31.194589614868168,-5.684008598327637,6.582322597503663,2.6973783969879155,-3.4875354766845703,-0.48431906104087835
41.63375473022462,1.4647396802902224,17.956111907958984,2.3507459163665776,-3.4903035163879395,-0.31460076570510864
30.651012420654297,3.19356632232666,20.22313499450684,1.40036940574646,-2.1680328845977788,-0.3655911684036255
22.19991683959961,3.948798656463623,15.909679412841797,0.061110563576221466,-1.8053381443023682,-0.46939596533775335
18.76922416687012,3.3241579532623295,15.256458282470703,-1.0880292654037478,-1.760995626449585,-0.8327409625053407
16.87874984741211,-0.49637627601623535,15.772252082824709,-1.8696266412734988,-1.545926570892334,-1.2567486763000488
14.280436515808107,-5.682842254638672,16.963609695434574,-1.766545295715332,-1.0539234876632693,-1.71323561668396
9.734171867370607,-9.401053428649904,17.055572509765625,-0.8958945870399476,-0.43368241190910345,-1.9613432884216309
6.1200528144836435,-8.383959770202638,17.013132095336918,0.14834609627723694,0.18430043756961825,-1.9462964534759521
3.466795682907105,-5.157250881195069,17.939847946166996,0.5358095169067383,0.9257367253303529,-1.7513021230697634
0.30196103453636175,-3.5579800605773926,16.327869415283203,0.3786826431751252,1.8789191246032715,-1.4442716836929324
-5.575213909149171,-3.885091781616211,10.957234382629396,0.23072253167629245,2.6778090000152592,-1.2094955444335938
-10.143587112426758,-4.1736345291137695,5.478628158569336,0.25437700748443604,2.8523933887481694,-1.0738134384155273
-12.538012504577638,-3.0882530212402344,1.8430891036987305,0.2681211829185486,2.601535558700562,-0.943216383457184
-13.418573379516602,-2.5892863273620605,0.3991478681564331,0.1902423053979874,2.1876258850097656,-0.814789116382599
-12.999697685241701,-2.5369398593902592,1.1519557237625124,-0.03796042129397393,1.8221856355667116,-0.6252985000610352
-11.398185729980469,-3.117237806320191,3.5510699748992924,-0.301826536655426,1.717872738838196,-0.391776442527771
-9.941304206848146,-3.7887749671936035,4.744836807250977,-0.4851773977279663,2.011600255966187,-0.12760527431964877
-10.386487007141115,-3.8604578971862793,3.571921586990357,-0.5619325041770936,2.365067481994629,0.1526472717523575
-10.556109428405763,-2.9131567478179936,1.7409610748291016,-0.6806895732879639,2.522385597229004,0.4643231928348542
-9.706769943237305,-2.083314895629883,0.7884883284568788,-0.8830249905586244,2.5712618827819824,0.7827716469764711
-8.184128761291506,-1.8216170072555544,0.8365982174873353,-1.101410746574402,2.612452983856201,1.099674940109253
-6.294776916503906,-1.706822156906128,1.097668170928955,-1.2292829751968386,2.733417510986328,1.4170337915420534
-4.433411121368409,-0.5404365658760072,1.148451328277588,-1.3664143085479736,2.9118990898132324,1.7585247755050661
-2.6372056007385254,0.36017394065856934,0.5893200039863588,-1.5523370504379275,3.067389965057373,2.0858156681060795
0.353055089712143,0.6714763641357422,0.7504048347473145,-1.6895253658294678,3.1275708675384526,2.342737436294556
4.604211807250977,0.919808328151703,1.0724706649780273,-1.792407512664795,3.1955049037933354,2.522367000579834
7.858730316162109,0.46073418855667114,0.5522360205650331,-1.703517198562622,3.2097115516662598,2.618022680282593
10.562299728393555,1.1102768182754519,0.09290879219770433,-1.4826449155807497,3.0808138847351074,2.651288747787476
13.923168182373047,2.38849949836731,0.248343825340271,-1.3247060775756836,2.8995907306671147,2.590621709823609
16.956033706665043,2.3151099681854252,-0.06977543234825134,-1.1085286140441895,2.745801687240601,2.378448009490967
18.424224853515625,2.231088161468506,-0.8070950508117676,-0.7609019875526429,2.5500795841217045,2.0474672317504883
18.69260025024414,2.4585573673248295,-1.706860423088074,-0.3593020439147949,2.285709619522095,1.6398327350616455
17.617349624633793,3.561221837997437,-3.644517421722412,-0.1265283674001694,1.9259343147277832,1.2835586071014404
15.013064384460451,4.523271083831788,-6.431120395660401,-0.2380705922842026,1.3294658660888672,1.0414606332778933
12.400228500366211,4.3473877906799325,-7.859877109527589,-0.6904613971710205,0.49567729234695435,0.9988266825675965
13.547246932983398,0.9013800621032715,-7.416594982147218,-1.1432604789733887,-0.2772031128406525,1.1338214874267578
77.97279357910156,13.759036064147951,14.457400321960451,1.2046990394592285,-1.2546035051345827,-2.091687917709351
41.106422424316406,4.26910161972046,17.661800384521484,0.9078554511070253,3.000553607940674,-2.0691978931427006
-0.021886933594942093,-15.331830978393555,0.22761210799217224,1.1450891494750977,2.763306140899658,-0.3273331820964814
-3.5086553096771245,15.090886116027834,21.288831710815433,0.5339021086692811,2.362894058227539,0.30052670836448675
-3.4196786880493164,4.574930191040039,15.564369201660156,0.22374905645847323,1.730182409286499,-0.919100284576416
3.5396323204040527,-11.620773315429688,9.823596954345703,0.5319408178329468,1.2134801149368288,-1.0044567584991455
2.106666088104248,2.436217069625855,13.329818725585938,0.44609153270721436,0.28920114040374756,-0.3748153746128083
1.586970567703247,-2.3103256225585938,10.550801277160646,0.30990579724311834,-0.0755169540643692,-0.5227375626564027
6.064772605895996,-1.5572409629821777,10.017796516418459,0.3808353245258332,-0.28301817178726196,-0.4809757471084595
7.083371162414551,0.5773830413818359,9.09808349609375,0.3367186188697815,-0.16776694357395175,-0.39681971073150635
7.326859474182129,-0.04384508728981018,8.533828735351562,0.3039976954460144,0.024542640894651413,-0.305053859949112
6.282767295837402,-1.4157705307006836,8.52201557159424,0.34423300623893743,0.2532675862312317,-0.28647068142890936
5.523859024047852,0.0016004592180252075,9.043878555297852,0.3143438696861267,0.38830563426017767,-0.2513214051723481
4.61378288269043,0.8527420163154603,9.702212333679201,0.19726169109344482,0.40750631690025335,-0.13719046115875244
4.0060181617736825,0.658865213394165,10.130330085754396,0.06343168765306474,0.3003554046154023,-0.007339349016547203
3.6571364402770996,-0.17576786875724792,10.200695037841797,-0.010017193853855133,0.12636975944042209,0.05641402304172516
3.841566562652588,-0.5899696350097656,10.222989082336428,-0.04922141134738922,-0.06282804161310197,0.07514501363039018
4.099409103393555,-0.7788467407226562,9.99324131011963,-0.07426488399505615,-0.23137484490871432,0.07206472754478455
3.9376778602600098,-0.43477773666381836,10.120044708251953,-0.07874736189842224,-0.39939308166503906,0.06732352823019029
4.185203075408936,-0.6077012419700624,9.963656425476076,-0.09603427350521088,-0.5455204844474794,0.06863395869731903
4.4916839599609375,-0.2649504542350769,9.705557823181154,-0.13256412744522095,-0.6512987017631532,0.05734215304255486
4.713072776794434,-0.005954951047897339,9.76667594909668,-0.18285383284091952,-0.7236250638961792,0.0898258462548256
4.411787509918214,-0.7297741174697876,9.534007072448732,-0.20528510212898254,-0.8037586212158203,0.09586993604898454
5.1107754707336435,-0.848076343536377,9.346219062805178,-0.19991011917591098,-0.8544130325317383,0.10078715533018114
5.181470394134522,-1.0284805297851562,9.026703834533693,-0.15353293716907504,-0.8934676647186279,0.07320640981197357
5.436701774597168,-1.1501780748367312,9.133949279785156,-0.15688398480415344,-0.8958304524421693,0.06379289925098419
5.368570327758789,-0.3915885090827942,9.343142509460451,-0.18873295187950134,-0.9295921325683594,0.09320480376482011
4.86854124069214,-0.42112040519714355,9.257636070251467,-0.2368443161249161,-0.9796320199966431,0.11217338591814043
4.807102203369141,-0.6299225687980653,9.379523277282717,-0.29447481036186224,-1.0754988193511963,0.10724331438541412
5.087990760803223,-2.0703594684600835,9.223217964172365,-0.2956623733043671,-1.1497647762298584,0.024275371804833416
4.765682220458984,-2.577567338943482,8.960023880004883,-0.11655855178833008,-1.2145981788635254,-0.061482656747102744
5.114975929260254,-1.6103181838989258,8.87350368499756,-0.06542813032865526,-1.316596269607544,-0.14556799829006198
5.135751724243164,-2.3742218017578125,8.389977455139162,-0.005772444885224105,-1.378474235534668,-0.24477246403694153
5.155179500579835,-2.4434638023376465,8.486547470092773,0.12495646625757219,-1.450232982635498,-0.36632576584815985
6.020453929901124,-1.7483398914337158,7.917492866516113,0.21616037189960483,-1.4742642641067507,-0.4535127282142639
6.653542995452882,-0.9181856513023378,7.325397968292237,0.23978041112422946,-1.4476280212402344,-0.46255299448966986
6.425354957580566,-0.1304523199796677,7.766033649444581,0.2196818441152573,-1.436690330505371,-0.417779803276062
6.50467348098755,-0.11386083811521532,7.849028587341309,0.2128955274820328,-1.3929674625396729,-0.3807382285594941
5.873674392700195,-0.9382153153419496,7.841028690338136,0.23538993299007419,-1.409213423728943,-0.36651408672332764
6.523258686065675,-0.9831537008285522,7.815060615539551,0.2717779874801636,-1.4849230051040652,-0.39385825395584106
6.740779399871827,-0.8996531963348389,7.644891262054444,0.2913307547569275,-1.525424122810364,-0.42240330576896673
6.086954593658448,-1.3116973638534548,7.672733783721925,0.33460345864295965,-1.5879950523376465,-0.48224607110023504
6.6522417068481445,-0.7367586493492128,7.7269487380981445,0.3549947738647461,-1.713456630706787,-0.5168753266334535
6.424643993377686,-0.6380513310432435,8.270670890808107,0.4068752825260163,-1.8781497478485107,-0.5338146090507508
6.913863182067871,-0.008370921015739441,7.783118724822999,0.44769725203514105,-2.063361644744873,-0.5190956592559814
7.588641643524171,-0.0028099119663238525,7.524233818054199,0.42867422103881836,-2.2235343456268315,-0.4599912762641907
7.307981967926026,0.5599960088729858,7.873325347900391,0.4083482027053833,-2.4256553649902344,-0.36629423499107366
7.788470268249512,-0.020370066165924072,7.835844993591309,0.3838289678096772,-2.644470691680908,-0.28576883673667913
7.734932899475098,0.6095515489578247,7.873222827911378,0.3822683393955231,-2.860250473022461,-0.2227095365524292
8.705328941345217,1.2799750566482546,8.319601058959961,0.3300712406635285,-3.0852222442626953,-0.03867239877581597
9.805295944213867,3.303581714630127,9.204988479614258,0.07166881114244462,-3.25904393196106,0.3963148593902588
12.032079696655273,6.441584587097168,10.443050384521484,-0.7519780397415161,-3.3743684291839604,1.077014684677124
13.542410850524904,4.2122511863708505,12.577093124389648,-1.412190079689026,-3.070366382598877,1.4505228996276855
14.921135902404787,0.9181640148162842,13.848708152770998,-1.6745828390121462,-2.9491443634033203,1.6981967687606814
15.205667495727539,-2.4847013950347905,11.866893768310547,-1.5660932064056396,-2.9260592460632324,1.4258302450180056
15.105890274047852,-6.650335311889648,7.2288618087768555,-0.7440519332885742,-3.3225047588348393,0.6412149667739868
22.023971557617188,-10.962621688842773,0.9505552053451538,1.1549904346466064,-4.049991130828858,-0.38492837548255926
32.85589981079102,-4.901644229888917,1.3372491598129275,2.9341392517089844,-4.38151502609253,-1.2399368286132812
39.24155044555665,-1.5195862054824831,7.408581733703613,3.665268898010254,-3.6761951446533203,-1.7147141695022585
34.075023651123054,2.3040823936462402,6.843631267547608,3.7732899188995366,-2.750863552093506,-2.067388772964478
35.71591567993165,8.745169639587404,9.539090156555178,2.764715909957886,-3.00126314163208,-2.544309139251709
41.62700653076172,6.087515830993652,23.10333061218262,1.2463229894638064,-1.60215163230896,-3.1808784008026127
25.241197586059574,1.502410888671875,15.12717056274414,0.027512760832905773,-0.30744960904121404,-3.3882017135620117
21.547384262084964,0.6271682381629945,13.052387237548828,-1.1083377599716189,-0.2077651023864746,-3.3885829448699956
17.260152816772464,-2.563039064407349,12.101254463195803,-1.9519904851913454,-0.15441939234733582,-3.270798683166504
12.201745986938477,-7.588488578796387,9.807912826538086,-2.250910758972168,-0.19312287867069247,-2.884836196899414
10.046142578125,-13.597219467163086,9.270741462707521,-1.377716064453125,-0.23213908076286316,-2.5104796886444096
7.960333824157715,-15.376694679260256,11.119834899902344,0.23117667436599731,-0.15856494009494784,-2.0853519439697266
6.685722827911378,-12.508813858032227,13.588454246520998,1.5248703956604004,0.21600995957851413,-1.45467483997345
3.0557153224945073,-8.167948722839357,14.051097869873047,2.139687776565552,0.819135308265686,-0.804890811443329
-0.6851150989532471,-4.111811161041261,13.27309322357178,1.9323160648345947,1.389021396636963,-0.28705534338951116
-3.1598041057586674,-2.52935004234314,11.314790725708008,1.2080010175704958,1.9088423252105713,0.16768564283847812
-8.028743743896484,-3.9327006340026855,6.754144191741944,0.758678674697876,2.163326501846314,0.411857157945633
-10.577178955078125,-4.737969398498535,3.9882869720458984,0.6130706071853638,1.9995225667953493,0.5408250093460083
-10.945401191711428,-3.7224578857421875,3.2137160301208496,0.49639105796813965,1.713956356048584,0.6770755648612977
-10.747237205505373,-2.5134284496307377,3.755227327346802,0.2340714931488037,1.5415593385696413,0.8056613206863403
-9.579410552978516,-1.8529808521270752,5.388431072235108,-0.2576099336147309,1.5794003009796143,1.0141401290893555
-9.019299507141115,-2.758188247680664,5.074554443359375,-0.6116380095481874,1.8564164638519287,1.211464047431946
-9.703529357910156,-3.1393220424652104,3.703020811080933,-0.6343024373054506,2.109115839004517,1.3119239807128906
-9.39317035675049,-1.3905994892120361,2.951795339584351,-0.6762368083000184,2.2466464042663574,1.387017369270325
-8.53035068511963,0.13865944743156433,2.897979736328125,-0.891323447227478,2.390926599502564,1.4031742811203005
-7.632238388061523,0.36400517821311956,3.1037211418151855,-1.1365789175033572,2.5914087295532227,1.358410954475403
-5.691775798797608,0.5089718103408813,3.985953569412232,-1.2978340387344363,2.888577222824097,1.2815961837768555
-3.8705930709838867,0.4840899705886841,3.901859521865845,-1.3498034477233887,3.3324725627899174,1.1887354850769043
-3.1799795627594,1.054349422454834,2.099058866500855,-1.3051629066467285,3.6942164897918706,1.0960754156112673
-2.3607723712921147,2.288319826126099,0.3293091058731079,-1.3553673028945925,3.8107175827026367,1.0344299077987673
-0.49525779485702515,3.0154941082000737,-0.3507255613803864,-1.4988321065902712,3.7704498767852788,0.9899537563323975
1.9664819240570068,2.6334764957427983,-0.6370142698287964,-1.590743064880371,3.6683866977691655,0.9785289764404297
5.202443599700929,1.581243395805359,-0.5081965923309326,-1.4742311239242556,3.5199646949768066,1.0500643253326416
8.85629653930664,1.8198324441909792,-0.38357743620872503,-1.201045274734497,3.3693640232086186,1.2253639698028564
13.066548347473146,2.5887160301208496,0.334080845117569,-1.002575397491455,3.24147891998291,1.4375463724136355
17.881275177001953,3.1983566284179688,1.7776989936828613,-0.9276859760284424,3.244786977767945,1.6635990142822266
20.90481948852539,3.155934572219849,0.9095836877822876,-0.7541279196739198,3.350527763366699,1.7990212440490723
21.966741561889652,3.2197339534759526,-2.007786750793457,-0.4260833263397217,3.2485444545745854,1.8059422969818115
22.121044158935547,4.518157482147218,-4.952325344085694,-0.13736636936664584,2.813271760940552,1.7275059223175049
19.13166046142578,6.294606685638429,-9.866995811462404,-0.022007767111063004,2.110566377639771,1.549170970916748
12.914162635803224,6.848695755004883,-15.165415763854982,-0.0849737823009491,0.8085052371025087,1.2655638456344607
10.92837142944336,3.7113680839538574,-14.050643920898438,-0.09018753468990326,-0.7379658818244935,1.1532220840454102
57.599933624267585,9.760783195495607,-5.149489879608155,0.2236916422843933,-2.466468334197998,0.3765681087970734
75.09044647216798,11.979039192199709,65.33724212646486,-1.123266100883484,1.6589553356170654,0.30316385626792913
-9.845502853393555,-9.828714370727539,-22.776884078979496,-0.3719055652618408,3.492632150650025,0.4284501969814301
5.700835704803468,-3.440706729888916,20.724014282226562,-0.4835983812808991,3.2957701683044434,1.0575188398361208
-4.695950984954835,-5.172997951507569,16.511785507202152,-0.1516505479812622,2.65800142288208,-0.11277794092893602
0.8882938623428345,-16.874856948852543,6.741616249084473,0.912332832813263,2.7060933113098145,-1.1106516122817995
0.5861899256706239,-1.7037988901138308,14.593703269958498,1.0737613439559939,1.831589937210083,-0.9209723472595215
-0.2513265013694763,2.6350243091583256,12.687128067016602,1.0070372819900515,0.8839625120162964,-0.8995906710624696
3.7443873882293706,5.362715721130371,11.705795288085938,0.5891728401184082,0.13298815488815308,-0.6569841504096986
6.038827896118164,5.381330966949464,10.76058578491211,0.20341126620769504,-0.24228185415267944,-0.1610113233327866
6.738802433013917,-1.282088279724121,8.519903182983398,-0.01964145712554455,-0.11793480813503265,0.058787375688552856
6.2740888595581055,-3.6672508716583256,7.81493902206421,0.09199716895818712,0.13434988260269165,-0.018520722165703777
5.799748897552491,-1.4895219802856445,8.764086723327638,0.20563074946403503,0.3262735605239868,-0.12155365198850633
4.328784465789796,1.3674960136413574,10.030693054199219,0.13126979768276217,0.34478312730789185,-0.0308265145868063
3.9883072376251225,1.5140188932418825,10.639167785644531,-0.04964147508144379,0.2133932858705521,0.13988034427165988
4.086716651916504,-0.03218938410282135,10.175775527954102,-0.2106594443321228,0.0862790271639824,0.24510976672172546
3.9792699813842773,-1.0681067705154421,9.868931770324709,-0.23359839618206027,-0.056022312492132194,0.24158525466918945
4.136416912078858,-1.1217548847198486,9.856311798095703,-0.2412979453802109,-0.18450972437858582,0.19062708318233493
4.42834234237671,-0.8662275075912476,9.784667015075685,-0.24955086410045627,-0.28729742765426636,0.15164917707443237
4.331583023071289,-0.1616225242614746,9.937825202941896,-0.2923063635826111,-0.4005595147609711,0.13911712169647217
4.466657161712647,-0.022055551409721375,10.206410408020021,-0.3679636418819428,-0.5123718380928041,0.20077073574066162
4.025250911712647,-0.09022469818592072,10.145478248596193,-0.46886917948722845,-0.6752923727035522,0.26698306202888494
4.231129169464112,-0.9704348444938661,9.825401306152344,-0.535845458507538,-0.7907708883285522,0.2736777663230896
3.8471856117248535,-0.5874971151351929,9.810049057006836,-0.5569274425506592,-0.9631245732307435,0.28911978006362915
4.308056354522706,-1.7945288419723513,9.808144569396974,-0.5304951667785645,-1.0617573261260986,0.2152594476938248
4.077249526977539,-1.04807984828949,9.387911796569826,-0.5125230550765991,-1.1763278245925906,0.15629810094833374
3.924412250518799,-2.6912012100219727,8.945977210998537,-0.33961814641952515,-1.2637823820114138,0.03766230121254922
4.503414154052734,-2.012748003005982,8.564077377319336,-0.15033361315727234,-1.3998831510543825,-0.05060025304555893
5.643708229064941,-1.5413599014282227,8.571649551391602,-0.12113063782453538,-1.4038313627243044,-0.10834749042987823
5.8702239990234375,-1.6927342414855957,8.208377838134766,-0.07930389046669006,-1.3818279504776003,-0.09813395142555237
6.265763282775879,-1.390697956085205,8.168429374694826,-0.054078273475170135,-1.3125509023666384,-0.09652291983366014
6.458179950714112,-1.864171028137207,7.778575897216797,-0.0421723946928978,-1.2067192792892458,-0.09924919903278351
6.248194694519043,-2.0457406044006348,7.745664596557617,-0.026709320023655895,-1.0796104669570925,-0.11638079583644867
6.22608518600464,-2.249308824539185,7.69419002532959,-0.01563193462789059,-0.9638036489486694,-0.16335029900074008
6.6761322021484375,-2.1926739215850835,7.596302509307862,-0.019526559859514236,-0.8274683356285096,-0.19591633975505832
6.85486650466919,-1.4512906074523926,7.424367904663086,-0.006023913156241179,-0.6791532039642334,-0.19665203988552096
7.122767448425293,-1.1386940479278564,7.527291774749757,-0.03472049161791802,-0.49865964055061346,-0.17231038212776184
6.6750807762146005,-1.4010993242263796,7.643913745880128,-0.027664627879858017,-0.34596154093742376,-0.14173784852027893
6.5842347145080575,-1.3053920269012451,7.968854904174805,-0.013991782441735268,-0.2398359924554825,-0.11838947981595994
6.863529682159425,-1.0048143863677979,7.935271739959718,-0.010153253562748434,-0.14514568448066711,-0.08499407023191453
6.545785903930664,-1.3105612993240359,7.9791107177734375,-0.009689868427813055,-0.05264262482523919,-0.08317221701145172
5.769300937652589,-1.1872825622558594,8.414957046508789,0.007230748888105155,-0.039896272122859955,-0.08590786904096605
6.37523078918457,-0.9133076071739198,8.429401397705078,0.018648659810423854,-0.07669547200202942,-0.07100804150104523
6.033095359802246,-0.702128827571869,8.725275039672852,0.010521410033106804,-0.1209068074822426,-0.052146606147289276
5.248605251312257,-1.6691126823425293,9.12293338775635,-0.0048865987919271,-0.22034226357936862,-0.0758754312992096
4.820921897888184,-1.8647509813308718,9.194876670837404,0.03247474506497384,-0.43094825744628906,-0.1442271023988724
5.0004591941833505,-1.2417008876800537,9.501964569091797,0.04321523755788803,-0.7008486390113832,-0.20330910384655002
4.739695072174073,-0.8599927425384521,9.596050262451172,0.05552066490054131,-0.9853266477584839,-0.2508096396923066
4.803048133850098,-1.030485272407532,9.621802330017092,0.07768996804952623,-1.3284205198287966,-0.28552353382110596
4.92963981628418,-1.0615239143371582,9.658326148986818,0.12421746551990509,-1.7430056333541872,-0.30544084310531616
4.760781764984132,-1.3198732137680056,9.313155174255373,0.20923972129821777,-2.2070195674896245,-0.3336747586727143
5.172412872314453,-1.4196285009384157,9.288109779357912,0.3140868544578552,-2.6944930553436284,-0.33544331789016724
5.2044677734375,-1.1470062732696533,9.137673377990724,0.40203806757926946,-3.217169523239136,-0.32375502586364746
6.057929039001465,-1.1517101526260378,9.524568557739258,0.47727376222610474,-3.6987473964691167,-0.27013397216796875
6.715605258941651,-0.9170016050338745,10.174870491027834,0.5660600066184999,-4.110448837280273,-0.23992657661437988
9.327020645141602,-1.4501078128814697,11.212148666381836,0.6163700819015503,-4.476244449615479,-0.09140361845493317
9.830476760864258,-0.9411111474037172,12.889048576354982,0.5774967670440674,-4.639345169067383,0.06944312900304796
12.41581439971924,-2.77281403541565,12.599200248718263,0.512068510055542,-4.450087070465089,-0.029057249426841736
17.139976501464844,-5.317475318908691,11.477923393249513,1.1409233808517458,-4.31733512878418,-0.2943466305732727
25.173990249633793,-4.177233695983887,12.872316360473633,1.8922394514083865,-3.8613924980163574,-0.30596175789833074
26.463756561279297,-3.456578969955445,7.777325153350831,2.4597094058990483,-3.5444481372833256,-0.27901166677474976
28.12851333618164,-0.45619505643844604,3.5059804916381836,2.8702502250671387,-3.304345846176148,-0.4534672498703003
31.44564437866211,0.20250387489795688,2.643514633178711,3.0735447406768803,-3.167672634124756,-0.7055344581604004
29.371631622314453,2.190062284469605,0.9897439479827881,3.0225963592529297,-2.8778307437896733,-0.7612905502319336
30.70061302185059,6.272785186767578,1.5072495937347412,2.012664079666138,-3.3361909389495854,-0.8908178806304932
37.20709609985352,3.769685506820679,14.785033226013185,0.7024966478347778,-2.811464071273804,-1.136901617050171
26.073104858398438,1.297262191772461,11.417373657226562,-0.5254477262496948,-1.9990726709365847,-1.0506867170333865
21.76507377624512,-0.27240514755249023,9.216846466064453,-1.2142230272293093,-1.9983799457550049,-1.2889369726181032
17.895692825317386,-1.640043020248413,9.267217636108398,-1.3963335752487185,-2.0972340106964116,-1.6569817066192627
15.267166137695312,-2.630868911743164,9.739874839782717,-1.5062940120697021,-2.190653562545777,-1.8900096416473389
13.785208702087404,-4.162999153137207,11.656666755676271,-1.3819526433944704,-2.0499467849731445,-2.077983856201172
11.775303840637209,-6.271401882171632,13.387892723083498,-1.0031281709671023,-1.6414639949798584,-2.0338203907012944
9.5924768447876,-7.001089096069336,14.211492538452148,-0.40443021059036255,-1.0342800617218018,-1.7867990732192995
5.979835033416749,-6.278903961181641,13.995005607604982,0.17623682320117953,-0.3160325288772583,-1.5031806230545046
2.425078868865967,-5.09493112564087,13.720980644226076,0.499286413192749,0.33179756999015814,-1.210358262062073
-0.5823414325714111,-3.893794536590576,13.229907035827638,0.5373523831367494,0.9009138345718384,-0.9112760424613954
-3.7093424797058105,-3.4611878395080566,11.458984375,0.46961337327957153,1.394191026687622,-0.6726567149162294
-6.440040111541749,-3.216482639312744,9.201191902160646,0.4707144498825073,1.7153147459030154,-0.5862261056900024
-7.73017692565918,-2.334890842437744,7.870430946350098,0.36288473010063177,1.9043872356414795,-0.5193136930465698
-8.655757904052734,-1.9913442134857178,6.881092548370362,0.15428139269351962,2.0408682823181152,-0.47156760096549993
-8.538034439086914,-2.1969845294952397,6.908203125,-0.07314811646938324,2.202190399169922,-0.4343364536762238
-8.694765090942383,-2.442686796188355,6.434809207916261,-0.2942130863666535,2.466397762298584,-0.3599821031093598
-9.862627983093263,-3.095193147659302,4.478558540344238,-0.3921864628791809,2.688092947006226,-0.2641349136829377
-10.544244766235352,-3.109243869781494,2.9702389240264897,-0.413701593875885,2.7270019054412846,-0.1557914912700653
-9.07876491546631,-2.4292938709259038,3.613931179046631,-0.5964502096176147,2.743469715118408,0.03295380994677544
-6.440515995025636,-2.6066682338714604,5.037280559539796,-0.8535421490669252,2.9950404167175293,0.2778362929821015
-5.257868766784668,-3.515951156616211,4.42511796951294,-0.9655925631523133,3.4590134620666504,0.5516055822372437
-5.32654905319214,-3.908149242401123,2.0507616996765137,-0.8635770678520204,3.813347339630127,0.848924219608307
-5.288093090057374,-2.553017854690552,-0.32980626821517944,-0.7687373161315918,3.915238380432129,1.1829508543014529
-4.154971599578858,-0.36728826165199285,-1.090745210647583,-0.8874409198760986,3.8464634418487553,1.5278539657592773
-1.6195126771926882,1.3515119552612305,-0.2870374917984009,-1.2060973644256592,3.7968542575836186,1.8115824460983279
1.4693944454193115,2.3048427104949956,0.995879054069519,-1.4950511455535889,3.893224477767945,1.974045991897583
4.062402725219727,2.9772803783416752,1.417086124420166,-1.5733567476272585,4.071603298187257,1.9443330764770508
6.8524489402771005,4.145063400268555,1.6026998758316042,-1.5060017108917236,4.190268993377686,1.7399637699127197
10.350719451904297,5.502629280090332,1.9728026390075684,-1.4385229349136355,4.28285026550293,1.3931193351745605
13.074612617492678,5.494733333587647,1.4272218942642214,-1.2627041339874268,4.340622425079347,0.9007371664047241
15.276535034179688,5.232181549072266,0.23418864607810974,-0.928494930267334,4.264983177185059,0.34183612465858465
17.682453155517578,4.846274852752686,-1.537621259689331,-0.5646485090255737,3.9872248172760014,-0.1358489692211151
18.83274650573731,3.328822612762451,-3.5274403095245366,-0.1722194254398346,3.485491037368775,-0.42548337578773504
18.583065032958984,2.1469578742980957,-5.006120204925538,0.30759525299072266,2.785104036331177,-0.5112318992614746
17.076515197753906,2.5250887870788574,-5.91829776763916,0.7293066382408143,1.994850277900696,-0.4652801752090454
14.072765350341797,3.225744009017945,-7.941776752471925,0.9372783899307251,1.219316601753235,-0.3666691780090332
7.842177867889405,6.755943298339844,-12.366434097290039,0.8743799924850464,0.003326435806229711,-0.22109256684780124
78.49188232421875,31.41652870178223,30.649271011352543,-4.262501239776612,-3.590921401977539,1.0221978425979616
39.68711471557618,9.48397445678711,12.879474639892578,-1.85893189907074,4.778563022613526,0.04577511548995972
3.5957429409027104,-5.761608123779297,0.0004076063632965088,-2.0087380409240723,2.2965772151947026,1.9028923511505127
4.48506784439087,13.369132995605469,19.30150604248047,-1.6613906621932986,4.142925262451172,1.413193702697754
-1.5212299823760986,-18.780321121215824,12.120267868041992,-0.786316215991974,3.687887668609619,0.18402694165706637
-5.104805946350098,-17.390464782714844,13.610475540161133,0.14374895393848422,1.9531332254409792,0.2896907925605774
-9.044567108154297,-2.0771667957305913,15.951822280883789,0.2895680963993073,0.47034478187561035,-0.3268669545650483
0.6209387183189393,-4.040878772735597,11.990631103515625,0.37534275650978094,-0.3853139281272888,-0.7748712301254272
7.671569347381593,5.374627113342285,9.892873764038086,0.24910074472427368,-0.7409648299217225,-0.6815239191055298
7.931212902069093,4.8729705810546875,8.039501190185547,-0.048997700214385986,-0.5935505628585815,-0.21642290055751803
8.059843063354492,-1.3157694339752197,7.101767539978027,-0.11232402175664903,-0.1660410463809967,-0.011797743849456312
5.577251911163331,-1.3042619228363037,8.692492485046388,-0.03441235795617104,0.1114056259393692,0.006594817154109478
4.078355312347413,-0.432925820350647,10.143436431884766,-0.03663245216012002,0.1289871335029602,-0.008430317975580694
3.712171316146851,0.1336381435394287,10.529241561889648,-0.11273886263370514,0.0035174149088561535,0.05635140463709832
4.490731716156007,-0.3306022882461548,9.937252044677734,-0.17711207270622253,-0.10190730541944505,0.10105489194393158
4.8981428146362305,-0.6274760365486146,9.561835289001467,-0.2225099802017212,-0.11786413937807085,0.12318646162748338
4.72281312942505,-0.5316972732543945,9.664256095886232,-0.24445511400699618,-0.10829263925552368,0.15451924502849582
4.405236721038819,-0.7981014847755433,9.897981643676758,-0.24622809886932373,-0.15878868103027344,0.14516238868236545
4.050252914428711,-1.0201117992401123,9.902870178222656,-0.2553133666515351,-0.25175774097442627,0.11406176537275316
4.26631784439087,-1.1456420421600342,9.996622085571289,-0.24251534044742587,-0.36302757263183594,0.0623912513256073
4.225988388061523,-0.5974363088607788,9.919021606445312,-0.27750086784362793,-0.45802989602088934,0.01877809315919876
4.436367034912109,-0.8310951590538026,9.754024505615234,-0.34355032444000244,-0.5009578466415405,0.03622044250369073
4.79617738723755,-0.8291948437690736,9.62649440765381,-0.32931381464004517,-0.5311409831047059,0.07988421618938446
4.8191375732421875,-1.0348639488220215,9.251954078674318,-0.2990294098854065,-0.5326202511787416,0.1125069633126259
4.986971378326417,-1.617063283920288,9.008031845092773,-0.2834719121456147,-0.5064088106155396,0.1214721128344536
5.074353218078613,-1.0695626735687256,9.240140914916992,-0.2582951486110688,-0.5027160048484803,0.12758725881576538
4.8716092109680185,-0.9507541656494141,9.097580909729006,-0.24822039902210238,-0.5023037195205688,0.1523420959711075
5.054510116577148,-0.9942317008972168,9.100257873535156,-0.2588724792003632,-0.4969038963317871,0.16785946488380432
4.775150299072266,-0.9859548807144165,9.212469100952148,-0.23134066164493564,-0.5093792676925659,0.16831527650356296
4.901972770690918,-1.4121935367584229,8.94417476654053,-0.21082210540771484,-0.5139025449752808,0.13635484874248507
4.789477825164796,-1.5950109958648682,8.993357658386232,-0.18969921767711642,-0.5277396440505981,0.09575519710779191
5.063642501831055,-1.3374154567718506,8.942296981811523,-0.18277901411056519,-0.5366868376731874,0.06818642467260362
4.9021711349487305,-1.5587091445922852,8.769434928894045,-0.16256032884120944,-0.5530717372894287,0.04563682898879052
4.956215381622315,-1.7709535360336306,8.801082611083984,-0.134502187371254,-0.5474794507026673,0.0005014017224311829
5.116516590118409,-1.8361731767654421,8.56519889831543,-0.09676865488290788,-0.5531637668609619,-0.05303007736802102
5.650996685028077,-1.498037576675415,8.688656806945803,-0.07939925789833069,-0.5151497721672059,-0.07409075647592546
5.577469348907472,-1.3943082094192507,8.29130744934082,-0.05780310183763504,-0.45307925343513494,-0.08233495056629181
5.667649745941163,-1.4175403118133545,8.500905990600586,-0.049846183508634574,-0.4081354439258576,-0.10084523260593414
5.432365417480469,-1.3048185110092165,8.56502437591553,-0.034714311361312866,-0.3601102530956269,-0.10584190487861633
5.030124664306641,-1.6335283517837527,9.004575729370117,-0.0054527786560356626,-0.36580538749694824,-0.11915196478366852
4.724539279937745,-1.8506156206130984,8.659551620483398,0.0327841229736805,-0.43994617462158203,-0.17364402115345004
5.492867946624757,-1.4878789186477663,8.602604866027834,0.06671855598688127,-0.4971149861812592,-0.22146856784820557
5.291719436645508,-0.976729154586792,9.038873672485352,0.0710056722164154,-0.5444110035896302,-0.23486840724945068
4.592855453491211,-0.9361578822135926,9.484450340270998,0.03975481539964676,-0.6584375500679017,-0.24400322139263156
4.203114986419679,-1.3168258666992188,9.584985733032227,0.02334711328148842,-0.8677280545234681,-0.2633758783340454
4.985883712768555,-0.6444351077079774,9.648045539855959,-0.012818426825106146,-1.096670746803284,-0.2672179341316223
5.4588165283203125,-0.1545628011226654,9.737135887145998,-0.06851581484079362,-1.2462372779846191,-0.22991545498371127
5.102782726287843,-0.6867898106575013,9.960670471191406,-0.09989463537931444,-1.471778154373169,-0.18422150611877441
4.717629909515382,-1.0602968931198122,9.841812133789062,-0.005929188337177039,-1.7441692352294922,-0.14349262416362765
4.970918655395508,-0.3421117663383484,9.69700813293457,0.022686459124088287,-2.0915889739990234,-0.1548302918672562
4.661783695220948,-0.7399432063102723,9.157305717468263,0.07612327486276628,-2.474832534790039,-0.17633296549320224
5.266810417175293,-0.1662783920764923,9.27927875518799,0.16117556393146518,-2.920051097869873,-0.18641695380210876
4.597156524658203,-0.331406980752945,8.976007461547852,0.21977508068084717,-3.467849969863892,-0.13092079758644104
5.513854503631593,-0.6100960969924927,10.467583656311037,0.25616601109504705,-4.017624378204347,0.026550360023975372
6.33293104171753,-0.22355994582176208,12.228465080261232,0.22535260021686557,-4.571429252624512,0.23517598211765292
9.06660270690918,-1.4810346364974978,13.976232528686523,0.03872968256473541,-4.963212490081788,0.4469445645809174
12.02113437652588,-2.695590734481812,15.267336845397951,-0.27706384658813477,-5.019974231719972,0.5615284442901611
15.866430282592773,-4.995827674865723,12.403753280639648,-0.15888726711273193,-4.986456871032715,0.37672010064125067
24.825515747070312,-5.862873554229737,11.523963928222656,0.620815932750702,-4.971590042114258,0.06637468189001085
31.616857528686527,-5.430554389953613,7.969876289367676,1.0427802801132204,-4.914483070373535,-0.1637219786643982
32.347675323486335,-5.861130237579347,4.101140499114991,1.4818936586380007,-4.827159881591797,-0.595752775669098
36.27238082885743,-5.896071910858155,8.310702323913576,2.1781625747680664,-4.846693992614746,-0.9914661049842836
30.642217636108402,-4.57786512374878,6.5814785957336435,2.649385929107666,-4.460563182830811,-1.190340518951416
37.222869873046875,0.7099988460540771,11.846758842468263,2.459987163543701,-4.818913936614991,-1.6106799840927126
37.136558532714844,1.6462154388427734,23.650873184204105,1.907743215560913,-3.0271255970001225,-1.9179432392120361
22.572721481323246,2.218708753585816,16.569854736328125,0.7687273025512695,-1.8361461162567139,-1.8651746511459353
19.278396606445312,2.3472299575805664,15.593324661254883,-0.5052822828292847,-1.3277844190597536,-1.9709317684173584
14.134261131286623,0.6267852783203125,13.043413162231445,-1.50445556640625,-0.9375113844871522,-2.12399697303772
9.594039916992188,-2.1250827312469487,10.57722568511963,-2.11403226852417,-0.6812037825584413,-2.282759189605713
6.168652057647706,-6.214702129364015,8.360408782958984,-1.9049572944641113,-0.53775954246521,-2.4683301448822026
3.9333407878875737,-8.789963722229006,7.984328269958496,-0.9250225424766542,-0.4679996371269226,-2.536053895950318
3.0615992546081543,-7.600773811340332,9.143485069274904,0.09858040511608124,-0.2800013720989228,-2.403789281845093
2.139863252639771,-5.32575273513794,10.274519920349123,0.6765952110290527,0.13373236358165744,-2.0952577590942383
-0.7770605087280273,-4.033812046051026,9.565773010253906,0.8656209707260132,0.6652579307556152,-1.76330840587616
-4.039666175842285,-3.581869602203369,8.449645042419435,0.7854295372962953,1.0417888164520264,-1.4673458337783816
-5.312504291534425,-3.946497201919556,7.9351544380188,0.6077412366867065,1.2815798521041872,-1.1961504220962527
-5.412262439727784,-4.925061702728272,7.551734447479249,0.46324595808982855,1.549959659576416,-0.9369760155677797
-5.295688629150391,-5.366364479064941,6.952136039733887,0.4233401417732239,1.8897383213043213,-0.6501782536506654
-6.480493068695069,-5.199652671813965,5.49537467956543,0.4191708862781525,2.171517848968506,-0.34423461556434637
-7.699395179748535,-4.354414939880371,4.112693786621094,0.2987704277038574,2.290352106094361,-0.029726782813668255
-7.501152038574219,-3.63856053352356,3.7979428768157963,0.05515056475996972,2.3394880294799805,0.292078047990799
-6.791470527648926,-3.7330780029296875,3.7153215408325195,-0.207502543926239,2.476076126098633,0.611214578151703
-6.440131664276124,-3.9901623725891113,3.3679442405700684,-0.3422543406486511,2.659082174301148,0.9068412780761719
-5.034679412841797,-3.493804454803467,3.770246267318726,-0.46276786923408514,2.893278121948242,1.242159128189087
-4.137699604034425,-3.376020908355713,3.4407334327697754,-0.5358548164367676,3.212570428848267,1.5722298622131348
-3.939236640930176,-2.793617486953736,2.487550020217896,-0.5297072529792787,3.5057709217071538,1.8820481300354004
-3.734209299087525,-0.7903687357902528,1.340135097503662,-0.6078885793685913,3.689282655715943,2.1558470726013184
-3.167382955551148,1.008460879325867,0.08773989975452423,-0.8491882085800171,3.7656133174896245,2.348223447799683
-2.1129965782165527,1.898640036582947,-0.6206015348434448,-1.096286177635193,3.7578892707824707,2.42782473564148
-0.07432679831981659,2.090645074844361,-0.47213914990425115,-1.2048838138580322,3.743231773376465,2.394750356674195
2.201356172561646,2.5736160278320312,-0.16179707646369934,-1.1312836408615115,3.7849998474121094,2.2842099666595463
4.509073257446289,3.893006563186646,-0.13336445391178134,-1.0336761474609375,3.858693361282349,2.097213983535767
7.385451316833496,4.395536422729492,-0.3244336545467377,-1.0009053945541384,3.9468374252319336,1.8271836042404177
10.234163284301758,4.425022125244141,-0.7218910455703735,-0.9438697695732118,4.02104139328003,1.5663337707519531
12.59639644622803,4.381731510162354,-1.987507224082947,-0.879426419734955,4.036402702331543,1.347943186759949
13.88374137878418,3.3311011791229252,-4.4125213623046875,-0.8518550395965576,3.861808061599732,1.220511078834534
13.37016487121582,2.0449712276458745,-7.9307827949523935,-0.9074387550354004,3.3535692691802983,1.3544883728027344
10.080472946166992,1.3558303117752077,-12.004300117492678,-1.1635886430740359,2.3776738643646245,1.7252178192138672
8.840502738952638,-0.6086032390594482,-11.34663486480713,-1.601907730102539,1.1958140134811404,2.337578296661377
6.726044178009034,-2.736419677734375,-10.150672912597656,-1.867124080657959,0.23016496002674106,3.0542747974395756
77.64389801025392,7.52296257019043,-7.930075645446777,-0.26654973626136785,-0.7430837154388428,0.5160148739814759
104.99915313720705,19.501113891601562,53.27531051635743,0.009190327487885954,3.2849705219268803,-1.9297173023223877
-15.06263542175293,-24.227535247802734,-20.003072738647464,0.816261887550354,4.797045230865479,0.5460230112075806
2.2989015579223633,2.910710334777832,30.18270301818848,1.295445799827576,5.315132141113281,1.107736587524414
-21.34642791748047,4.454434394836426,14.502995491027834,0.6673859357833862,3.403499841690064,-0.2067316174507141
-0.14357852935791016,-14.034282684326172,14.068461418151857,0.8333675265312196,1.5246497392654421,-0.6330410242080688
-5.294518947601319,11.058147430419922,17.64221954345703,0.3870703876018525,-0.41491931676864624,-0.4270067512989045
3.165740489959717,5.069461822509766,12.68770503997803,-0.33600214123725897,-0.8869818449020386,-0.3654475212097168
9.516975402832031,-2.0394122600555424,8.184883117675781,-0.4413698613643647,-1.0300559997558594,-0.1367406398057938
8.360749244689943,-3.2937445640563965,6.10701608657837,-0.2889712452888489,-0.43700850009918213,0.0828034356236458
7.802812576293945,-2.8618011474609375,7.170218944549561,-0.08326926082372667,0.04586264491081238,0.10674608498811723
5.773822307586671,-2.155031681060791,8.471439361572266,0.07819701731204987,0.3263137042522431,0.08948182314634325
4.24960994720459,-0.4059738516807556,9.613867759704592,0.08655087649822235,0.37045070528984075,0.12743714451789856
4.087150573730469,0.1787890046834946,10.314411163330078,-0.03371758759021759,0.2954840660095215,0.22676567733287814
4.2376980781555185,-0.4939226508140564,9.935617446899414,-0.16602547466754916,0.20809835195541382,0.3062232434749604
4.740231513977051,-1.5950422286987305,9.668699264526367,-0.20499120652675631,0.15311822295188904,0.32932519912719727
4.257106781005859,-2.0178129673004155,9.589189529418945,-0.1457657963037491,0.11766642332077026,0.2740247547626496
3.754880428314209,-1.6842570304870605,9.882223129272461,-0.11741340905427934,0.062280762940645225,0.20535698533058167
3.481635570526123,-1.3462998867034912,10.286444664001467,-0.14404970407485962,-0.0791854038834572,0.15589573979377747
3.99835205078125,-1.3358254432678223,9.995630264282227,-0.16375479102134705,-0.2063400596380234,0.1204858645796776
4.621218681335449,-1.3783675432205202,9.65185070037842,-0.16729192435741427,-0.2691000699996948,0.12129207700490953
5.026137351989746,-1.4886507987976074,9.301294326782227,-0.1526208221912384,-0.2751389741897583,0.16033230721950534
5.001879215240479,-1.2961530685424805,9.297701835632326,-0.16070148348808289,-0.22188110649585727,0.1923479437828064
4.682859420776367,-1.9802470207214355,9.023482322692873,-0.13098375499248507,-0.18948644399642944,0.193596750497818
4.679513454437257,-2.3371353149414062,8.873473167419435,-0.07418299466371538,-0.1570931375026703,0.14637173712253573
4.779086112976074,-1.7484098672866824,9.134050369262695,-0.05613423138856888,-0.12078763544559479,0.11561714857816698
4.630871772766113,-1.4001523256301882,9.285652160644531,-0.06507720798254014,-0.09585456550121307,0.1307248026132584
4.878050327301026,-1.771517038345337,9.086474418640138,-0.06650955975055695,-0.06132670864462853,0.10680197924375535
4.866926670074464,-1.9690903425216677,8.988295555114748,-0.05949556082487106,-0.0030911464709788565,0.1128523051738739
4.623405456542969,-1.9037797451019287,9.044076919555664,-0.024881385266780853,0.031159617006778717,0.07634345442056657
4.749358177185059,-1.8279502391815186,9.096911430358888,-0.029480058699846268,0.08054482191801073,0.04294641315937042
4.6279311180114755,-2.5869910717010502,8.638412475585938,0.007443354930728675,0.12751474976539612,0.013155875727534294
4.663910388946534,-2.7491226196289062,8.783238410949709,0.0690029338002205,0.13267099857330322,-0.013342383317649366
4.594878673553468,-2.2657408714294434,8.896821022033693,0.1101600155234337,0.1673323065042496,-0.04270748049020767
4.412822246551515,-2.8147470951080327,8.803184509277344,0.16426563262939453,0.18507944047451022,-0.07780729234218597
4.712611198425293,-2.7790687084198002,8.954715728759766,0.22646878659725192,0.19825294613838196,-0.11956378817558289
5.003778457641602,-2.0355687141418457,9.122483253479006,0.27199277281761175,0.24483376741409302,-0.12786976993083957
4.659386157989503,-1.728926420211792,9.143580436706545,0.2827691733837128,0.3092342913150788,-0.12960907816886902
4.819122791290284,-1.4588992595672607,9.068342208862305,0.28223404288291937,0.3418542146682739,-0.12453988939523698
4.181109905242921,-0.7152712345123291,9.208602905273438,0.25484499335289007,0.354902982711792,-0.08220793306827545
3.35033392906189,-0.9806422591209413,9.736198425292969,0.2088267654180527,0.2745572328567505,-0.08833525329828264
3.365722179412842,-1.5244903564453125,9.861880302429201,0.20578338205814364,0.14655603468418124,-0.12155808508396149
3.3442032337188725,-0.8512217402458192,9.96706771850586,0.1960016041994095,0.04147639125585556,-0.16742666065692904
3.344027042388916,-0.9121611714363099,9.659497261047365,0.19432753324508667,-0.07052771002054216,-0.20567615330219272
3.773530960083008,-1.3271812200546267,9.922886848449709,0.20018769800662997,-0.1847548484802246,-0.23098342120647433
3.4687788486480717,-1.8080152273178103,9.78818988800049,0.201961025595665,-0.2813664376735688,-0.2777174711227417
3.694778203964234,-1.0613850355148318,10.353952407836914,0.17749352753162387,-0.41745924949645996,-0.3134931027889252
3.9440286159515385,-1.1108154058456423,9.887975692749023,0.1711298078298569,-0.5022817850112915,-0.34163355827331543
3.7414121627807617,-1.5312259197235107,9.82066535949707,0.1673984080553055,-0.6113733053207397,-0.38620069622993475
4.441803932189941,-1.0667601823806765,10.0970458984375,0.14257933199405673,-0.7290048003196717,-0.41377919912338257
4.5250515937805185,-0.7590034604072572,10.367762565612795,0.08043141663074493,-0.8356803059577943,-0.3919370174407959
4.530362606048585,-0.5203593969345093,9.950611114501953,-0.0015084444312378766,-0.9896674156188965,-0.3619179129600525
4.707498073577882,-0.10929955542087555,10.043285369873047,-0.06994596123695374,-1.1839519739151003,-0.2918087840080261
4.0511794090271005,-0.7738555669784546,9.778111457824709,-0.12104907631874084,-1.4134190082550049,-0.26063129305839544
3.2102694511413574,-0.5165157318115234,10.08025646209717,-0.14425022900104525,-1.735020399093628,-0.2644853293895722
3.421675682067871,-1.27130663394928,10.617843627929688,-0.21726237237453463,-2.0702414512634277,-0.29265326261520386
3.5780386924743652,-2.4191753864288335,10.302595138549805,-0.09690270572900773,-2.3464083671569824,-0.3315580785274506
4.020787715911866,-1.4538934230804443,9.860471725463867,0.03251474350690842,-2.665339469909668,-0.4392219483852387
4.286224842071534,-2.3402082920074467,9.485271453857422,0.14700868725776672,-2.9506127834320073,-0.5693485736846924
4.592643260955811,-2.13376522064209,9.498040199279787,0.30555635690689087,-3.25162148475647,-0.668332874774933
4.359906673431397,-2.5872309207916264,8.767707824707031,0.48881503939628607,-3.652437210083008,-0.7895758748054506
5.144433498382569,-1.2041072845458984,8.70100212097168,0.6475073695182801,-4.103087902069093,-0.8820947408676147
6.0588345527648935,-0.46166491508483887,8.907824516296388,0.7408726811408998,-4.552589416503906,-0.8451656699180604
7.125404357910156,-0.44666114449501043,9.659004211425781,0.8006753325462342,-4.964963912963867,-0.7403993606567383
9.113101959228516,0.18758174777030945,11.142630577087404,0.8075168132781982,-5.233596324920655,-0.5508400201797485
11.121269226074219,-0.22451104223728183,11.628202438354492,0.6280219554901123,-5.193812370300293,-0.38007977604866033
13.160069465637209,-1.6458749771118164,11.16455936431885,0.47957152128219604,-4.914756298065186,-0.28025686740875244
16.810482025146484,-2.4351134300231934,11.95382308959961,0.5769497156143188,-4.554194927215577,-0.3716495335102082
21.465396881103516,0.7251803874969482,11.512679100036623,0.004574567079544067,-4.105000019073487,-0.1606590747833252
22.551996231079105,1.8967846632003786,8.881833076477053,-1.1977068185806277,-3.638231992721558,-0.0017417222261428833
20.017526626586918,-2.1142466068267827,0.25858110189437866,-1.615601420402527,-3.4654369354248047,-0.4053464233875275
23.161022186279297,-4.027673244476319,-1.6553196907043457,-0.9279489517211914,-3.970091581344605,-1.037220358848572
23.178043365478516,-2.4692845344543457,-0.0055703818798065186,-0.17219507694244385,-4.151630878448487,-1.5053722858428955
22.047344207763672,-1.4782538414001465,-0.37435206770896917,0.48899868130683904,-4.444529056549073,-2.0093512535095215
23.99325180053711,1.232388973236084,0.2781527638435364,0.9638450741767884,-5.308960914611816,-2.6756880283355717
30.213407516479496,1.5148727893829346,11.432636260986328,1.125848174095154,-5.074710845947266,-3.221862316131592
22.59996795654297,2.714213132858277,9.801483154296875,0.8513178229331971,-4.407916069030762,-3.4763772487640385
21.992225646972656,2.5508658885955815,11.27305316925049,0.3215815722942353,-3.987458467483521,-3.660080909729004
18.0177001953125,1.042760252952576,10.959638595581055,-0.1732539087533951,-3.46809720993042,-3.7179586887359624
14.426934242248537,-1.1809489727020264,10.69082546234131,-0.54442298412323,-3.0952384471893315,-3.71271824836731
11.229070663452148,-4.431822776794434,10.821207046508789,-0.5754967927932739,-2.7698223590850835,-3.7071375846862793
8.893718719482422,-7.64785099029541,10.823179244995117,-0.11259587854146959,-2.4776589870452885,-3.6069788932800293
6.921061038970948,-8.186487197875977,11.415447235107422,0.6621636152267456,-2.1531302928924565,-3.412924289703369
5.832099437713624,-6.631587982177734,13.187139511108398,1.1677632331848145,-1.6923321485519411,-3.046660661697388
5.344300270080566,-5.058615684509277,14.886655807495117,1.1908849477767947,-0.9542320966720581,-2.497655630111695
4.34466314315796,-4.07985544204712,15.996147155761719,0.8536626100540161,-0.010575521737337112,-1.903276562690735
3.796397924423218,-3.320056438446045,16.421504974365234,0.19186338782310486,1.0311697721481325,-1.2292840480804443
1.3151981830596924,-4.309930801391602,14.393507957458498,-0.4915738105773926,2.0330016613006596,-0.6289770007133485
-2.7141158580780034,-5.637685775756836,10.793551445007326,-0.789025068283081,2.668695688247681,-0.23090633749961853
-6.1178345680236825,-5.931856155395508,7.15601396560669,-0.7906270027160645,2.860605239868164,0.0367354266345501
-7.212074756622315,-5.5504255294799805,4.810231685638429,-0.6050919890403749,2.7542834281921387,0.24861930310726169
-6.631023406982422,-4.331574440002441,4.499560356140137,-0.45995226502418524,2.5110321044921875,0.4898856282234192
-5.184132099151612,-3.005739212036133,5.764333724975586,-0.5019792318344116,2.3845636844635014,0.7598848342895508
-4.073126792907715,-2.56093168258667,6.971009254455566,-0.595802903175354,2.4686217308044434,0.9698250889778138
-3.363517045974732,-1.7536945343017578,8.110592842102053,-0.7099957466125488,2.6709463596344,1.073974609375
-2.410429000854492,-0.8545220494270326,8.930716514587404,-0.9015739560127259,3.0046701431274414,1.1358940601348877
-2.2347779273986816,0.005977064371109009,8.870285987854006,-1.150459170341492,3.390280246734619,1.1451343297958376
-2.3432865142822266,0.41449198126792913,8.362581253051758,-1.4111984968185427,3.7080967426300053,1.1205737590789795
-2.041040182113648,0.4521285891532898,7.838890552520753,-1.637273669242859,3.9625916481018066,1.0620702505111697
-1.8636416196823122,0.889552414417267,7.358953475952148,-1.7979927062988281,4.154661655426026,0.9746440052986146
-1.2996184825897217,1.2608428001403809,7.390217304229737,-1.9825953245162966,4.263584136962891,0.8848204016685487
-0.44859412312507635,1.4753178358078005,7.806449890136719,-2.17399263381958,4.364584922790527,0.7973911166191102
0.6505656242370605,1.5721094608306885,8.555338859558107,-2.3265819549560547,4.489469051361085,0.6873555183410645
1.6665990352630615,1.8282947540283203,9.442659378051758,-2.4931313991546635,4.652660369873047,0.582073450088501
