AccX,AccY,AccZ,GyrX,GyrY,GyrZ
8.333597361342983e-05,-1.7865211702883244e-05,0.00019369109941180798,1.499879402899751e-07,-9.466127437463001e-08,-2.826825209467643e-07
4.2042436599731445,-0.8839401006698608,9.673808097839357,0.005626716651022434,-0.0052975607104599485,-0.011463261209428312
4.177042007446289,-0.907461702823639,9.676926612854006,0.005369575694203377,-0.00585499918088317,-0.010887181386351585
4.193477153778077,-0.8862007856369019,9.699242591857912,0.003852891502901912,-0.004570231307297946,-0.00973983108997345
4.193755626678468,-0.8877657055854798,9.704382896423342,0.002717045368626714,-0.00455684307962656,-0.01073627080768347
4.186138629913331,-0.9200270175933838,9.682147026062013,0.0005468308227136731,-0.004219543654471637,-0.01068894471973181
4.1800808906555185,-0.9040347337722778,9.669147491455078,0.0029523659031838183,-0.005729660391807556,-0.011528131552040579
4.18583869934082,-0.8696711659431459,9.66779899597168,0.0019534272141754627,-0.004081103950738907,-0.010072267614305021
4.145843505859375,-0.8850241899490356,9.68435573577881,-0.0005360596696846188,-0.005894777365028858,-0.009826646186411383
4.1655731201171875,-0.9002022147178651,9.691574096679688,-0.0013199747772887351,-0.008396269753575325,-0.008499860763549805
4.147554874420167,-0.9518046975135804,9.696156501770021,-0.0009562108316458763,-0.011701332405209541,-0.009278316982090475
4.177199840545655,-0.9577645063400269,9.69532585144043,0.0019530571298673751,-0.01591051556169987,-0.012516330927610397
4.205605506896973,-0.8867830038070679,9.722044944763185,0.0008712183334864677,-0.01558128371834755,-0.012842076830565931
4.226791858673097,-0.8610810041427612,9.702755928039553,-0.003884583013132215,-0.015215953812003136,-0.0109616219997406
4.193424701690675,-0.9160110950469971,9.651277542114258,-0.004086545668542385,-0.01198451314121485,-0.0067083146423101425
4.235820293426515,-0.8960579037666322,9.677836418151857,-0.0040396866388618955,-0.009581071324646475,-0.005723875947296619
4.204883575439453,-0.9145885705947876,9.684907913208008,-0.005461214110255241,-0.005412376020103694,-0.005595598369836807
4.174115180969238,-0.9151978492736816,9.666649818420412,-0.004671269096434116,-0.006930774543434382,-0.004642799030989409
4.198752880096436,-0.9295209646224976,9.710945129394531,-0.005408011376857758,-0.005773587618023158,-0.004480170086026192
4.180392742156983,-0.9509611129760742,9.701314926147461,-0.0034244898706674576,-0.0049005066975951195,-0.004994844552129508
4.159965991973878,-0.9877681732177734,9.675683975219727,-0.00011287637607892977,-0.003445744514465332,-0.007060724776238204
4.17628049850464,-0.9403493404388428,9.714929580688477,0.0029932050965726376,-0.00500387465581298,-0.008960778824985029
4.189921855926515,-0.8962149024009706,9.71017837524414,0.002065951470285654,-0.004882293287664653,-0.008710389956831932
4.198659896850586,-0.8998565673828125,9.695953369140625,0.0025755991227924824,-0.0038980194367468357,-0.00843422580510378
4.189586639404297,-0.9120792746543885,9.698798179626467,-0.00043504257337190216,-0.004162345081567764,-0.006559509318321944
4.19043779373169,-0.9321517944335938,9.697319984436037,0.001136859180405736,-0.003207142231985927,-0.006537111010402442
4.187569618225098,-0.9109282493591309,9.699747085571289,0.001778232166543603,-0.004140260163694621,-0.007650415413081646
4.200610160827637,-0.9200060367584229,9.677574157714844,0.0024921998847275977,-0.003708091797307134,-0.007722065784037113
4.168605327606202,-0.9239871501922607,9.65353775024414,0.00296840793453157,-0.0046868836507201195,-0.006414978299289943
4.106354713439941,-0.9615646600723267,9.681071281433107,0.005808340851217509,-0.005597815848886967,-0.009831825271248817
4.1606245040893555,-0.9390264749526978,9.694465637207031,0.008088517934083939,-0.009280941449105741,-0.013776212930679321
4.166646957397461,-0.8998572826385498,9.70451068878174,0.007159288972616196,-0.009613582864403725,-0.015565161593258383
4.176941394805909,-0.9028454422950746,9.659225463867188,0.007625402882695198,-0.011751093901693823,-0.01310303807258606
4.189180374145508,-0.9015215635299683,9.698102951049805,0.006345463916659355,-0.011440603993833067,-0.013646476902067663
4.200825214385987,-0.9056016206741333,9.701203346252443,0.005858254618942738,-0.011687477119266989,-0.014217019081115723
4.196429729461671,-0.8919256329536439,9.686867713928224,0.006753276567906142,-0.010210330598056318,-0.013879751786589622
4.216338157653809,-0.8711800575256348,9.652796745300295,0.009123592637479307,-0.006156217306852341,-0.011818266473710539
4.199284553527832,-0.8999184966087342,9.626069068908693,0.007101520895957947,-0.0011089100735262038,-0.0090171629562974
4.122323036193848,-0.9991008639335633,9.677025794982912,0.011673711240291595,-0.0018829234177246692,-0.015455234795808792
4.164218425750733,-0.9380619525909424,9.701867103576662,0.01642974093556404,-0.005454596132040024,-0.019423170015215877
4.174993038177491,-0.8911291956901551,9.68775272369385,0.013423130847513677,-0.008116230368614197,-0.01716926880180836
4.168639183044434,-0.8954539895057679,9.714860916137695,0.011827340349555016,-0.01152900140732527,-0.01834124512970448
4.2082276344299325,-0.862850546836853,9.709509849548342,0.008329649455845358,-0.011243239045143127,-0.014948709867894651
4.1961565017700195,-0.8589016795158387,9.688351631164553,0.006539732217788696,-0.008572239428758621,-0.012463915161788465
4.184789657592773,-0.8505896329879761,9.694031715393068,0.003759304992854595,-0.008593750186264517,-0.00957508198916912
4.1862759590148935,-0.8570274114608765,9.700003623962404,0.0003111648547928781,-0.005845163948833942,-0.008384471759200096
4.1591200828552255,-0.9352211952209473,9.679719924926758,0.00040671884198673075,-0.005175703205168247,-0.008264140225946905
4.182899951934815,-0.9140775203704834,9.69338893890381,0.0012687888229265811,-0.009027265943586828,-0.008849238976836205
4.1650357246398935,-0.9016358852386475,9.68363666534424,0.0017480178503319623,-0.00916888378560543,-0.00964843947440386
4.155029296875,-0.9361940026283265,9.670037269592287,0.000987398438155651,-0.01025370601564646,-0.010345584712922575
4.194140911102296,-0.8535882234573364,9.699018478393555,0.00030339651857502764,-0.008537665009498596,-0.009948880411684515
4.19901990890503,-0.8685122728347778,9.674098014831545,-0.0012310538440942764,-0.0073899514973163605,-0.004998840857297183
4.1873369216918945,-0.9171333312988281,9.708170890808107,-0.0027914454694837336,-0.007875539362430573,-0.003838507225736976
4.193025588989258,-0.870354175567627,9.695480346679688,-0.00502254767343402,-0.007398837246000767,-0.0025114594027400017
4.168600082397461,-0.8923020362854004,9.671502113342287,-0.006362149957567454,-0.004510288126766682,0.0017937124939635398
4.142541885375977,-0.8820642232894897,9.679553985595703,-0.006615266669541598,-0.006667239125818015,0.0013026429805904627
4.182469367980957,-0.9101974368095399,9.724242210388185,-0.006671293638646603,-0.00847416650503874,0.0016316317487508059
4.141622543334961,-0.9563016891479492,9.71041011810303,-0.008447321131825447,-0.009646498598158361,-0.0007479088963009418
4.1338515281677255,-0.911911427974701,9.711221694946289,-0.006613807752728462,-0.013108561746776106,-0.004632031545042992
4.195696830749512,-0.889652192592621,9.707311630249023,-0.008115905337035658,-0.017373418435454372,-0.004620089195668697
4.178012371063233,-0.8927530646324159,9.70415782928467,-0.009106675162911415,-0.013924694620072843,-0.001915603643283248
4.175053119659425,-0.9636199474334717,9.702384948730469,-0.009069178253412247,-0.01669268868863583,-0.0024821131955832247
4.215397357940675,-0.9053049087524414,9.689761161804201,-0.006892420817166568,-0.013438450172543526,-0.0034518751781433825
4.222925662994386,-0.9398013949394227,9.691635131835938,-0.0054143485613167295,-0.009791356511414053,-0.0036406931467354298
4.207061767578125,-0.9063628315925599,9.7025146484375,-0.0041920822113752365,-0.004690550733357669,-0.0038768653757870197
4.210160732269288,-0.9023491740226747,9.691927909851076,-0.003201317973434925,-0.00041749913361854857,-0.001581415184773505
4.170259952545167,-0.9033450484275819,9.660351753234865,-0.0010093506425619125,0.0020667326170951132,3.891164669767022e-05
4.181831359863281,-0.9273362159729004,9.666483879089357,0.0008064613211899996,0.003069584723562002,-0.003117717104032636
4.122589588165284,-0.9735409021377563,9.681001663208008,0.002744660247117281,0.0027545087505131964,-0.006051123142242432
4.131366252899171,-0.9407633543014526,9.715945243835451,0.002516967710107565,-0.002926901681348682,-0.007563960272818805
4.16947889328003,-0.907130241394043,9.689776420593263,0.0037800499703735117,-0.004781465046107769,-0.00872293207794428
4.181427478790284,-0.8923475742340088,9.693078994750977,0.0021320718806236987,-0.0037893739063292746,-0.009821392595767975
4.172736167907715,-0.9168137311935425,9.696646690368654,0.0009280189988203348,-0.0031459475867450237,-0.007329856511205436
4.205806255340577,-0.8754013180732728,9.692070960998537,0.0010461239144206047,-0.004344922024756671,-0.006957226898521186
4.189670085906983,-0.9073151946067811,9.694437026977539,0.00018641668430063876,0.00016369542572647333,-0.0030260754283517603
4.146798610687257,-0.9402957558631898,9.681631088256836,-0.0037883825134485964,0.00030107205384410923,-0.003364593256264925
4.169902324676515,-0.9158236384391786,9.661551475524904,-0.0025996146723628044,-0.0007722817244939507,-0.003431027289479971
4.187354564666749,-0.8903056383132935,9.656142234802248,-0.0005963018629699945,0.0024962320458143954,-0.0030106895137578253
4.157778263092042,-0.9449121952056885,9.633555412292482,0.0020455154590308666,0.005945944692939521,-0.0033528464846313
4.145155429840089,-0.9481799602508545,9.70252323150635,0.004838729742914439,0.005329506006091834,-0.006608928553760052
4.210784912109375,-0.9254442453384399,9.70265865325928,0.006559720728546382,0.00837073102593422,-0.008123350329697134
4.206833362579347,-0.895672380924225,9.709694862365724,0.006435822229832412,0.00948682613670826,-0.007125534117221832
4.213409423828125,-0.884560525417328,9.667116165161133,0.005603722296655178,0.015022977255284788,-0.004106893204152584
4.216384410858155,-0.8661407232284546,9.664709091186523,0.007777385879307986,0.025719830766320232,-0.0001380755566060543
4.074711322784425,-1.0351476669311523,9.708763122558594,0.011218315921723844,0.026660699397325516,-0.0023053714539855723
4.128461360931397,-0.9517986178398133,9.717432975769045,0.011879632249474525,0.020543267950415615,-0.008017289452254774
4.206269264221191,-0.7501782178878784,9.73584842681885,0.00302604609169066,0.018395811319351196,-0.0019056248711422088
4.288683891296387,-0.7350578308105469,9.697471618652344,-0.005251075141131878,0.02857343852519989,0.011438212357461454
4.273471832275391,-0.7963107824325562,9.692134857177734,-0.009075771085917951,0.040908798575401306,0.02321492321789265
4.344267368316651,-0.7932308316230775,9.636048316955568,-0.00825475621968508,0.06049373000860214,0.03495905548334122
4.049374580383301,-0.9452922940254213,9.628828048706055,-0.012270883657038214,0.07579560577869415,0.04201983287930489
4.059667110443116,-1.0223402976989746,9.710004806518555,-0.005572112742811442,0.06968114525079729,0.03665182739496231
4.055521011352539,-1.0548608303070068,9.766378402709961,-0.0038557562511414294,0.061793252825737,0.0326664261519909
4.091594219207765,-1.0095888376235964,9.720817565917969,0.0007918578921817244,0.05747504532337189,0.024006683379411697
4.115352153778077,-0.902310848236084,9.73508930206299,0.002043467247858644,0.05252593010663986,0.022702390328049663
4.167076110839844,-0.983622670173645,9.63218879699707,0.00569187616929412,0.05883885547518731,0.023964963853359222
4.116719722747804,-0.9079933166503906,9.712647438049318,0.017201619222760204,0.07278147339820862,0.020085388794541362
4.109735012054444,-0.8517561554908754,9.697683334350586,0.01662052795290947,0.08024459332227708,0.023526983335614208
4.193130016326905,-0.9895018935203553,9.65956211090088,0.019266029819846157,0.09231814742088318,0.02953554876148701
4.173954963684082,-0.9289044737815858,9.756555557250977,0.029379365965723995,0.10670778900384904,0.035065025091171265
4.1879119873046875,-0.8648115992546083,9.775327682495117,0.03198755532503128,0.119161494076252,0.04472798854112625
4.215266704559327,-0.8430739045143129,9.778478622436523,0.030788907781243328,0.12853282690048218,0.056912317872047424
4.037792682647706,-0.8026933670043945,9.60664463043213,0.02680816873908043,0.1412349194288254,0.07410341501235962
3.266640424728394,-1.3085143566131592,9.599551200866701,0.02278127148747444,0.12380529940128326,0.05489620193839074
3.6930687427520756,-1.251371145248413,9.799351692199709,0.031609319150447845,0.08287092298269273,0.0072987014427781105
3.9559803009033203,-0.8741263747215272,9.802228927612305,0.03842734545469284,0.07237864285707475,-0.009169151075184347
4.05705213546753,-0.938323974609375,9.77303218841553,0.030377566814422607,0.07599040120840074,-0.004526050761342049
3.9273509979248047,-0.9689939022064209,9.810791969299318,0.030024930834770203,0.071590855717659,-0.0014179247664287689
4.022493839263917,-1.0893700122833252,9.777382850646974,0.04078365117311478,0.06592813879251481,-0.0035364823415875435
4.042268753051758,-0.982123613357544,9.774962425231935,0.05003814026713372,0.07156157493591309,-0.008828336372971535
3.964543342590332,-0.7924509644508363,9.900640487670898,0.04931711405515671,0.07359772175550462,-0.00422158557921648
3.8702962398529057,-0.8036395311355591,9.969329833984375,0.03665524348616601,0.05657400563359261,0.0030511990189552307
3.838361024856568,-0.8398328423500062,9.974050521850586,0.023196527734398845,0.034477874636650085,0.005052414257079364
3.8560440540313725,-0.8062214851379395,9.944266319274904,0.01144275162369013,0.015391293913125992,0.005257248878479004
3.902104377746582,-0.8414949774742128,9.918986320495607,0.002054793294519186,-0.0014334920560941102,0.007298687472939491
3.8958618640899663,-0.8929406404495239,9.827018737792969,-0.0044906288385391235,-0.008848145604133606,0.006380089092999698
3.811013698577881,-0.9047786593437196,9.850434303283693,-0.006650186143815517,-0.019754661247134212,0.0008040850516408682
3.9379916191101074,-0.8690905570983887,9.830760002136232,-0.011385584250092506,-0.028864273801445964,-0.001209902227856219
3.9820492267608647,-0.8971414566040039,9.824955940246584,-0.010085959918797018,-0.02397735044360161,-0.001136105856858194
3.9257235527038574,-0.8968814611434937,9.815444946289062,-0.01035833824425936,-0.02620445750653744,-0.002106614876538515
3.979498624801636,-0.8673591613769531,9.777228355407717,-0.010491975583136083,-0.023175422102212906,-0.0007008509128354491
3.7502439022064213,-1.0225690603256228,9.762052536010742,-0.010875295847654343,-0.026206063106656078,-0.001554796355776489
3.756076574325562,-0.9954137206077577,9.791190147399904,-0.013456715270876884,-0.04432040080428124,-0.015175903216004372
3.9517734050750737,-0.8785465955734253,9.78223991394043,-0.01678995043039322,-0.054750822484493256,-0.02037770859897137
3.8910691738128667,-0.9606335163116455,9.692436218261719,-0.019272698089480404,-0.05079156905412674,-0.020811306312680248
3.9024033546447754,-1.0084240436553955,9.733450889587404,-0.013133935630321503,-0.05311452224850655,-0.030003352090716365
4.034479141235352,-1.014780640602112,9.73576545715332,-0.004034399054944515,-0.04343074932694436,-0.033240146934986115
3.9512829780578613,-0.8237844705581665,9.800594329833984,-0.003871046239510179,-0.036274243146181114,-0.02834424003958702
3.92926025390625,-0.8345114588737489,9.81637477874756,-0.013377050869166853,-0.042755141854286194,-0.021765517070889476
3.8947055339813237,-0.7996264696121216,9.801607131958008,-0.025879794731736187,-0.049382179975509644,-0.016263645142316818
3.6967339515686035,-0.8948035836219789,9.773231506347656,-0.03822851553559304,-0.06469264626502991,-0.022434042766690258
3.827932357788086,-0.8311809897422792,9.855841636657717,-0.05338319391012192,-0.09472116827964783,-0.025109985843300823
4.012710094451905,-0.8286128640174867,9.833832740783693,-0.06603600829839708,-0.11014637351036072,-0.02076142840087414
3.908900737762451,-0.8847088217735292,9.71990966796875,-0.07610317319631578,-0.11960850656032562,-0.01552637480199337
3.898828744888306,-0.8322672843933105,9.775495529174805,-0.09838109463453294,-0.1376892626285553,-0.009292759932577612
3.9008588790893555,-1.0116136074066162,9.548236846923828,-0.10072311013936998,-0.1431035250425339,-0.014751190319657326
3.3160171508789062,-1.6568615436553955,9.566384315490724,-0.05130361020565033,-0.156713142991066,-0.06467853486537933
3.4760913848876953,-1.6285343170166016,9.808267593383789,0.011606594547629356,-0.20191277563571933,-0.14063082635402682
3.8440806865692143,-1.063673973083496,9.904077529907227,0.04778891056776047,-0.24077172577381137,-0.17884576320648193
3.9665675163269043,-0.6511887907981874,9.939885139465334,0.03472607582807541,-0.27851152420043945,-0.173048809170723
3.777565240859986,-0.8263518810272217,9.858633995056154,0.018216971307992935,-0.3236095607280732,-0.1621236801147461
3.870101690292359,-1.059389352798462,9.674309730529787,0.036830268800258636,-0.3763596117496491,-0.18211181461811068
3.7958784103393555,-1.085864543914795,9.773505210876467,0.05251409113407135,-0.4251441061496735,-0.19631972908973694
3.810563564300537,-0.757660210132599,9.96552848815918,0.06087034568190575,-0.5029665827751161,-0.2190716564655304
3.9602334499359135,-0.7748211622238159,9.924201011657717,0.05607452988624573,-0.5851768851280214,-0.22834628820419312
3.188836812973023,-1.0445423126220703,10.084497451782227,0.06372864544391632,-0.6997217535972596,-0.2642048299312592
3.454518079757691,-0.9749644994735718,10.215943336486818,0.09914317727088928,-0.8539672493934632,-0.30270105600357056
3.4976425170898438,-0.4019981622695923,10.588993072509766,0.08596302568912506,-1.0712120532989502,-0.26873460412025457
3.611521482467652,-0.01304762065410614,10.684496879577638,0.053228568285703666,-1.3383102416992188,-0.1594822853803635
3.296643972396851,-0.41550531983375555,10.532231330871584,0.000677945907227695,-1.6109195947647097,-0.10985932499170305
3.1741645336151127,-0.3807682096958161,10.839823722839357,-0.07514570653438568,-1.9008792638778689,-0.10917861759662628
3.3979601860046387,-0.33349880576133734,10.650130271911623,-0.12311340868473053,-2.2086825370788574,-0.12608112394809726
3.388118267059326,-0.6699531078338623,10.584301948547365,-0.15493488311767578,-2.5129730701446538,-0.17936792969703674
4.005448341369629,-0.46293318271636963,10.450634002685547,-0.16003264486789706,-2.7885594367980957,-0.2571064233779907
4.312040805816651,-0.7552480697631836,10.212447166442873,-0.17882277071475985,-3.0532145500183105,-0.2811656296253205
4.127689361572266,-0.5749827027320863,10.121967315673828,-0.10396622866392137,-3.288005590438843,-0.305214524269104
3.5671701431274414,-2.013012409210205,9.170628547668459,0.17709976434707642,-3.7509863376617436,-0.39424121379852295
3.8642203807830815,-2.8761730194091797,8.819311141967773,0.5908727049827577,-4.3323974609375,-0.55584716796875
5.57115364074707,-2.789822340011597,10.05358409881592,0.8974341154098511,-5.00852918624878,-0.6673706769943237
7.440966129302979,-2.063436985015869,11.664345741271974,0.948931634426117,-5.459139347076417,-0.7090109586715698
10.786808013916016,-1.9521400928497314,13.367223739624023,0.8080406785011293,-5.633671760559082,-0.6460350155830384
14.193721771240234,-3.5291988849639897,14.614522933959961,0.720426082611084,-5.5419888496398935,-0.6713971495628358
18.655399322509766,-3.6696906089782715,14.814564704895021,0.9964248538017274,-5.293233871459961,-0.8706720471382142
26.075956344604496,-1.9473358392715456,14.425189971923828,0.9682294130325317,-4.864132881164551,-1.0971695184707644
28.57229232788086,-2.993440389633179,9.585022926330568,0.9957599639892578,-4.480030536651612,-1.4153382778167725
29.52615547180176,-3.287244558334351,7.01877498626709,1.522467851638794,-4.4652981758117685,-1.8289598226547243
35.88074493408203,-0.7918345928192139,10.303500175476076,1.981964349746704,-3.719279527664185,-1.7797868251800537
30.79605484008789,4.231377601623535,7.0535626411438,1.8511654138565066,-3.1967070102691655,-1.7596330642700195
45.274269104003906,5.162464141845703,21.332128524780277,0.37413233518600464,-2.5698096752166752,-1.8610224723815918
31.078678131103516,-0.5241900086402894,18.586679458618168,-0.6236655116081239,-0.8349447250366211,-1.5820767879486084
20.485305786132812,-1.6621620655059814,11.9019775390625,-1.4611467123031618,-0.5889183282852173,-1.0997325181961062
14.528286933898928,-4.986401081085206,8.599502563476562,-1.627249360084534,-0.9469266533851625,-0.8667930364608765
10.891469955444336,-7.152417182922363,7.436311721801758,-1.1083126068115234,-1.4307945966720583,-0.7469402551651001
10.476432800292969,-7.091256618499757,8.656357765197756,-0.3062529861927033,-1.7778985500335693,-0.6648533344268799
9.823043823242188,-4.795822620391847,11.440269470214844,0.29113164544105535,-1.7339558601379395,-0.5129912495613099
8.820092201232912,-2.3032062053680424,14.184011459350586,0.38668456673622137,-1.2958413362503054,-0.2365446388721466
6.545628547668457,-0.8571293354034424,15.15768051147461,0.163023442029953,-0.5406925082206727,-0.02491872012615204
3.288522720336914,-0.9295336008071899,14.64947032928467,-0.0994521826505661,0.3022997081279755,0.04445060715079308
0.8990297317504883,-1.0893096923828125,13.215729713439943,-0.29555463790893555,1.0967127084732058,0.10403415560722351
-2.827214241027832,-1.8599967956542969,9.464048385620117,-0.17866817116737366,1.7699646949768066,0.09223247319459917
-6.772521495819093,-1.4330695867538454,5.6409406661987305,0.13577750325202942,2.09423041343689,0.009560439735651016
-8.290426254272461,0.19460651278495789,4.626396179199219,0.24240902066230774,2.126598119735718,-0.05835548415780068
-9.155271530151367,0.5567851066589355,4.036232948303223,0.13771706819534302,2.179834127426148,-0.06651262938976288
-9.794518470764162,-0.32931688427925115,4.026278972625733,-0.019790114834904674,2.2583320140838627,-0.054439544677734375
-9.424965858459474,-0.705590009689331,3.9460039138793945,-0.18610249459743503,2.4364261627197266,0.01787744648754597
-10.647362709045412,-0.6530962586402894,2.2648396492004395,-0.32250031828880316,2.632173538208008,0.07226422429084778
-11.138675689697266,-0.27670606970787054,1.007648229598999,-0.542669415473938,2.68115782737732,0.14575761556625366
-10.058944702148438,-0.14411340653896335,1.2171429395675661,-0.8089433908462524,2.7179923057556152,0.25823268294334417
-8.32361698150635,-0.6158431768417358,2.176660299301148,-1.008679509162903,2.8994760513305664,0.3989920914173127
-7.3010101318359375,-1.1306262016296387,1.8702890872955322,-1.0398787260055544,3.2019081115722656,0.5548998117446899
-6.943620681762695,-0.7505206465721131,0.469271183013916,-0.9776504635810853,3.419473648071289,0.7378003001213075
-5.752294540405273,0.19713963568210605,-0.29651063680648804,-1.0100053548812868,3.5085351467132573,0.9915189743041992
-4.04194450378418,0.7133950591087342,-0.40507441759109497,-1.0790140628814697,3.5754139423370366,1.2811455726623535
-2.431008577346802,1.4510862827301025,-0.520075023174286,-1.110948443412781,3.614760398864746,1.5538451671600342
-0.784937083721161,3.255080223083496,-0.9672827124595643,-1.1577177047729492,3.5787284374237065,1.7573230266571045
1.9727782011032107,4.5218777656555185,-1.0479464530944824,-1.273193359375,3.4254069328308105,1.8237236738204958
5.346287727355957,5.019797801971436,-0.15832854807376864,-1.3105595111846924,3.2049863338470463,1.760011911392212
10.691620826721193,5.213427543640137,2.2737877368927006,-1.2464938163757324,3.107429742813111,1.5529881715774538
15.847648620605469,4.042221546173097,4.318212032318116,-1.016481876373291,3.2403662204742436,1.197289228439331
18.582349777221683,3.021514892578125,4.097101211547852,-0.5509654879570008,3.4693610668182377,0.8087435960769653
18.732677459716797,4.007896423339844,1.43613862991333,-0.12262048572301866,3.4483299255371094,0.4889930188655854
18.322652816772464,4.15757703781128,-1.2081767320632937,0.020042872056365017,3.062288284301758,0.2830086946487427
17.831659317016605,3.0352199077606206,-2.0733149051666264,0.07692314684391022,2.445571660995484,0.21569252014160156
17.701339721679688,2.398598432540894,-1.7653025388717654,0.09878138452768327,1.8217529058456423,0.32772719860076904
15.450915336608888,1.6714848279953005,-3.8341515064239506,0.08115236461162567,1.1795629262924197,0.5529431104660034
12.83311653137207,0.7854036092758179,-5.236606597900391,0.08160756528377533,0.28889003396034246,0.861132562160492
11.057044029235842,0.5213475227355957,-5.001812458038331,0.15220537781715393,-0.5718316435813905,1.1955459117889404
8.866250991821289,-0.349909245967865,-4.049659252166749,0.4207181632518769,-1.2286349534988406,1.376493215560913
55.31689071655274,7.5329556465148935,13.00575923919678,-0.036346364766359336,-2.614168643951416,1.1490024328231814
43.91669464111328,17.547777175903324,39.97106170654297,-1.53924834728241,3.315448760986328,0.5230971574783325
7.3881287574768075,-6.805431842803956,5.5559797286987305,-0.27515941858291626,2.2730672359466557,0.21397125720977783
-0.955074667930603,-12.817083358764648,9.995498657226562,-0.05739478021860123,2.9642319679260254,0.5552075505256654
-3.0172474384307866,3.0351037979125977,16.53945350646973,0.1050603836774826,1.996439337730408,-0.06336137652397156
-2.8896038532257085,-9.966672897338867,9.835852622985842,0.35086697340011597,1.6252080202102663,-0.9095842242240907
1.880831241607666,-1.728081822395325,12.899171829223633,0.3619515001773835,0.6422456502914429,-0.5370666384696962
1.317524075508118,7.475821495056152,12.580796241760256,0.19460928440093994,0.0422869548201561,-0.342862755060196
5.115695476531983,1.5437979698181152,10.285955429077148,-0.08015795797109605,-0.27727270126342773,-0.13182227313518527
6.64942502975464,-0.9835541844367982,8.824596405029297,-0.15375736355781555,-0.21694914996623996,0.10144300013780595
6.399758338928223,-2.006168842315674,8.385717391967773,-0.09428335726261139,0.031944375485181815,0.08435980975627899
6.018933296203613,-3.1200377941131596,8.150784492492678,0.04237381741404534,0.25021269917488104,-0.05470055341720581
5.233656406402589,-1.7601194381713867,8.89755153656006,0.1392338424921036,0.42267870903015137,-0.148279145359993
4.618433475494386,0.05508892238140106,9.743631362915039,0.13789698481559753,0.5073369145393373,-0.12109047919511796
4.374846458435059,0.7173446416854858,10.059749603271484,0.025347240269184113,0.44252941012382513,-0.009964875876903534
3.9622340202331543,-0.1574382781982422,9.912740707397461,-0.00911341328173876,0.35372349619865423,0.07234036922454834
3.9351372718811035,-1.3869205713272097,9.953990936279297,0.01045812573283911,0.2591702342033386,0.061872456222772605
3.722792148590088,-1.4676244258880615,10.026504516601562,0.03247674927115441,0.14806511998176575,0.03022916615009308
3.713247776031494,-1.1292515993118288,10.095814704895021,0.03504181653261185,0.03625107184052468,-0.005011283792555332
4.004405975341797,-0.866349458694458,10.001749038696289,0.01780015788972378,-0.05414168164134026,-0.005748167634010315
4.0518765449523935,-0.502565860748291,9.885995864868164,-0.005598360672593117,-0.12724195420742038,0.0014179898425936699
4.084598064422608,-0.6072860956192017,9.849610328674318,-0.03281889855861664,-0.18480880558490756,0.015914602205157283
4.200307846069336,-0.7112390995025635,9.812187194824219,-0.029994903132319454,-0.2357202172279358,0.016606869176030162
4.112370014190675,-0.9974679946899414,9.753267288208008,-0.0343187265098095,-0.28286215662956243,0.002999221906065941
4.138452529907227,-1.14863920211792,9.691227912902834,-0.04397834464907647,-0.33227628469467163,-0.02039090730249882
4.673519134521484,-1.0967410802841189,9.458000183105469,-0.059584081172943115,-0.35150489211082464,-0.036696735769510276
4.877603054046632,-0.9060937166213989,9.27560329437256,-0.057809390127658844,-0.3180586397647858,-0.03317201882600784
4.601559638977051,-0.9428743124008179,9.414706230163576,-0.0690717324614525,-0.30532011389732366,-0.028619982302188873
4.643115520477296,-1.1977789402008057,9.39132308959961,-0.06604444980621338,-0.2972535192966462,-0.0202690027654171
4.835438251495362,-0.8658974766731263,9.417974472045898,-0.06776206195354462,-0.29512998461723333,-0.014908124692738058
4.577191352844238,-0.9477661848068237,9.423254013061523,-0.0626272037625313,-0.28954017162323,-0.0040302383713424214
4.766648292541504,-1.1322304010391238,9.370604515075685,-0.056026328355073936,-0.28702846169471746,-0.011819547042250633
4.667737007141113,-0.8593820929527284,9.271995544433594,-0.0422949492931366,-0.28509882092475897,-0.03352753818035126
4.417898178100586,-1.0169906616210938,9.517535209655763,-0.05115371197462082,-0.29847791790962225,-0.032207723706960685
4.387918949127198,-1.3356819152832031,9.544540405273438,-0.04411793127655984,-0.3434114456176758,-0.042978439480066306
4.461650848388672,-1.2989984750747683,9.213320732116701,-0.036451198160648346,-0.3861340284347534,-0.061465043574571616
4.765811443328858,-1.0702543258666992,9.347903251647951,-0.027983741834759716,-0.41158950328826904,-0.08506453782320024
4.915421962738038,-1.2379614114761355,8.885191917419435,0.017153037711977962,-0.3997076749801636,-0.10694266855716705
4.564194679260254,-1.1225669384002686,9.217408180236818,0.03144000843167306,-0.4170660972595215,-0.1321564167737961
4.101620674133301,-0.9788767695426942,9.532069206237795,0.04249007999897003,-0.496055543422699,-0.1546512991189957
4.3230390548706055,-0.9417798519134521,9.48801898956299,0.048724591732025146,-0.5943194031715394,-0.17751172184944153
4.503763675689698,-0.7762014865875244,9.518617630004883,0.04378768801689148,-0.6982008814811708,-0.17996211349964145
4.228747367858887,-0.8077855110168457,9.707218170166016,0.07383211702108385,-0.8078272342681885,-0.1786461025476456
4.395135879516602,-0.9765878915786743,9.329076766967773,0.09263540804386139,-0.9388492107391357,-0.17214931547641757
4.4214749336242685,-1.154785990715027,9.056819915771484,0.12155777961015703,-1.069655179977417,-0.2106825560331345
4.821424961090089,-0.9591334462165834,9.314646720886232,0.14197252690792087,-1.182018756866455,-0.22766569256782532
5.097345352172852,-0.6341934204101562,9.171098709106445,0.11771513521671295,-1.2594426870346072,-0.24556365609169006
5.138570785522461,-0.9424422979354858,8.57674312591553,0.10422694683074951,-1.346447229385376,-0.26461091637611395
5.58729362487793,-0.24786500632762912,8.889557838439943,0.06625729054212572,-1.431058645248413,-0.26450124382972723
5.306524276733398,-0.3414127826690674,9.065539360046388,0.030871214345097545,-1.4849762916564941,-0.27871936559677124
5.2453627586364755,-1.3669676780700684,9.311285972595217,0.027747614309191707,-1.5493104457855225,-0.30773565173149114
5.877810478210449,-2.169097900390625,8.718665122985842,0.21413305401802063,-1.598637580871582,-0.37055626511573797
6.128917694091797,-0.9041123390197754,8.956991195678711,0.274492084980011,-1.6354483366012575,-0.42244964838027954
6.494487285614015,-0.8968183994293213,8.39588260650635,0.29002621769905096,-1.6500000953674316,-0.4352923631668091
6.789517402648926,0.030220255255699158,8.358222007751467,0.284612774848938,-1.6395286321640017,-0.38622695207595825
6.4540371894836435,0.10201296210289001,8.357162475585938,0.27807313203811646,-1.6560359001159668,-0.3090582191944123
5.933140754699707,-0.3620224595069885,8.834918022155763,0.2861289381980896,-1.7642210721969607,-0.28974807262420654
5.369046688079835,-1.4475839138031006,8.417083740234375,0.39186462759971624,-1.9847424030303955,-0.3463705778121948
5.689665317535401,-1.5818543434143066,8.488418579101562,0.48633179068565374,-2.286689281463623,-0.44627532362937933
5.529348373413086,-1.777574062347412,8.336682319641115,0.5837175846099854,-2.6633458137512207,-0.5726904273033143
6.0338406562805185,-1.6285911798477175,8.187144279479982,0.6833348870277406,-3.0779175758361816,-0.6721662878990174
6.2261247634887695,-0.9308916926383973,8.091562271118164,0.8045403957366943,-3.536080121994019,-0.7323933243751527
6.691291809082031,-0.21735358238220215,8.055704116821289,0.858295500278473,-4.084115028381348,-0.7451478838920594
7.435671806335449,1.487668514251709,8.338647842407227,0.8228914141654969,-4.660847187042237,-0.6684582233428955
9.940980911254883,2.226629495620728,9.215445518493654,0.6901032328605653,-5.130990028381348,-0.4103072583675385
9.483253479003906,2.8787138462066655,9.694480895996094,0.4749330580234528,-5.405533790588379,0.04495576024055481
12.091557502746584,2.8409042358398438,10.892200469970703,0.2643285393714905,-5.279840946197511,0.2767278552055359
14.171229362487795,0.39348119497299194,10.387434005737305,0.17474836111068726,-4.694326400756836,0.3211222589015961
18.941802978515625,-1.2737655639648438,9.735119819641115,0.2805843949317932,-4.159151554107667,0.2436334490776062
25.71370124816895,-1.4959371089935303,10.675935745239258,-0.1310030221939087,-3.474059343338013,0.4604009091854096
22.795972824096683,-0.13022132217884066,7.393033504486085,-0.7947561740875244,-2.587960481643677,0.5157660245895386
19.14587211608887,-0.8456180691719056,2.3875374794006348,-1.2224327325820925,-2.1556417942047124,0.20053017139434814
18.52724838256836,-3.659596681594849,-2.0951678752899174,-0.6243259906768799,-2.38664984703064,-0.5452373027801514
18.40078353881836,-4.16148567199707,-4.598888397216797,0.6079953908920288,-2.882239103317261,-1.3635877370834353
17.993331909179688,-4.056605815887452,-4.8470869064331055,2.1591775417327885,-3.817495822906494,-2.3324000835418706
20.059972763061527,1.0792628526687624,-2.79777193069458,3.0889015197753906,-5.039986610412598,-2.972457647323609
32.49678039550781,6.207046985626222,8.83338260650635,2.763740062713623,-5.294249057769776,-3.2711386680603027
26.69080352783203,6.785366058349609,11.075214385986328,1.5115801095962527,-4.372587203979492,-3.1847734451293945
24.700399398803714,5.294885635375977,11.463816642761232,-0.038867603987455375,-3.685227394104004,-3.0633127689361577
21.336017608642578,1.26585054397583,10.934483528137209,-0.8878457546234131,-2.994992256164551,-3.1236832141876225
17.14061546325684,-2.2518546581268315,9.661853790283203,-1.1439863443374636,-2.543302059173584,-3.20034670829773
14.03374767303467,-5.938970088958741,9.315175056457521,-0.715363919734955,-2.2606749534606934,-3.2578539848327637
11.670569419860842,-7.676395416259766,9.992316246032717,0.1537891924381256,-2.0298469066619877,-3.182508945465088
10.688599586486818,-7.075727939605714,11.658287048339844,0.9626277089118959,-1.6612817049026491,-2.953800678253174
8.90572261810303,-5.3460097312927255,12.812344551086428,1.4115573167800906,-1.0345525741577148,-2.633290529251099
6.277092456817628,-3.5583534240722656,13.632973670959474,1.3780677318572998,-0.27707853913307195,-2.2081234455108647
4.494126796722413,-1.6994209289550781,14.645518302917482,0.8425887823104858,0.5276028513908387,-1.6834959983825684
1.9893647432327273,-1.8930102586746218,13.882361412048342,0.06508909910917283,1.3453074693679812,-1.1305677890777588
-1.1842105388641357,-3.0522177219390874,12.421360969543459,-0.4957672357559204,1.95724093914032,-0.7144074440002441
-3.8586361408233647,-4.438899517059327,10.318347930908203,-0.7158894538879395,2.403265714645386,-0.4737041890621186
-5.60125732421875,-4.75131893157959,8.511772155761719,-0.6803100705146791,2.6198315620422363,-0.3364682495594025
-6.186031341552734,-4.11167049407959,7.483380794525147,-0.6577662229537964,2.676852226257324,-0.13205872476100924
-5.887813091278077,-3.41660213470459,7.228414058685304,-0.7328626513481141,2.720128059387207,0.14945502579212191
-5.756225109100343,-3.6020164489746094,7.059971809387207,-0.8524919152259828,2.8195700645446777,0.43512868881225586
-5.978428840637207,-3.50296425819397,7.186847209930421,-0.8841290473937988,2.9120037555694585,0.6821362972259521
-5.350969314575195,-2.3745911121368413,7.96619749069214,-0.9845619797706605,3.025913000106812,0.9064229726791382
-4.666197299957276,-1.2349826097488406,8.471776962280273,-1.2328834533691406,3.253026723861695,1.0904459953308105
-4.260808944702148,-0.3550759553909302,8.629520416259766,-1.5400404930114746,3.5140035152435307,1.2031718492507937
-3.7383291721344,0.13809722661972046,8.401614189147951,-1.8398830890655518,3.768429040908814,1.261690616607666
-2.979596853256226,0.5280292630195619,8.298262596130373,-2.0847392082214355,3.990993022918701,1.277102828025818
-1.800227761268616,0.7634100914001465,8.61491584777832,-2.255574464797974,4.213238716125488,1.2629250288009646
-0.23021963238716125,1.215165138244629,9.390584945678711,-2.383561611175537,4.485984325408936,1.2125753164291384
1.1692692041397097,1.8202908039093018,10.149574279785156,-2.52097225189209,4.842032909393311,1.1345269680023193
1.638427495956421,2.2482352256774902,9.932774543762209,-2.651226043701172,5.217686653137207,1.0056754350662234
1.31329619884491,2.9255309104919434,9.135225296020508,-2.8167524337768555,5.452763080596925,0.8393495082855225
1.740244507789612,4.466470241546632,9.067435264587404,-3.0933182239532475,5.52269172668457,0.6570571660995483
2.754549503326416,6.406242847442628,9.69478988647461,-3.529767274856568,5.533373832702637,0.41215762495994573
4.466177463531495,8.076067924499513,10.611024856567383,-4.079583168029785,5.558406829833984,0.02179101295769215
5.95533323287964,8.865567207336428,10.936129570007326,-4.5732011795043945,5.5916762351989755,-0.5666922330856323
6.668374061584473,9.197680473327638,10.559203147888185,-4.89948844909668,5.512898921966554,-1.3125418424606325
7.54939889907837,10.038558006286623,10.45232677459717,-5.144067764282227,5.2129788398742685,-2.103773593902588
10.012209892272951,11.29441547393799,11.58163356781006,-5.525249004364015,4.769156932830811,-2.818328380584717
13.832744598388672,11.541522979736328,13.772409439086914,-6.052485466003418,4.406544208526612,-3.428389072418213
17.58684349060059,10.814524650573732,15.617782592773438,-6.513412952423097,4.2509918212890625,-3.9058871269226074
19.773317337036136,8.629072189331055,14.890798568725586,-6.697550296783448,4.1801042556762695,-4.153824329376222
19.673902511596683,7.559776782989503,12.575619697570803,-6.598329544067383,3.8713207244873047,-4.089916706085206
18.641637802124027,9.31972885131836,10.059680938720703,-6.507349014282227,3.233296155929566,-3.740792751312256
18.00180435180664,12.27914810180664,8.770090103149414,-6.595280647277832,2.4463965892791752,-3.232807874679566
17.020814895629886,15.122908592224123,8.364459991455078,-6.576833248138429,1.7396876811981201,-2.7585961818695073
14.740388870239258,17.90013694763184,7.8945722579956055,-6.225245952606202,1.193219304084778,-2.266265392303467
13.12452507019043,15.483681678771974,7.364025592803956,-5.333160400390625,0.7565374970436097,-1.7116491794586182
16.96495819091797,8.012042045593263,9.289309501647951,-3.4143378734588627,0.4706612229347229,-1.2386021614074707
19.732305526733402,6.115194320678711,9.45285415649414,-1.026795029640198,0.6745214462280273,-0.8795021176338197
17.399599075317386,10.113182067871094,4.646251678466797,0.29513734579086304,0.9743863344192505,-0.5245091319084169
16.220445632934574,-1.3576719760894775,-4.293017387390137,2.2602722644805913,0.4968380331993103,-0.38487026095390325
12.770269393920898,14.841644287109375,-7.579744815826417,4.654208183288574,-0.4127523005008698,-1.1458953619003298
7.892250537872315,7.879558086395265,13.62224864959717,4.542480945587159,-0.041974328458309174,-0.9410167336463929
7.651450157165527,-3.266516447067261,29.078659057617188,3.5292284488677983,0.48019966483116155,-0.6065510511398315
-0.11266663670539856,-1.419417142868042,12.476365089416506,2.0584394931793217,0.3657088279724121,-0.9809333682060243
0.25921580195426946,-8.070502281188967,4.861242294311523,2.3638415336608887,-0.9459552168846131,-1.031248211860657
14.628841400146484,9.395201683044435,20.424448013305668,1.5517860651016238,-1.1602392196655273,-0.3387801945209504
7.336393356323242,15.546608924865724,14.162922859191896,1.030681848526001,0.03152689337730408,-0.24112845957279208
-0.3942776918411255,7.161257266998292,10.288423538208008,0.40476489067077637,-0.16925908625125888,-0.18559876084327698
3.3739159107208256,0.18090254068374634,11.235437393188477,0.22631995379924777,-0.39548736810684204,-0.25651025772094727
4.285797119140625,-0.5219742059707642,10.17952632904053,0.07791728526353837,-0.37941473722457886,-0.19757799804210666
4.284521102905273,2.160727024078369,10.77377700805664,0.0018024049932137134,-0.351434201002121,-0.17314499616622925
4.507197856903077,-1.2678368091583252,10.219662666320803,-0.01653006300330162,-0.25262841582298284,-0.19421863555908203
5.07871150970459,-2.6400790214538574,9.990959167480469,0.054579455405473716,-0.22196564078330994,-0.16344216465950012
4.966942310333253,-0.4038964509963989,10.126287460327148,0.09249939769506456,-0.12908759713172913,-0.1266073137521744
4.485853672027589,-1.2233810424804688,9.949372291564943,0.08079610764980316,-0.06923307478427887,-0.09200551360845567
4.3296875953674325,-1.7763541936874392,9.84431552886963,0.09644171595573425,-0.046091500669717796,-0.07566244900226593
4.01979684829712,-1.417814016342163,9.831759452819826,0.1094062700867653,-0.0586806982755661,-0.07069087028503418
4.146982192993164,-1.0011068582534792,10.026185989379883,0.09408850222826005,-0.07168272137641907,-0.06255919486284257
4.261713981628418,-0.2563292384147644,10.209915161132812,0.056025069206953056,-0.06530510634183885,-0.0348026379942894
4.12886667251587,-0.11384626477956773,10.11020278930664,0.0023332349956035614,-0.0641228035092354,-0.003293486312031746
3.8634412288665776,-0.3233437836170197,9.939099311828615,-0.050391864031553275,-0.07772539556026459,0.021686065942049026
3.7542037963867188,-0.37116581201553345,9.982990264892578,-0.10995444655418396,-0.11745221167802812,0.0338468998670578
3.955450773239136,-0.4969099164009094,10.004274368286133,-0.15822322666645053,-0.1491736322641373,0.035627640783786774
4.170856952667237,-0.6022842526435853,9.909917831420898,-0.1876966655254364,-0.16058008372783664,0.043604686856269836
4.318531513214112,-0.8631124496459961,9.803731918334961,-0.20587472617626193,-0.15259873867034912,0.057176314294338226
4.077343463897706,-1.2065986394882204,9.567838668823242,-0.2081180214881897,-0.14279536902904513,0.06990782916545868
3.928081512451172,-1.3856729269027712,9.594048500061037,-0.20312979817390442,-0.15721014142036438,0.058366809040308006
4.042057037353516,-1.5110312700271609,9.581128120422365,-0.18665575981140137,-0.17535813152790072,0.04044473171234131
4.155979156494141,-1.5829718112945557,9.480064392089844,-0.16158315539360046,-0.1716847270727158,0.02994518540799618
3.8338780403137207,-1.7895463705062868,9.400918006896974,-0.1338344365358353,-0.175899475812912,0.015256055630743505
3.8721060752868652,-1.840332269668579,9.427223205566406,-0.10687416046857835,-0.20418243110179904,-0.009289931505918503
4.278707504272461,-1.3944506645202637,9.634661674499513,-0.08028041571378709,-0.21838638186454773,-0.02397645451128483
4.2114930152893075,-1.3002996444702148,9.548614501953125,-0.06743331253528595,-0.20574747025966647,-0.027086896821856502
4.08494758605957,-1.021417021751404,9.587645530700685,-0.05439574271440506,-0.21460078656673434,-0.038272544741630554
4.260710716247559,-1.121692419052124,9.57945442199707,-0.056531470268964774,-0.21294753253459933,-0.05069659650325775
3.988788604736328,-1.1666920185089111,9.65746593475342,-0.06313930451869965,-0.22450767457485202,-0.052678823471069336
3.951985120773316,-1.2696118354797363,9.750153541564943,-0.07240688055753709,-0.2671363353729248,-0.06222132593393326
4.098135948181152,-1.2670912742614746,9.789403915405273,-0.07802251726388933,-0.3094221353530884,-0.07860849052667619
3.9861500263214116,-1.0179041624069216,9.704486846923828,-0.08989121764898302,-0.3389637768268586,-0.09858033061027527
3.8553991317749023,-1.3907326459884646,9.605818748474123,-0.09833618998527527,-0.3980447947978974,-0.13594552874565125
4.234076976776124,-0.9975862503051758,9.908170700073242,-0.11657706648111345,-0.4522607922554016,-0.1681138277053833
4.709303379058839,-0.9598889350891113,9.648612976074219,-0.13910605013370517,-0.468339204788208,-0.1749905496835709
4.321010112762452,-0.7292490601539613,9.621173858642578,-0.18129040300846103,-0.4857222139835358,-0.17273250222206116
4.526830673217773,-0.8820136189460756,9.657808303833008,-0.20875225961208346,-0.5332465171813965,-0.15721870958805087
4.425102233886719,-0.9625055193901063,9.755374908447266,-0.24664278328418734,-0.5959955453872681,-0.159475177526474
4.24483585357666,-1.1803374290466309,9.367717742919922,-0.27559724450111395,-0.6721553802490234,-0.16772402822971347
4.060282230377198,-1.5237534046173096,9.493947029113771,-0.23612965643405917,-0.7697944045066835,-0.2118481695652008
4.411480426788331,-0.9942707419395448,9.75376605987549,-0.2857689559459687,-0.8603708744049072,-0.19992376863956454
4.366510391235352,-0.7562507987022401,9.743764877319336,-0.34346145391464233,-0.9843273758888246,-0.14557419717311862
3.995827436447144,-0.5425856113433838,9.97236728668213,-0.40793299674987793,-1.141358017921448,-0.08720310032367706
3.816330194473267,-0.8440193533897401,10.010643005371094,-0.4794886112213135,-1.3528308868408203,-0.06690531224012376
3.150790929794312,-0.9480514526367188,10.092875480651857,-0.5161163806915283,-1.6262580156326296,-0.0777951031923294
3.0046939849853516,-0.8801127672195435,10.147806167602539,-0.5455987453460693,-1.9436005353927615,-0.10860889405012132
3.307989835739136,-0.9708737134933472,10.138209342956545,-0.5732056498527528,-2.3160037994384766,-0.14685495197772983
3.6357376575469975,-1.1286237239837646,9.873906135559084,-0.5913705229759217,-2.6875584125518803,-0.17716452479362488
3.742579936981201,-0.9329740405082704,9.978063583374023,-0.581088662147522,-3.122522592544556,-0.17242074012756348
2.8629908561706543,-1.4037955999374392,9.84895992279053,-0.5521397590637207,-3.671648263931275,-0.2408939749002457
3.1788661479949956,-1.741408109664917,10.588396072387695,-0.43666863441467285,-4.346094608306886,-0.3133668899536133
2.9426956176757812,-1.7043299674987793,11.046675682067873,-0.3783033192157746,-5.162999629974366,-0.34475886821746826
2.886349439620972,-1.7390639781951904,11.690706253051758,-0.37390109896659857,-6.1635589599609375,-0.33004346489906317
4.034688472747804,-2.1681671142578125,13.974363327026367,-0.5021114349365234,-7.359892368316651,-0.2782104909420014
7.878969192504883,-3.3846485614776616,18.1244068145752,-0.895489275455475,-8.85205078125,0.14984904229640963
11.395606994628906,-1.5420565605163574,19.666395187377933,-1.5324946641922,-9.632330894470217,0.0468948632478714
22.101818084716797,-2.765603303909302,23.982975006103516,-2.42220950126648,-9.717695236206055,-0.32386586070060736
30.503429412841797,-6.3126373291015625,26.687566757202152,-2.948899745941162,-9.216279029846193,-0.816835105419159
29.49942398071289,-5.8493547439575195,26.29962158203125,-3.643496513366699,-8.349677085876467,-1.1512279510498047
32.803611755371094,-6.818332672119141,24.008375167846683,-5.258007526397706,-7.64454221725464,-0.7345116138458252
26.805692672729496,-1.9431024789810183,27.533100128173828,-7.73027229309082,-5.488358974456788,0.10263556241989136
18.97227287292481,-10.377711296081545,23.746305465698246,-8.746487617492678,-2.904268741607666,0.09860607981681824
31.479705810546875,-21.915163040161136,24.17041778564453,-5.236010551452637,-0.29520407319068914,-1.8382961750030518
22.296213150024418,-24.540592193603516,29.378519058227543,-0.9221585392951966,3.3854916095733647,-1.9016633033752441
3.492462635040283,-9.161548614501953,14.110911369323732,1.2279767990112305,4.2718777656555185,-1.8125133514404297
-0.3632888495922089,1.051222324371338,6.790308952331543,1.763132691383362,4.291669845581055,-2.1095757484436035
-0.7547622919082642,8.055013656616211,5.631614208221436,0.7135844230651855,4.204278469085694,-2.2414493560791016
0.18902787566184998,7.731125831604004,5.595271587371827,-1.0014897584915163,4.280886173248292,-2.136838436126709
0.2278803288936615,1.9286900758743288,4.330961704254151,-1.869875192642212,4.678694248199464,-2.0639004707336426
-1.070068597793579,-2.9882116317749023,2.6508989334106445,-1.532979965209961,5.056222438812257,-1.9818664789199831
-3.2311637401580815,-2.811244010925293,0.3683925271034241,-0.7289463877677919,5.106280326843262,-1.847602963447571
-4.054609775543214,1.050329089164734,-0.2169066518545151,-0.39774811267852783,4.95338249206543,-1.6246525049209597
-3.099962949752808,3.4318337440490723,0.3962560296058655,-0.822555661201477,4.8580336570739755,-1.2616066932678223
-2.538151025772095,1.9156724214553835,0.7460151314735414,-1.361783742904663,4.904057025909425,-0.8651202321052552
-2.3601634502410893,-0.7319060564041138,0.772980809211731,-1.4571579694747927,4.947593688964844,-0.47368487715721136
-2.009427070617676,-0.1002524420619011,1.197681188583374,-1.2690526247024538,4.9518399238586435,-0.08621668815612793
-0.5424321293830873,2.0479841232299805,2.3905799388885502,-1.3249971866607666,4.9721741676330575,0.27441519498825073
0.27661508321762085,2.7432641983032227,2.3259513378143315,-1.4987030029296875,5.112009525299073,0.5295154452323915
1.0059592723846436,2.9276123046875,2.099184036254883,-1.5807281732559206,5.195249557495117,0.6097900271415712
3.514224052429199,3.5505812168121342,1.9676829576492312,-1.5533902645111084,5.2785444259643555,0.5524488091468812
5.770707130432129,3.8562917709350586,0.5503400564193726,-1.4675266742706299,5.384631633758546,0.3914945125579834
6.679938793182374,4.1480469703674325,-1.6064579486846924,-1.3756269216537478,5.326020240783691,0.2515648603439331
8.011054039001467,4.755543231964112,-2.3838946819305424,-1.2533812522888184,5.044514179229737,0.15733438730239868
10.914838790893555,5.494004249572754,-3.030078887939453,-1.2232054471969607,4.664371013641358,0.1572408378124237
13.939778327941896,4.713160991668702,-3.7428419589996342,-1.0512534379959109,4.185334205627441,0.13857571780681613
16.42571258544922,3.490334987640381,-4.559550762176515,-0.6614988446235658,3.543476104736328,0.13974961638450623
19.46579170227051,3.16217041015625,-4.126134872436523,-0.10709002614021301,2.7563388347625737,0.17660030722618103
23.183588027954105,4.022132873535156,-2.5613255500793457,0.3287555277347565,2.034423112869263,0.27218425273895264
25.23720932006836,4.600651741027832,-2.2786865234375,0.5582557916641235,1.4739309549331667,0.36261290311813354
24.294605255126953,4.139435291290284,-3.675744771957398,0.752673864364624,0.9479640126228334,0.41837564110755926
20.064109802246094,3.4984006881713867,-7.899904727935792,1.0628633499145508,0.31094220280647283,0.4112037420272827
12.509315490722656,3.2482135295867924,-12.13194465637207,1.2813596725463867,-0.7959131002426147,0.4225814640522004
19.987598419189453,5.358530044555664,-12.595835685729982,1.1927727460861208,-2.217200756072998,0.6375510096549989
117.53365325927736,32.26849365234375,67.0347366333008,-1.901109218597412,-2.6602714061737065,0.4340684115886689
-12.583912849426271,6.149335861206055,-21.750885009765625,0.2632746696472168,2.8788993358612065,-1.122474193572998
10.368856430053711,0.8618646264076234,20.577711105346683,0.048385839909315116,1.3656069040298464,0.35326987504959106
-14.10090446472168,-1.160719394683838,8.19166374206543,0.14459200203418734,0.4401141405105591,0.2222465127706528
2.6546730995178223,-2.1388931274414062,15.967942237854006,-0.15534298121929171,0.03156159818172455,-0.564068078994751
6.139183044433594,-12.344661712646484,10.104591369628906,0.10951980948448181,-0.357005923986435,-0.6430636644363403
5.2139739990234375,7.42906379699707,9.225142478942873,0.3158561289310456,-0.2900549471378327,-0.7022527456283569
8.306600570678711,0.8016716837882997,8.59096908569336,0.1658207029104233,-0.06832878291606903,-0.568612039089203
7.222614288330078,2.2501325607299805,9.216463088989258,0.089080810546875,0.14381201565265658,-0.18572904169559482
4.713988304138184,0.9690041542053223,9.96134662628174,-0.06349638104438782,0.21460698544979098,0.009239820763468742
4.098647117614746,-1.676931977272034,10.073086738586428,-0.07421802729368211,0.13003586232662204,0.007915336638689041
4.404612064361573,-1.0959813594818115,9.983975410461428,-0.05500131472945214,0.028964105993509293,-0.04368807747960091
4.583219051361085,0.4538436532020569,9.989199638366701,-0.11020963639020921,-0.03425046056509018,-0.004677590914070606
4.308921337127686,0.1651209741830826,10.074542999267578,-0.1628030985593796,-0.08758315443992615,0.06656972318887712
4.197783946990968,-0.497927725315094,10.135244369506836,-0.1735420525074005,-0.16557738184928894,0.1040063574910164
3.845919609069824,-1.2794015407562256,10.031695365905763,-0.15001396834850314,-0.2757667899131775,0.057815965265035636
3.8677399158477788,-0.8711000084877015,10.169573783874513,-0.13703855872154236,-0.4008473455905915,0.005513509269803763
4.2562270164489755,-0.6365857720375062,9.99943256378174,-0.1690599173307419,-0.5174918174743652,-0.03467930480837823
4.698423385620117,-1.0209423303604128,9.490952491760256,-0.18173572421073914,-0.5706108808517456,-0.05923945084214211
4.760157108306886,-1.1407591104507449,9.265381813049318,-0.16880261898040771,-0.5804086327552797,-0.06547129154205322
4.7469282150268555,-1.2599018812179568,9.516835212707521,-0.1559049338102341,-0.5813759565353394,-0.0659734308719635
4.4830946922302255,-1.1286590099334717,9.564167022705078,-0.15403793752193454,-0.5912306308746338,-0.11713876575231554
4.602984905242921,-1.8476927280426025,9.209123611450195,-0.10889454185962677,-0.639123797416687,-0.12770749628543857
4.637788772583008,-0.6064428091049194,9.634099006652834,-0.12053977698087694,-0.6992509365081787,-0.10103673487901689
4.711408615112305,-0.6044642925262451,9.583488464355469,-0.11708766967058183,-0.7834113836288452,-0.06172603368759155
4.52365779876709,-0.7914695739746094,9.270546913146974,-0.12131036818027496,-0.8491802811622621,-0.02101297304034233
4.54632568359375,-0.8429778218269349,9.320964813232422,-0.1236417517066002,-0.9250349402427674,0.00026097334921360016
4.594173431396484,-1.0444632768630984,9.282788276672365,-0.12909729778766635,-1.0262560844421387,-0.01592034660279751
4.707278728485108,-0.5781677365303041,8.968029022216797,-0.1671593189239502,-1.1254390478134157,-0.018995953723788265
4.725323677062988,-0.4379459619522095,9.602947235107422,-0.2318883985280991,-1.2026076316833496,-0.0008178670541383327
4.64563798904419,-1.1509679555892947,9.168251991271974,-0.21669147908687594,-1.291720271110535,-0.044418029487133026
5.192199230194093,-2.219792366027832,8.738741874694826,-0.10317290574312211,-1.3234257698059082,-0.10764452069997789
5.2317962646484375,-1.132540583610535,8.48751449584961,-0.036588333547115326,-1.3997687101364138,-0.17841826379299167
5.859914779663086,-1.1299307346343994,8.32969379425049,-0.030634012073278427,-1.3576909303665163,-0.22112268209457397
6.003134727478027,-1.266359806060791,7.991287708282472,0.01960292644798756,-1.3274546861648562,-0.23257240653038025
6.012943744659425,-1.1729440689086914,8.246756553649904,0.04749252647161484,-1.2934776544570925,-0.27639639377593994
6.007990360260011,-1.360769867897034,8.082205772399904,0.08803775906562805,-1.2799204587936404,-0.30837026238441473
5.893906593322754,-1.741868257522583,8.169492721557617,0.13868461549282077,-1.2824418544769287,-0.355724185705185
5.823002338409425,-1.4102394580841064,8.01261615753174,0.21104338765144348,-1.3065214157104492,-0.4178535640239716
6.9746718406677255,-0.8713825345039369,8.239137649536133,0.22005882859230042,-1.3436299562454226,-0.42670702934265137
5.681700229644776,-0.839979887008667,8.34986686706543,0.20535153150558472,-1.4452012777328493,-0.4102542698383332
5.7035322189331055,-0.15389767289161682,9.010295867919922,0.20414347946643832,-1.6686773300170898,-0.4032896459102631
5.970004081726074,-0.5256409645080566,9.076086044311523,0.2336502969264984,-1.8899967670440674,-0.42187747359275823
5.854514122009277,-0.43456664681434637,8.576244354248047,0.26945134997367864,-2.1525931358337402,-0.42723718285560613
6.369598388671875,0.1104402244091034,8.34099006652832,0.2707683742046357,-2.454533576965332,-0.403653621673584
6.107971668243409,-0.05405940115451813,7.953067779541016,0.256608933210373,-2.787327289581299,-0.3694784343242646
6.137922763824464,0.3688036501407624,8.007883071899414,0.2356615662574768,-3.226205825805664,-0.3401493132114411
6.648141860961914,-0.1729487627744675,7.989351749420167,0.18747016787528992,-3.717289209365845,-0.3170437812805176
7.493135929107667,-0.24872957170009616,8.570954322814943,0.1477288007736206,-4.21736764907837,-0.2669129669666291
8.954112052917482,-0.5077311992645264,8.996679306030273,0.11517732590436937,-4.724785804748535,0.0014451296301558616
8.998401641845703,0.48147839307785034,10.317564010620117,-0.01147167757153511,-5.115597724914551,0.18047510087490085
11.027965545654297,0.30077505111694336,12.2887659072876,-0.2315957993268967,-5.200075149536133,0.22414897382259372
13.854937553405763,-0.9736117124557495,11.264100074768068,-0.5115815997123719,-4.944827079772949,0.14626559615135193
18.850648880004886,-1.0757553577423096,10.651233673095703,-0.8790901899337769,-4.581688404083253,0.03721976280212402
24.313579559326172,-1.7763442993164062,9.459419250488281,-1.6800973415374756,-4.227075576782227,0.09789689630270006
31.505168914794922,-3.0319731235504155,10.674294471740724,-2.5080018043518066,-3.2939193248748784,-0.1410779058933258
31.770492553710938,-5.875612735748292,1.381115436553955,-2.0075008869171147,-1.8747529983520508,-1.3075578212738037
32.77107238769531,-1.2986698150634766,-1.3495426177978516,-0.6999197006225586,-1.806861758232117,-2.390542984008789
35.786762237548835,1.5496188402175906,-1.1667165756225586,-0.04177737236022949,-1.6094777584075928,-3.1397583484649663
36.33622741699219,-0.5475018620491029,0.35603764653205877,0.31823006272315985,-1.9695243835449219,-3.3642466068267827
45.38777160644531,-3.104663848876953,15.252967834472656,0.5569369792938232,-1.4655729532241824,-3.117420911788941
28.309946060180668,-4.842807769775391,11.256497383117678,0.6762525439262391,-0.4509367346763611,-2.4609844684600835
20.85906219482422,-4.189966678619386,8.684184074401857,0.655438005924225,-0.7849599719047547,-1.80198335647583
17.517765045166016,-3.8693306446075444,10.522824287414553,0.7412332892417909,-1.0105969905853271,-1.4691649675369265
13.078526496887209,-3.6164193153381348,11.762457847595217,0.6430752277374268,-1.0593656301498415,-1.1463862657547
10.856455802917482,-3.3046417236328125,13.351194381713867,0.6958143115043641,-0.831045389175415,-1.0089272260665896
6.36015510559082,-3.397709846496582,13.61598300933838,0.8171932101249696,-0.47548136115074163,-0.9837721586227417
2.5247032642364506,-3.307786464691162,13.425351142883303,0.8936599493026733,0.04819272831082345,-0.9172816276550293
-1.0669330358505251,-3.210948944091797,12.611701965332031,0.9995385408401489,0.5810378193855287,-0.9175484776496888
-4.210013389587402,-3.254171371459961,11.621768951416016,0.9983747005462646,1.0133854150772097,-0.8635010719299316
-4.9328107833862305,-3.4685750007629395,11.758315086364748,0.9030134677886963,1.4266400337219238,-0.6931836009025575
-5.15438175201416,-3.9410774707794194,11.134388923645021,0.7605749964714051,2.010415554046631,-0.4248782098293305
-8.400365829467773,-4.808734893798828,7.962689876556397,0.7491772770881654,2.4920125007629395,-0.17174813151359558
-11.469520568847656,-4.50502872467041,4.635673046112061,0.7701022624969482,2.5488617420196538,0.05980374664068222
-13.051653861999513,-3.366185188293457,2.2646732330322266,0.5900262594223022,2.3507657051086426,0.33156064152717596
-12.682906150817873,-2.3144454956054688,1.7281951904296875,0.15342161059379578,2.1070086956024174,0.6796677112579346
-11.77335834503174,-2.8068313598632812,2.1199188232421875,-0.3735391199588776,1.9581525325775146,1.1577341556549072
-9.980040550231935,-4.090537071228027,3.15796446800232,-0.6915380954742432,1.9699131250381472,1.6675045490264893
-7.990023612976074,-4.291399955749512,4.1784563064575195,-0.7425676584243774,2.2081031799316406,2.1348292827606206
-7.049550533294679,-3.468719005584717,4.311777114868164,-0.6283507943153382,2.586520195007324,2.4932868480682377
-6.274802684783936,-2.351464986801148,4.02202033996582,-0.4769934713840485,2.959993839263916,2.706503391265869
-5.28737497329712,-1.3109543323516846,3.3235728740692143,-0.2463224679231644,3.311324119567871,2.7479975223541264
-4.702541351318359,0.3543297052383423,2.4937021732330327,-0.005583700258284808,3.5888035297393803,2.6461596488952637
-3.3527297973632812,2.662947177886963,2.0578801631927495,-0.004320807754993439,3.754177808761597,2.472506523132324
-1.1706647872924805,4.257331848144531,2.235398292541504,-0.3015398383140564,3.9187057018280034,2.2288348674774174
1.3766559362411501,4.471098423004151,2.407418727874756,-0.6721289157867432,4.122029781341554,1.9178214073181152
3.9803297519683842,3.5733287334442143,1.9582983255386355,-0.9710982441902162,4.254480838775636,1.6217992305755615
7.128971576690675,1.8629863262176514,1.3881078958511355,-1.195294499397278,4.293240547180176,1.5112541913986208
10.706685066223146,-0.741178333759308,0.09077432751655579,-1.2486484050750732,4.268717288970948,1.6362079381942751
14.164987564086914,-2.6973118782043457,-1.5186080932617188,-1.1179993152618408,4.082300662994386,1.9939956665039062
17.619703292846683,-3.6832075119018555,-3.213618755340576,-1.020939588546753,3.7369441986083984,2.5439317226409917
20.10873031616211,-4.646874904632569,-5.839492321014405,-0.8970689177513124,3.215386390686035,3.090220212936402
17.980594635009766,-3.209469079971314,-11.09230136871338,-0.7656589150428773,2.3466668128967285,3.4755606651306152
14.80308246612549,-1.2136365175247195,-13.197092056274414,-1.076162934303284,0.9708971977233887,3.713000059127808
16.03627967834473,-2.41451907157898,-12.121545791625977,-1.3967092037200928,-0.3469259738922119,3.894532918930054
66.05680847167969,15.426168441772461,-3.944000720977783,1.8251607418060303,-0.9406501650810243,-1.0492088794708252
69.17589569091798,17.907632827758793,20.664213180541996,1.5076658725738525,0.6904767155647279,-3.3902075290679936
12.208553314208984,-26.369487762451172,-4.349628925323487,1.0893781185150146,3.5903441905975346,-0.6437939405441284
9.381640434265138,3.955717086791992,24.875701904296875,1.8727737665176394,3.0124304294586186,0.06751199066638947
-7.229053497314453,14.05552387237549,17.96719551086426,0.5911139845848085,3.635225296020508,-0.8053061366081239
2.986063003540039,-15.225499153137209,8.761153221130373,0.8197346329689027,2.6456336975097656,-0.9975587129592896
0.23411451280117038,2.9196672439575195,13.129372596740724,0.8247026205062866,1.5268229246139529,-0.49768656492233276
-0.20137937366962436,2.0886354446411133,13.137811660766602,0.5283061861991883,0.8345345854759217,-0.506393551826477
3.207485437393189,-1.9422653913497927,10.59153461456299,0.34091451764106756,0.08097954094409943,-0.3597621619701386
5.159526824951172,1.4286229610443115,10.155074119567873,0.1568906754255295,-0.11115506291389465,-0.16018176078796387
6.063166618347168,0.5361482501029969,9.017243385314943,0.07179726660251617,-0.10693716257810594,-0.025553859770298004
6.392635345458984,-2.3741607666015625,8.031623840332031,0.11826757341623308,0.07095453888177873,0.005116648972034454
5.989534378051758,-1.636106014251709,8.411599159240724,0.18583787977695468,0.2530859708786011,-0.057341661304235465
5.132750511169434,-1.062814712524414,9.122788429260256,0.1996452510356903,0.3368422091007233,-0.07115981727838518
4.423918247222901,-0.2031257152557373,9.76380252838135,0.12890763580799106,0.2949163317680359,-0.0408739484846592
4.243753910064698,-0.3517267107963562,9.940336227416992,0.03656377270817757,0.18388585746288302,0.009273549541831017
4.472170352935792,-0.7674486041069032,9.746896743774414,-0.030468042939901352,0.07920334488153459,0.03823421895503998
4.53428602218628,-0.817866623401642,9.822615623474123,-0.07444754987955095,-0.015094861388206482,0.06179758161306381
4.528196334838867,-1.111778974533081,9.72844982147217,-0.10074572265148163,-0.10156514495611192,0.07454954087734222
4.511127471923828,-1.2465513944625857,9.714160919189453,-0.12539069354534152,-0.1903079003095627,0.07743221521377563
4.479252815246582,-0.9155102968215942,9.8465051651001,-0.1597951054573059,-0.2864405810832978,0.0728561282157898
4.588530063629151,-0.6817083358764648,9.804916381835938,-0.22503487765789035,-0.35949474573135376,0.1108347624540329
4.68623161315918,-0.8805838823318481,9.485502243041992,-0.25756025314331055,-0.44550260901451116,0.13574489951133728
4.803438663482667,-1.3072407245635986,9.308112144470217,-0.28427705168724066,-0.4901292026042939,0.1611589789390564
4.697354793548585,-1.6355102062225342,9.117650985717773,-0.2680145502090454,-0.5498487353324891,0.13116994500160217
4.9485626220703125,-1.9735167026519775,9.004422187805178,-0.2183278203010559,-0.5696666836738588,0.10737944394350053
5.333807945251465,-1.5585346221923828,8.855431556701662,-0.16730037331581116,-0.5923287272453309,0.0788581371307373
5.332750797271729,-1.760554909706116,8.736443519592287,-0.1392197757959366,-0.5491231083869935,0.07742352783679962
5.312779426574707,-1.8321744203567507,8.717939376831055,-0.08742015063762665,-0.5577037930488588,0.050045453011989594
5.180922031402589,-1.6207249164581299,8.780925750732422,-0.07321319729089738,-0.5516040325164795,0.05282266438007355
5.5574235916137695,-1.4042987823486328,8.756810188293459,-0.062103543430566795,-0.5681829452514648,0.03637294098734856
5.095531463623047,-1.8302762508392334,8.70149898529053,-0.04385050013661385,-0.5498878359794618,0.026256714016199112
5.2814531326293945,-1.8550686836242676,8.672299385070803,-0.028663255274295807,-0.5701393485069276,-0.013339221477508545
5.704546928405762,-1.94393265247345,8.35273551940918,-0.018488803878426555,-0.5379687547683716,-0.028202489018440247
5.702266693115234,-1.7178399562835693,8.48202419281006,0.002732442924752832,-0.5006060600280762,-0.050564799457788474
5.653480529785156,-1.6761834621429443,8.362027168273928,-0.016058957204222683,-0.42899194359779363,-0.06002730131149292
6.00900936126709,-1.7836551666259766,8.242794036865234,-0.0021884145680814986,-0.35495561361312866,-0.058982465416193015
5.838147640228272,-1.694075107574463,8.449069023132326,0.018387077376246456,-0.2905403971672058,-0.06808024644851685
5.508499622344972,-2.242680072784424,8.253432273864748,0.020404629409313202,-0.2549113333225251,-0.10097765922546387
5.47662115097046,-2.3525257110595703,8.379880905151367,0.06185515224933624,-0.24582603573799133,-0.15813191235065463
5.509888172149659,-1.7155128717422488,8.444172859191896,0.09865158051252367,-0.2553102970123291,-0.20845337212085727
5.641777515411378,-1.5574954748153689,8.33629894256592,0.11261950433254242,-0.276008814573288,-0.23147015273571017
4.948533535003663,-1.0847229957580566,8.953095436096193,0.12332655489444733,-0.3336074054241181,-0.24106457829475403
4.766203403472901,-0.9511345028877259,9.270117759704592,0.08668209612369537,-0.4874410629272461,-0.2505080997943879
4.887796878814698,-1.3746472597122195,9.283907890319826,0.05322482064366341,-0.6732645034790039,-0.27497544884681707
4.904929161071777,-0.5106445550918579,9.621500015258789,0.025153126567602158,-0.8914003968238832,-0.32970395684242254
4.889688968658448,-0.7986646890640259,9.415492057800295,-0.06293853372335435,-1.1152825355529785,-0.36294069886207586
5.017879009246827,-1.0586725473403933,9.818234443664553,-0.08644552528858185,-1.354978322982788,-0.37013605237007147
4.789167881011964,-2.2191781997680664,9.69163703918457,-0.03640303015708923,-1.6150008440017702,-0.45291799306869507
4.629311084747315,-0.6865036487579346,9.642428398132326,0.054586600512266166,-1.965287208557129,-0.4977450370788574
5.294612407684327,-0.6620335578918457,9.362771034240724,0.018963227048516277,-2.2561893463134766,-0.49196931719779974
5.2673845291137695,-0.6056978106498719,9.182251930236818,0.03225517272949219,-2.6441006660461426,-0.4503158628940583
5.238348960876465,-1.4035009145736697,8.713964462280273,0.1080041602253914,-3.0686326026916504,-0.45646813511848455
5.471759796142578,-1.8551934957504275,8.687772750854492,0.19876597821712497,-3.526233196258545,-0.4990585446357727
6.030981063842773,-1.747425675392151,8.99390506744385,0.29948624968528753,-4.001858711242676,-0.5512289404869081
6.988005638122559,-1.6915041208267214,9.387787818908693,0.3405662178993225,-4.389446258544922,-0.5498937964439393
9.770021438598633,-1.5953781604766846,10.723760604858398,0.38099113106727606,-4.698764801025391,-0.5159897208213807
9.91809940338135,-2.1878283023834233,12.637675285339357,0.3644902408123017,-4.8438873291015625,-0.3915596008300781
12.405564308166506,-2.656902313232422,12.895683288574219,0.36342051625251776,-4.773975372314453,-0.47978308796882635
17.264854431152344,-3.9649453163146973,13.736276626586914,0.545329213142395,-4.6065168380737305,-0.6963933110237123
23.774450302124027,-3.4304978847503667,13.626527786254883,0.6112864017486572,-4.2916836738586435,-0.7937506437301636
27.454252243041996,-3.452062368392945,12.375005722045898,0.21022777259349826,-3.8984718322753906,-0.9656151533126831
28.10122108459473,-2.7240381240844727,5.763776302337647,0.06315913051366807,-3.6612558364868164,-1.4191201925277712
33.21698760986328,-0.8729174733161927,7.674499034881593,0.19594441354274753,-3.299697637557984,-1.8292970657348633
29.92989730834961,1.91945219039917,4.114930152893066,0.014859496615827085,-2.7262372970581055,-2.1298072338104252
31.89919471740723,3.271231174468994,4.032402038574219,-0.6350523233413696,-3.231429815292359,-2.2387559413909917
38.09129714965821,-2.582705497741699,15.360925674438477,-0.9837316870689393,-2.6169886589050293,-2.2595984935760502
24.909351348876953,-2.952391386032105,10.760885238647461,-1.0406183004379275,-1.8240836858749392,-1.8855891227722168
20.661888122558594,-3.117109775543213,8.256280899047852,-0.8275216221809388,-1.9022231101989746,-1.804962754249573
15.606403350830078,-3.4990787506103516,6.5896406173706055,-0.24795964360237122,-2.1210052967071538,-1.8521112203598025
12.80862331390381,-2.2400844097137456,6.593082427978516,0.22939120233058932,-2.434703826904297,-1.8963767290115359
11.664243698120117,-1.4020521640777588,8.366473197937013,0.5320864915847778,-2.5152673721313477,-1.891705393791199
9.723258018493654,-0.9390130043029785,9.84253787994385,0.5927749872207642,-2.3148939609527592,-1.7902796268463135
8.50963878631592,-0.7337892055511475,12.046872138977053,0.3915223479270935,-1.8759824037551882,-1.5943473577499392
7.1055569648742685,-0.8944147825241089,13.254443168640138,0.04695785790681839,-1.0791248083114626,-1.2772595882415771
3.0797715187072754,-2.2007396221160893,12.039862632751467,-0.10389858484268188,-0.16522186994552612,-1.0503016710281374
-1.5576957464218142,-3.3824813365936284,9.780113220214844,-0.02611707337200642,0.47646093368530273,-0.902318298816681
-5.370120525360108,-3.5938117504119877,7.117760181427003,0.2169644832611084,0.7562292218208314,-0.8222597241401673
-7.496499538421632,-3.4213171005249023,5.462878704071046,0.3930313885211945,0.8233290910720825,-0.7193815112113954
-7.473747730255128,-2.902104377746582,5.77647352218628,0.3733681738376618,0.8322191834449769,-0.5290606021881104
-6.177757740020753,-2.640989303588867,6.839085578918457,0.12611772119998935,1.0088438987731934,-0.22691021859645846
-6.0820584297180185,-3.804861068725586,7.095026493072511,-0.05532952770590783,1.3400423526763916,0.07761137187480927
-6.627289295196534,-4.451684951782227,6.797430038452148,-0.07904104888439178,1.6621702909469607,0.35837221145629883
-6.618802070617676,-3.7591090202331543,6.586640357971191,-0.09567767381668091,1.9561216831207275,0.6237487196922303
-6.429687023162843,-3.0005323886871342,6.204320430755616,-0.2070155888795853,2.3019485473632812,0.8703331351280214
-6.504060745239258,-2.8420078754425053,5.39283561706543,-0.3310456573963166,2.6382622718811035,1.0891132354736328
-6.254115104675293,-2.84920597076416,4.439152240753175,-0.3773296773433686,2.927943229675293,1.2863074541091921
-5.475255489349366,-2.6328904628753667,3.8772566318511967,-0.3644060492515564,3.1917014122009277,1.470753073692322
-4.118617534637452,-2.4217724800109863,3.51327919960022,-0.3295568525791169,3.4723715782165527,1.6813353300094607
-2.9740903377532963,-1.8963609933853152,2.9494194984436035,-0.266349345445633,3.7743916511535645,1.9494900703430176
-2.1437070369720463,-0.23416724801063538,2.173596620559693,-0.25199973583221436,4.063745021820069,2.236191749572754
-1.1635334491729736,2.546196460723877,0.9997395277023315,-0.41568818688392645,4.281055927276612,2.443831443786621
0.7758268713951112,4.861705780029297,0.46685051918029785,-0.7803903222084047,4.367005348205566,2.4669196605682377
4.018821239471436,5.765291690826417,0.38427066802978516,-1.1448209285736084,4.401031017303468,2.3087394237518315
7.990761280059815,5.155024051666261,0.11352515965700151,-1.2768807411193848,4.4402785301208505,2.006330966949463
12.056620597839357,3.8341031074523926,-0.2911131083965302,-1.0098942518234255,4.461663722991944,1.5849711894989014
15.247011184692383,2.8800668716430664,-1.4505035877227783,-0.4181784987449646,4.45589303970337,1.1263761520385742
16.490554809570312,2.845990419387818,-3.37376070022583,0.21307395398616794,4.309807777404785,0.6587241888046265
17.801839828491214,3.447019577026367,-4.876731872558594,0.6039124131202699,3.9632339477539062,0.33133080601692205
18.409221649169922,3.3588271141052246,-6.327205657958984,0.693809986114502,3.423271656036377,0.15627323091030124
18.27935028076172,2.7945632934570312,-7.074586868286133,0.6137878298759462,2.7759604454040527,0.18966649472713473
18.802345275878906,1.4039963483810427,-7.3419251441955575,0.4639278054237366,2.1156003475189213,0.4026708900928498
15.24343490600586,0.1932424753904343,-10.95003890991211,0.4734588861465454,1.3990985155105593,0.6387442350387573
8.40878200531006,0.07939216494560242,-14.976305961608888,0.5060437917709351,0.1402837336063385,0.845507562160492
34.16745376586915,14.778262138366701,-11.343873977661133,-0.7397848963737489,-2.0961575508117676,0.38694545626640325
73.30734252929688,17.413711547851562,51.823375701904304,-2.1076154708862305,-0.16705881059169772,0.2352196127176285
-1.5887229442596436,-6.269487857818604,-19.044239044189453,-0.45627507567405706,4.495333671569824,0.2685640752315522
16.409297943115234,2.1647462844848633,22.521615982055668,-0.9356968402862549,2.041081428527832,1.128972411155701
-7.88953971862793,-0.9457771182060243,9.86530876159668,-0.8116706609725952,3.016748666763306,0.4312824010848999
4.496479034423828,-12.2379846572876,14.133570671081545,-0.10163022577762604,2.266867876052857,-0.30203393101692205
6.591825485229492,-1.745227336883545,9.131344795227053,0.022854680195450786,2.058021068572998,-0.2895428836345673
2.0269381999969487,-3.2858290672302246,11.39452648162842,0.051199782639741905,1.5999194383621218,-0.3916047215461731
4.135294437408448,-1.541809320449829,11.58871841430664,0.15122076869010925,1.1855839490890505,-0.44436579942703247
4.514693260192871,0.6307587623596191,10.047370910644531,0.18380372226238254,0.8618514537811279,-0.4724189043045044
5.481593132019043,1.9937267303466797,10.072899818420412,0.006577943451702595,0.6253555417060853,-0.28742730617523193
4.854979515075684,0.7165477275848389,10.061676979064943,-0.06138262152671814,0.4558590054512024,-0.10154699534177782
5.263396739959718,0.6836878061294556,9.696550369262695,-0.09557762742042542,0.335274487733841,0.03869657963514328
5.330497741699219,-0.7508496046066284,9.463272094726562,-0.14253482222557068,0.2761256396770478,0.115816168487072
4.893241405487061,-1.0715343952178955,9.395517349243164,-0.15618768334388733,0.19974575936794284,0.1370314061641693
4.794535160064698,-0.9013485312461854,9.481729507446289,-0.17014873027801514,0.10701799392700195,0.12615381181240085
4.823094844818116,-0.5323256850242616,9.606380462646484,-0.19725510478019714,0.008409568108618261,0.13405564427375793
4.737730503082276,-0.49735456705093384,9.585469245910646,-0.22748756408691406,-0.09759100526571275,0.14928825199604037
5.135002136230469,-0.4936680197715759,9.64661502838135,-0.2589543163776398,-0.19760718941688538,0.17847223579883578
4.726885795593262,-0.5387823581695557,9.538818359375,-0.28451335430145264,-0.29947948455810547,0.20721568167209628
5.138770580291749,-0.8867794871330262,9.612417221069336,-0.3227187097072602,-0.4036411643028259,0.20815162360668185
4.484374523162843,-0.7534493803977967,9.32757568359375,-0.3744316995143891,-0.5052481889724731,0.2008410394191742
5.170187950134277,-1.4716721773147585,9.358220100402834,-0.3872843384742737,-0.6068322062492372,0.16325721144676208
4.608951091766358,-1.4026906490325928,9.274112701416016,-0.32432377338409424,-0.7131592035293579,0.12285675853490831
4.926617622375488,-1.5983179807662966,9.151914596557617,-0.27741342782974243,-0.7789874672889711,0.09486618638038635
5.149721622467042,-1.395137071609497,9.15077877044678,-0.22474418580532077,-0.8409602642059326,0.0493132546544075
5.4945340156555185,-1.256101965904236,8.792410850524904,-0.1607750654220581,-0.8728844523429872,0.01946219801902771
5.930328845977784,-1.117720603942871,8.665213584899904,-0.14392688870429993,-0.8572880029678345,0.013590748421847822
6.116199016571046,-0.9408035874366761,8.416821479797365,-0.12990622222423556,-0.8176690340042114,0.03483573719859124
6.229744911193848,-0.9150011539459229,8.279544830322266,-0.12361132353544237,-0.7634772062301636,0.058123648166656494
6.282480239868164,-0.9528144598007202,8.19430446624756,-0.13111618161201477,-0.6959983706474305,0.07721646130084991
6.313976287841797,-1.1648601293563845,7.9773101806640625,-0.12491600215435028,-0.6464411020278931,0.08329730480909349
6.339215755462647,-1.3123508691787722,8.059654235839844,-0.146325096487999,-0.5676113367080688,0.09553305059671403
6.101232528686523,-1.7145351171493532,7.929445266723633,-0.14361897110939026,-0.513758957386017,0.06752165406942369
6.458781719207765,-1.428743600845337,7.6870832443237305,-0.15676769614219666,-0.44852223992347723,0.052896566689014435
6.596223831176758,-1.4806176424026491,7.811596393585206,-0.1663932651281357,-0.3628394305706025,0.05891650915145874
6.466639041900636,-1.6145310401916504,7.891899585723878,-0.13898932933807373,-0.2769769728183747,0.05958864092826843
6.94514274597168,-1.137165188789368,7.771462440490723,-0.12756913900375366,-0.1867315322160721,0.07260397821664812
6.8036513328552255,-1.1346821784973145,7.8050432205200195,-0.12479695677757263,-0.05750269815325738,0.09318377077579498
6.609881401062012,-1.4748327732086182,7.594721794128418,-0.1293143332004547,0.06918215751647949,0.09319057315587999
6.590214729309082,-1.0997540950775146,7.784800052642823,-0.13665658235549927,0.17623354494571689,0.10878199338912964
6.284697532653809,-1.6984429359436035,8.126746177673342,-0.13036614656448364,0.2576065361499787,0.11317462474107744
5.831677436828613,-2.2163460254669194,8.270649909973146,-0.10175532102584839,0.26944920420646673,0.07724638283252716
5.9187469482421875,-1.8495692014694216,8.252552986145021,-0.09113506972789764,0.2531583905220032,0.021232744678854946
5.83978033065796,-1.2375035285949707,8.307254791259766,-0.09190309047698975,0.24470917880535129,0.00945533812046051
5.18702268600464,-1.5788072347640993,9.034909248352053,-0.06906343996524811,0.18268607556819919,0.005265681538730861
4.887286186218262,-1.7626707553863525,9.160865783691406,-0.05038420483469964,0.02341359481215477,-0.04671991243958474
5.059690952301026,-1.6545773744583132,9.29115104675293,-0.025720544159412384,-0.16422605514526367,-0.10329317301511766
4.573040485382081,-0.8831242322921753,9.603697776794435,-0.02293286845088005,-0.3770053088665009,-0.12647277116775513
4.80007266998291,-1.0050928592681885,9.616647720336914,-0.04698076471686364,-0.6442886590957642,-0.13277968764305115
4.747927665710449,-0.879064977169037,9.70955562591553,-0.05460398271679879,-0.9215152263641357,-0.1323710232973099
4.755890846252441,-0.5355957150459291,9.882761955261232,-0.0659186840057373,-1.256788969039917,-0.12302304059267045
4.868198394775391,-0.6953533291816713,9.779332160949709,-0.07258763164281846,-1.6154532432556152,-0.10355141013860704
4.630744457244874,-1.1284030675888064,9.483583450317383,-0.03932934254407883,-2.0526311397552495,-0.1185731664299965
4.542581081390382,-1.2119615077972412,9.513148307800295,0.027034213766455654,-2.563197135925293,-0.14459483325481418
4.639071464538574,-0.756391167640686,10.087118148803711,0.06433943659067155,-3.1126387119293217,-0.1374616026878357
5.512120246887207,-0.31919193267822266,10.47772216796875,0.12306509912014008,-3.686087846755982,-0.05084384232759476
6.539150238037109,-0.3196801841259003,11.338781356811523,0.09101567417383195,-4.1731672286987305,0.1566784381866455
8.431267738342287,-1.6596840620040896,12.059043884277344,-0.04868164658546448,-4.510247707366944,0.30427324771881104
10.60292720794678,-2.7996578216552734,13.4725341796875,-0.1592375636100769,-4.617101669311523,0.33638581633567816
13.074868202209474,-4.121355056762695,12.329036712646484,-0.19007332623004916,-4.485333442687988,0.15802450478076938
20.752464294433594,-8.111234664916992,11.611820220947266,0.5441878437995912,-4.5053863525390625,-0.22438669204711914
28.237045288085938,-5.462175369262695,8.789792060852053,1.409764647483826,-4.482633590698242,-0.699479639530182
34.46134948730469,0.5816192626953125,7.064927577972413,1.5342546701431277,-4.457871913909913,-1.348053216934204
35.637176513671875,6.105829715728761,6.2017927169799805,0.8684300780296327,-4.009402275085449,-2.0150711536407475
33.04504013061524,6.948938846588136,7.683782577514648,-0.23445123434066772,-3.560470342636109,-2.895063161849976
32.02428817749024,6.6068925857543945,6.792598247528077,-1.3023105859756472,-4.086170196533203,-3.8088877201080327
41.20372009277344,1.8090862035751345,19.32857894897461,-1.9653334617614746,-3.2841577529907227,-4.224706172943116
27.863990783691406,-1.9605021476745605,14.77853298187256,-2.4934439659118652,-2.2222831249237065,-4.1720733642578125
23.26041030883789,-5.740451812744141,12.899734497070312,-2.6505537033081055,-1.979481339454651,-4.026407718658448
17.304857254028324,-9.474843025207521,11.024479866027834,-1.8331668376922607,-1.8589564561843874,-3.8394131660461426
13.009484291076662,-10.717304229736328,10.489516258239748,-0.7122728824615479,-1.9022490978240967,-3.504820585250855
10.504499435424805,-9.961584091186523,12.38407611846924,0.40004768967628485,-1.8095884323120117,-3.123970746994019
8.260077476501467,-7.221734046936035,14.06304454803467,1.070146441459656,-1.4226016998291016,-2.6274328231811523
5.416744232177734,-4.614246845245362,14.89821529388428,1.1086468696594238,-0.8359211087226869,-2.067000389099121
1.77632737159729,-4.612861633300781,14.499731063842773,0.8404589295387269,-0.19416601955890658,-1.6044282913208008
-1.2286795377731325,-5.783676624298097,13.585905075073242,0.6139838099479676,0.40356528759002686,-1.250420689582825
-3.532788515090943,-6.936829090118409,12.635526657104492,0.6228721737861634,0.92608642578125,-0.9934729337692261
-4.910588741302491,-7.550848007202148,11.671855926513672,0.7879741191864014,1.4233294725418093,-0.7654612064361572
-5.872398853302003,-6.767807483673097,10.792152404785156,0.8886666893959047,1.9142030477523806,-0.5245068073272705
-6.668344020843507,-5.466692447662354,9.626156806945803,0.7381270527839662,2.4081788063049316,-0.2106888443231583
-8.865333557128906,-5.096850872039796,6.875018596649171,0.439216822385788,2.772817611694336,0.13143852353096008
-10.982515335083008,-5.168239593505859,3.9109032154083256,0.1445641815662384,2.8284680843353276,0.46278905868530273
-10.96814823150635,-4.758821964263917,2.7090935707092285,-0.16665689647197726,2.6963856220245366,0.8395788669586182
-8.325101852416992,-4.614036083221436,4.09223747253418,-0.4813813269138337,2.645240306854248,1.2739657163619997
-5.305614471435547,-5.117450714111328,5.355344772338867,-0.6664160490036011,2.9880583286285405,1.7306629419326784
-5.011218070983887,-5.382977962493897,4.051337718963624,-0.5566675066947938,3.4552769660949707,2.111134767532349
-5.531608104705811,-3.5661036968231206,1.4989603757858279,-0.42899954319000244,3.7443623542785645,2.425735712051392
-5.393782138824464,-1.2558280229568484,-0.6344421505928041,-0.5205191969871522,3.8018441200256348,2.6852252483367924
-4.301618099212647,0.5375369787216187,-1.5059700012207031,-0.7962536811828613,3.729601621627808,2.9031841754913335
-1.6342005729675293,2.139718532562256,-0.8425800800323486,-1.1302860975265505,3.7112669944763184,3.016353845596314
1.2222348451614382,3.3875722885131836,-0.3748131990432739,-1.375646471977234,3.8531734943389897,2.959164619445801
3.629317283630371,3.877333641052246,-0.7339882254600526,-1.4292460680007937,4.028267860412598,2.6733515262603764
6.293610095977784,4.173269271850586,-1.4413238763809206,-1.2739411592483523,4.150576591491699,2.2248477935791016
9.115864753723146,4.51602602005005,-1.9372969865798952,-1.0122529268264773,4.195280075073242,1.7010086774826052
11.759984016418459,4.719478130340577,-2.531190872192383,-0.7230182290077211,4.181068897247315,1.168992519378662
14.491056442260742,4.4855008125305185,-3.1568312644958496,-0.47744408249855047,4.0933380126953125,0.641031324863434
17.17465591430664,3.836151599884033,-4.14936399459839,-0.2911902070045471,3.9170982837677006,0.18445424735546115
18.64914321899414,2.8050773143768315,-5.930479526519776,-0.1580174118280411,3.5793256759643555,-0.08363220840692522
18.77818870544434,1.2457367181777956,-8.711429595947266,-0.04800302162766457,2.9868590831756596,-0.08042380213737488
15.665354728698732,-0.21374160051345825,-14.701711654663086,0.11502601206302643,2.0421521663665776,0.208450049161911
8.945641517639162,-1.1466131210327148,-20.865840911865234,0.4242039918899536,0.3893860280513764,0.5534117817878724
11.475544929504396,6.951891899108887,-22.367834091186527,0.7497897744178773,-1.5764760971069336,0.8130028843879701
130.2633056640625,38.99083709716797,80.99584197998048,-4.1593122482299805,-2.3974180221557617,0.42115202546119695
-19.069766998291016,-3.870927333831787,-45.42324447631837,0.7517498731613159,6.691152095794679,-1.270761251449585
23.529500961303714,-5.7640652656555185,31.009506225585938,-1.2230377197265625,2.516584157943726,1.5719150304794314
-16.170238494873047,8.984910011291506,10.67033576965332,-0.35335689783096313,3.5786983966827397,0.20717477798461914
2.19900393486023,-20.722658157348636,14.508908271789553,0.4027966260910034,3.411482334136963,-0.7587516903877259
5.656847476959229,-1.8789501190185547,13.410901069641115,0.4475081861019135,2.086026191711426,-0.30222770571708685
-3.497547149658203,-2.5822498798370366,14.271223068237305,0.4239890277385712,0.888459324836731,-0.3249351978302002
0.13463650643825534,-1.1222074031829834,12.387035369873047,0.5204390883445741,0.0136455949395895,-0.48294088244438177
5.692388057708741,3.2677242755889897,9.914137840270998,0.37611424922943115,-0.34956759214401245,-0.45023742318153387
6.160601615905762,2.533185720443726,8.889238357543945,0.12846435606479648,-0.3110308051109314,-0.1959343105554581
6.389885425567628,-0.4094203412532807,8.406009674072266,0.0769750326871872,-0.1326921731233597,-0.10596417635679246
5.7342238426208505,1.230910062789917,8.89129161834717,0.014364168979227545,0.03154581040143967,-0.018614007160067562
5.367970943450929,0.8740272521972656,9.533990859985352,-0.0636940747499466,0.10087421536445618,0.05941684916615487
4.675002098083496,0.8477179408073426,9.961113929748537,-0.17671544849872592,0.11168479919433594,0.1707684248685837
4.358944892883301,-0.007165834307670593,9.899678230285646,-0.23192495107650757,0.028952507302165035,0.20622999966144565
4.276997089385987,-0.8347551822662354,9.716864585876467,-0.24131938815116882,-0.05830926820635796,0.18621203303337097
4.346273422241211,-0.990057110786438,9.800697326660156,-0.23843103647232056,-0.14692765474319458,0.15247733891010287
4.320865631103516,-1.2110564708709717,9.744560241699219,-0.2215489596128464,-0.24631157517433167,0.10198020190000535
4.385395526885987,-0.904245674610138,9.841563224792482,-0.22146867215633395,-0.3344581723213196,0.06876194477081299
4.2536725997924805,-0.5800353288650513,9.971312522888185,-0.2383795976638794,-0.4217731654644013,0.06583642959594727
4.367030143737793,-0.5743663311004639,9.764462471008303,-0.2428804636001587,-0.5275094509124756,0.04096557572484017
4.232647418975831,-0.9092539548873901,9.511285781860352,-0.24104149639606479,-0.6322058439254761,0.05347815528512002
4.599247455596925,-0.41072118282318115,9.710391998291016,-0.26178851723670965,-0.7490575313568115,0.07759504020214081
4.811409950256348,-0.4854699969291687,9.496918678283693,-0.27364420890808105,-0.8272916674613954,0.08675310015678406
5.096091270446777,-1.200075626373291,9.619556427001953,-0.33439743518829346,-0.8590127229690552,0.04693472757935525
3.9874720573425293,-2.765195846557617,8.51541042327881,-0.1211758702993393,-0.882150709629059,-7.789582014083862e-05
5.468883991241456,-0.387698769569397,9.563420295715334,-0.10503687709569932,-0.9761309623718262,-0.020541008561849594
4.859976291656495,-1.5312983989715576,8.66200351715088,-0.054545313119888306,-0.9631704688072206,-0.05595923215150833
5.176749229431152,-0.9260897636413574,8.874636650085451,-0.020377097651362423,-1.002275586128235,-0.08928185701370239
5.152794361114503,-1.1234735250473025,8.981283187866211,-0.006752661895006896,-1.0246386528015137,-0.12179499119520189
5.242760181427003,-1.1479811668395996,8.707376480102539,0.030725190415978435,-1.0710139274597168,-0.15476635098457336
5.621227264404297,-0.929452955722809,8.528011322021484,0.03647902980446816,-1.0716698169708252,-0.17718939483165744
5.5557923316955575,-0.728724479675293,8.560292243957521,0.040168844163417816,-1.0685248374938965,-0.18717564642429355
5.728139400482179,-1.151545763015747,8.592569351196289,0.04960216954350472,-1.0451676845550537,-0.20717187225818637
6.236651897430421,-0.48877519369125366,7.673024654388429,0.07626988738775255,-1.016596794128418,-0.2220790684223175
6.625221729278565,-0.12949135899543762,7.962438583374023,0.033487677574157715,-0.9476682543754579,-0.2008303701877594
6.245123863220215,-0.16865801811218262,8.14134407043457,0.01863255351781845,-0.8924421072006226,-0.13465724885463717
6.063014507293702,-0.878354847431183,8.213118553161623,0.031231606379151348,-0.8522350788116455,-0.1300214380025864
6.117313861846925,-0.84186989068985,8.25874996185303,0.03132829815149307,-0.8671634793281556,-0.1545277386903763
6.288304805755616,-0.8853229284286499,8.246386528015138,0.051132649183273315,-0.872596561908722,-0.16823914647102356
6.328826904296875,-0.917017161846161,8.145993232727053,0.06843804568052293,-0.9075257182121278,-0.18399974703788757
5.994367122650147,-1.0155887603759766,8.802434921264648,0.0971246212720871,-0.9791976809501649,-0.2019248604774475
5.345266819000245,-1.3337110280990603,9.044069290161133,0.14799758791923523,-1.1496227979660036,-0.24534918367862704
5.7121686935424805,-0.9470465779304506,9.043437957763672,0.21170540153980258,-1.398648977279663,-0.3152283132076264
5.819142818450929,-0.41705530881881714,9.016280174255373,0.2300769537687302,-1.6352680921554568,-0.3344767093658447
5.593076705932617,-0.9096582531929017,9.134222984313967,0.2830591499805451,-1.9324989318847656,-0.35398522019386297
5.585826873779297,-0.6178682446479798,9.11331558227539,0.36972096562385565,-2.296374797821045,-0.38734304904937744
5.639875411987305,-0.9691327214241029,8.97377681732178,0.44807752966880804,-2.759685516357422,-0.3774517476558686
6.512304306030273,-0.777924656867981,9.243899345397951,0.5612822175025941,-3.289432764053345,-0.3456791043281555
7.241718769073487,0.1519078761339188,9.350359916687013,0.5586512684822084,-3.8076863288879395,-0.25279942154884344
9.427652359008789,2.695996522903443,12.11079502105713,0.28973391652107244,-4.30135440826416,0.0005882903933525085
11.766650199890138,2.2615454196929936,13.89007568359375,-0.17514076828956604,-4.410940647125245,0.4144520163536072
14.213016510009766,-0.4534129500389099,12.404104232788086,-0.585282564163208,-4.35438346862793,0.6916338801383973
17.754669189453125,1.0664881467819216,13.878362655639648,-0.8727573156356812,-4.247965335845948,0.6950377225875854
22.281820297241214,-0.058152854442596436,13.644093513488771,-1.2918993234634402,-3.883272647857666,0.6602284908294678
24.51549530029297,-5.510014057159425,5.9711503982543945,-1.2001233100891113,-3.7967417240142827,0.3981705904006958
28.194480895996094,-13.814276695251467,-3.423466205596924,0.4548277258872986,-4.3039398193359375,0.04016662761569024
32.89230728149415,-13.577327728271484,0.10677534341812134,2.934872388839722,-4.595680236816406,0.07382819801568986
32.335777282714844,-9.320132255554201,1.9541840553283691,4.570070743560792,-4.31874942779541,0.6083633899688721
35.45783996582031,-0.18107290565967563,3.4578137397766113,4.7825989723205575,-4.7946367263793945,0.7029812932014466
38.9652099609375,3.181398153305054,18.67007064819336,3.8258633613586426,-3.9096574783325195,0.42594185471534735
23.639968872070312,7.382289886474609,13.396711349487305,2.363022804260254,-2.9924299716949467,0.29055631160736084
20.548841476440433,9.843640327453615,13.140196800231935,0.33349081873893743,-2.86185359954834,-0.20861250162124634
17.401124954223636,6.060544967651367,13.289059638977053,-1.5517747402191162,-2.528168916702271,-0.9205788373947144
14.238227844238281,0.2818538546562195,13.203256607055664,-2.350865364074707,-2.2432146072387695,-1.665830731391907
11.69570827484131,-2.2478892803192143,13.811737060546875,-2.3925459384918217,-1.8258659839630127,-2.2911307811737065
9.53148078918457,-4.289295196533203,15.045051574707031,-2.2099461555480957,-1.1275817155838015,-2.6818821430206303
7.094125747680664,-9.13450336456299,14.286239624023438,-1.5306413173675537,-0.2590505778789521,-2.6857547760009766
2.640739917755127,-10.561551094055178,13.03225612640381,-0.19669270515441895,0.5179860591888428,-2.587345361709595
-0.9443055391311646,-9.070638656616211,12.910982131958008,0.8243797421455384,1.1155803203582764,-2.354470491409302
-3.1364541053771973,-6.9181623458862305,12.782352447509766,1.306962490081787,1.58116352558136,-2.007546663284302
-3.8943777084350586,-4.937051296234132,12.943841934204102,1.2045956850051882,2.082031726837158,-1.5792249441146853
-4.303387641906738,-4.393946170806886,11.855844497680664,0.7707474231719971,2.791515827178955,-1.1266494989395144
-7.2229204177856445,-5.53051519393921,8.60707759857178,0.5028129816055298,3.343098878860474,-0.8293471336364746
-9.578485488891602,-5.758995056152344,5.642822265625,0.4056508839130402,3.487468719482422,-0.6337976455688477
-10.140247344970703,-4.55692195892334,4.159911632537843,0.2576152980327607,3.438632011413574,-0.4126653969287873
-10.097766876220703,-3.734440803527832,3.3533825874328613,-0.023044079542160034,3.382310390472412,-0.1849586218595505
-9.756009101867678,-3.571573972702027,3.027004480361939,-0.4179162383079529,3.3263156414031987,0.12286476790904999
-8.968895912170412,-4.1011247634887695,2.5212028026580815,-0.7086825966835023,3.3262486457824707,0.45085644721984863
-8.31629753112793,-4.187798023223878,2.4185891151428223,-0.8597612977027894,3.3196921348571777,0.7511864304542543
-6.436375617980957,-3.440130949020386,3.609787940979004,-1.0492537021636963,3.3737850189208984,1.0844391584396365
-3.912622213363648,-3.33970856666565,4.707679271697999,-1.272351145744324,3.6391243934631348,1.4383944272994997
-2.153331518173218,-3.6362936496734624,4.428644180297852,-1.3467352390289307,4.014936923980714,1.7877258062362673
-0.9077930450439453,-1.7811595201492312,3.126731634140015,-1.384819746017456,4.303384304046632,2.1597113609313965
0.9659031629562378,0.9578245878219604,2.133849382400513,-1.6397293806076052,4.453119754791261,2.4947781562805176
3.316653251647949,1.7446063756942751,0.9733759164810181,-1.9168337583541872,4.526446342468262,2.6938974857330327
5.646793842315675,1.7286719083786013,-0.4289292991161347,-1.8799903392791748,4.4777588844299325,2.742083311080933
8.57365131378174,2.607937097549439,-1.7523634433746338,-1.647097110748291,4.278239727020265,2.650912284851074
11.729235649108888,2.8800914287567143,-2.644962072372437,-1.3670669794082644,3.9460399150848393,2.4489798545837402
14.887457847595217,2.853730440139771,-2.746247529983521,-1.1103488206863406,3.5725460052490234,2.2672569751739506
17.300159454345703,2.633410215377808,-3.5345683097839355,-0.9003889560699463,3.231098890304566,2.2144610881805424
19.182884216308594,1.8911662101745605,-5.006247997283936,-0.8051300048828125,2.8008143901824956,2.30983829498291
20.06460952758789,0.6253409981727601,-7.388306617736816,-0.7033333182334901,2.207844495773316,2.5076208114624023
19.372484207153324,0.5006064176559448,-10.2852783203125,-0.5461073517799379,1.4428772926330566,2.7766282558441167
14.527681350708008,2.920663356781006,-16.73407745361328,-0.5412286520004272,0.41704955697059637,2.9697878360748295
9.684765815734865,25.858770370483402,-39.22738265991212,-1.45630419254303,-1.870006799697876,2.3015491962432866
67.55580902099611,9.660017967224123,13.215075492858888,0.8583184480667114,-3.2458086013793945,-3.2962605953216557
89.24882507324219,-24.4151782989502,56.580116271972656,2.7857830524444585,2.313577651977539,-1.9171530008316042
-17.342918395996094,4.545083522796632,-19.495243072509766,1.1129611730575564,3.763070583343506,-0.18791353702545166
2.2630360126495366,3.3090369701385502,27.587581634521484,0.9047207236289979,3.8998680114746094,-0.01609183289110661
-1.1308292150497439,1.4247608184814453,15.301350593566896,0.03614961355924606,2.755753517150879,-0.9287564158439637
-1.7986112833023074,-12.124463081359865,7.922866344451905,1.086109757423401,2.4922842979431152,-0.9909180998802186
3.926974296569824,4.648853778839112,15.753591537475586,0.827998459339142,1.3779323101043701,-0.5488882064819336
-0.21384763717651367,0.44382396340370184,11.668116569519045,0.5569462180137635,0.6459866762161255,-0.5045321583747865
3.668742895126343,3.988628387451172,11.501561164855959,0.19566109776496887,-0.05451226234436035,-0.2677851021289826
5.675455093383789,2.5506792068481445,9.976719856262209,-0.06225953251123428,-0.2682787477970124,0.0038940226659178734
5.831500053405762,-1.9182956218719482,8.518418312072756,-0.09392409026622772,-0.19775329530239108,0.09191992133855821
6.00833559036255,-3.3153061866760254,8.124176979064943,0.037695411592721946,-0.0412263423204422,0.007783186156302691
5.659911632537843,-2.491981029510498,8.478853225708008,0.1512863785028458,0.11260396987199785,-0.10769672691822052
5.152143955230714,-0.5873867273330688,9.440483093261719,0.18331994116306308,0.16440239548683167,-0.13401810824871066
4.486193180084229,0.7787217497825624,10.146397590637209,0.07018590718507768,0.09980607032775879,-0.04720725119113922
4.205862045288086,-0.03766132891178131,9.909440994262695,-0.07011186331510545,-0.01775730773806572,0.03708045557141305
4.494709491729737,-1.116746187210083,9.731252670288086,-0.11302389204502106,-0.15767881274223328,0.042245801538228996
4.573752880096436,-1.5480316877365115,9.66187858581543,-0.12375138700008392,-0.26560416817665106,0.01671227067708969
4.736382961273194,-1.3377020359039307,9.707712173461914,-0.12838709354400635,-0.36529955267906195,-0.009620386175811292
4.604980945587159,-0.7508472800254823,9.813861846923828,-0.15718384087085727,-0.48050421476364136,-0.006054569501429797
4.358213901519776,-0.3987439274787903,10.009302139282227,-0.25159278512001043,-0.6155957579612733,0.03872542083263397
4.6399884223938,-0.8795578479766846,9.916816711425781,-0.32707297801971436,-0.7583745121955873,0.07608067989349365
3.640352249145508,-2.2264113426208496,9.719955444335938,-0.32798832654953003,-0.8814716935157777,0.061712216585874564
3.928219556808472,-2.0023872852325444,9.298669815063477,-0.11047814786434174,-1.1695321798324587,0.00046990253031253815
4.7071332931518555,-2.4233994483947754,8.768657684326172,-0.0732775628566742,-1.230008840560913,-0.08059286326169969
5.550658702850343,-1.7747211456298828,8.73309326171875,0.003410560078918934,-1.299500346183777,-0.1486886441707611
5.9101762771606445,-1.3408615589141846,8.357476234436037,0.057049885392189026,-1.2724579572677615,-0.1991708427667618
6.097777843475343,-1.3147499561309814,8.383384704589844,0.08292419463396074,-1.206252098083496,-0.21074511110782626
6.336383819580078,-1.4469337463378906,8.384087562561037,0.10173697769641876,-1.1361513137817383,-0.21509175002574923
6.089670181274414,-1.364915132522583,8.138960838317873,0.12837825715541842,-1.0659799575805664,-0.21650664508342746
6.31679630279541,-1.6734777688980105,8.287870407104492,0.16332775354385376,-1.0335687398910525,-0.24669949710369113
6.169357776641847,-1.28729248046875,8.217788696289062,0.1896854788064957,-1.0113730430603027,-0.2691806256771088
6.197664260864258,-1.191285014152527,8.155376434326172,0.18559011816978455,-0.9934103488922119,-0.2781743705272675
6.415615081787109,-1.3139289617538454,7.915309906005859,0.19186103343963623,-0.9639659523963929,-0.2788465619087219
6.524142265319824,-1.2505877017974854,7.981728076934815,0.21564485132694247,-0.933841347694397,-0.29499655961990356
6.359658241271973,-1.2856531143188477,7.880105018615723,0.21781341731548312,-0.9007890224456787,-0.2939497530460358
6.5093793869018555,-1.210303783416748,7.846033096313477,0.23004694283008578,-0.8944974541664125,-0.3106958866119385
6.596848964691163,-1.0982365608215332,7.973416805267335,0.2383118122816086,-0.8818634748458862,-0.3240120708942414
6.541952133178711,-1.2310448884963991,7.861614227294922,0.2547325789928437,-0.8834601640701294,-0.3437120318412781
6.337329387664796,-1.5138660669326784,7.922961711883546,0.2835186421871186,-0.9007900953292847,-0.38630655407905584
6.498274803161621,-1.4270924329757693,7.767228126525879,0.3407160341739655,-0.9332632422447206,-0.43464523553848267
6.664632320404054,-0.664057731628418,7.64695930480957,0.345758855342865,-0.955896556377411,-0.428710401058197
6.474454879760742,-0.4559929370880127,7.673822879791261,0.34312963485717773,-0.9669907689094545,-0.404557079076767
6.5610318183898935,-0.3854149580001831,7.8655595779418945,0.3331882059574128,-1.0255308151245117,-0.38877943158149725
6.443545341491699,-0.32401758432388306,7.899414539337159,0.31895986199378973,-1.1066564321517947,-0.37110185623168945
6.448637008666992,-0.8085846900939941,7.695190906524659,0.3370045721530915,-1.191117286682129,-0.39170441031456
6.794634819030762,-0.22046393156051636,7.745094299316406,0.3404982089996338,-1.2824753522872927,-0.3902453482151032
6.9858412742614755,-0.23344628512859347,7.244330883026124,0.33300888538360596,-1.3582452535629275,-0.38357776403427124
7.210233211517335,-0.029681876301765442,7.221843242645265,0.3186518251895905,-1.4420937299728396,-0.3323448896408081
6.932474136352539,-0.015358492732048035,7.6574201583862305,0.3129262328147888,-1.5543411970138552,-0.30155324935913086
6.696197986602784,-0.25665572285652166,7.291735649108887,0.3518058657646179,-1.6888533830642702,-0.3029672205448151
7.664907932281495,-0.1451222002506256,7.18575382232666,0.3595245778560639,-1.8423035144805908,-0.2946477830410004
8.49900531768799,-0.64792799949646,7.117487430572511,0.3944939970970154,-1.9959704875946045,-0.22341932356357577
8.22599506378174,-0.5970761179924012,6.263885974884034,0.43014073371887207,-2.166122198104859,-0.12411518394947052
7.783044815063477,-0.7087879776954652,6.555469989776612,0.43217355012893677,-2.3580176830291752,-0.09324874728918077
7.9580092430114755,-0.6574641466140747,6.829919338226319,0.47908946871757513,-2.644880771636963,-0.0921171084046364
7.418587684631348,-0.21576938033103943,6.87552547454834,0.49701815843582153,-2.9278111457824707,-0.13457949459552768
7.612068176269531,-0.0006932318210601807,7.174104690551758,0.5033445954322816,-3.1976380348205566,-0.20556415617465976
7.143611907958984,0.524237871170044,7.6792449951171875,0.4558972120285034,-3.1727855205535893,-0.35889133810997015
9.496317863464357,0.2662297189235688,7.134869098663331,0.43715295195579534,-3.208829879760742,-0.41046383976936346
9.89196300506592,0.7343071103096009,7.117982864379883,0.3696137070655823,-3.4844412803649902,-0.3310852944850922
10.661910057067873,1.877751350402832,8.046509742736818,0.2336518317461014,-3.7216901779174805,-0.1242656633257866
13.147918701171875,1.8352282047271729,8.907514572143555,0.03744176775217056,-3.696382284164429,0.17258049547672275
15.971280097961428,1.9235777854919434,8.267719268798828,-0.23654241859912875,-3.3051586151123047,0.5074929594993592
21.11273193359375,1.8812857866287234,7.675949573516847,-0.4499912559986115,-2.5825531482696538,0.7441543340682983
22.417493820190433,-1.071470379829407,6.070564270019531,-0.6314811110496522,-1.7977397441864014,0.797841250896454
19.545982360839844,0.07674799859523773,-1.2993589639663699,-1.1975029706954958,-1.5502550601959229,0.6190018653869629
20.369003295898438,0.7933032512664795,-2.9789311885833745,-1.7581508159637451,-2.1689012050628667,-0.029107633978128433
21.339361190795902,-2.24452543258667,6.720259666442871,-1.2421990633010866,-1.6962465047836306,-0.9673948287963867
15.859915733337404,-1.0498991012573242,0.18624623119831088,-0.588808834552765,-1.315812349319458,-1.601161599159241
14.304582595825195,2.9073035717010502,-4.564626693725586,0.07788136601448059,-2.495097398757935,-2.579445123672486
16.22447967529297,6.292482376098633,-3.57616400718689,0.46348091959953314,-3.9114456176757812,-3.6639411449432377
22.336618423461918,8.421875953674318,0.08654590696096422,0.2912600934505463,-4.8363709449768075,-4.548608779907227
28.33199501037598,6.481070041656495,7.538542270660401,-0.3822679221630097,-4.7982177734375,-4.934589862823487
26.398710250854496,4.338280200958253,8.246757507324219,-1.3840293884277344,-4.303796291351319,-4.8203701972961435
24.51340103149414,-0.08056407421827318,8.433285713195803,-1.8732798099517822,-3.815191507339478,-4.667118072509766
21.582523345947266,-5.0313782691955575,8.474922180175781,-1.7891361713409424,-3.371788501739502,-4.311561107635499
18.09172821044922,-8.548652648925781,8.053499221801758,-0.9204882979393006,-3.038407802581787,-3.8303687572479252
15.277387619018555,-9.236290931701662,8.168833732604982,0.24590903520584106,-2.7608902454376225,-3.313961744308472
12.496214866638185,-7.968321323394776,8.691335678100586,1.2188565731048584,-2.4939177036285405,-2.7812938690185547
10.22540283203125,-5.915888786315918,9.708439826965334,1.7598562240600586,-2.176576614379883,-2.228911638259888
8.426241874694826,-3.9416627883911133,10.705419540405273,1.8464452028274538,-1.7462806701660156,-1.684228301048279
6.426033020019531,-2.301724433898926,11.023762702941896,1.5776904821395876,-1.2104716300964355,-1.2120697498321533
4.178653717041016,-0.9995573163032533,11.238052368164062,1.111967444419861,-0.6528737545013428,-0.877084791660309
2.6511161327362065,-0.6840370297431947,11.156988143920898,0.5750601887702943,-0.12932963669300082,-0.6519842147827148
1.6611577272415163,-0.8521462678909302,10.886981010437013,0.1528020352125168,0.38367295265197754,-0.530436933040619
1.0692971944808962,-1.0520175695419314,10.57377815246582,-0.13603779673576355,0.9106160998344422,-0.4766103327274323
1.1633857488632204,-0.9556925892829896,10.824081420898438,-0.3668384552001953,1.4748381376266482,-0.43446141481399536
1.4552483558654785,-0.9389785528182983,11.09548568725586,-0.5893930196762085,2.0999364852905273,-0.40074858069419866
0.6915675401687622,-0.7731310725212098,10.295138359069826,-0.8230031728744507,2.7612030506134038,-0.32014256715774536
-1.0442805290222168,-0.11271125078201294,8.946835517883303,-1.1433693170547488,3.260420322418213,-0.15276268124580383
-2.55154824256897,-0.38731318712234497,7.03916072845459,-1.4993098974227907,3.570350170135498,0.0878567472100258
-3.861835479736328,-0.851675570011139,5.023506164550781,-1.7088128328323366,3.663882970809937,0.28735411167144775
-4.693498611450195,-0.7353028655052186,3.96446442604065,-1.804155468940735,3.558534622192383,0.4657092988491059
-3.976486444473267,-0.4505743980407715,4.311087608337402,-1.8887548446655273,3.422401666641236,0.6091970801353456
-2.590632915496826,0.2520598769187927,5.318456649780273,-2.0094511508941655,3.3775343894958496,0.7231038212776185
-1.7488194704055788,0.34437012672424316,6.2715301513671875,-2.1326010227203374,3.4729340076446538,0.7949265241622925
-1.410653829574585,0.4464063942432404,6.659208774566651,-2.202788829803467,3.610709428787232,0.8422907590866089
-1.4127382040023806,0.550739347934723,6.720649719238281,-2.2340168952941895,3.715377569198609,0.862351953983307
-0.8789269924163818,1.1249408721923828,7.32898759841919,-2.3149955272674565,3.785836696624756,0.8952582478523256
0.38231071829795843,1.824587106704712,8.376140594482422,-2.499321460723877,3.9034619331359863,0.9519371390342714
1.4747070074081423,2.136648654937744,9.378105163574219,-2.7014696598052983,4.104021072387695,0.9871942400932313
1.9874975681304932,2.661383628845215,9.65200710296631,-2.900070428848267,4.342266082763672,1.0027415752410889
1.9738138914108279,2.968364000320435,9.265564918518068,-3.069155216217041,4.51324224472046,0.9908750057220459
2.291034698486328,3.3548562526702885,9.159386634826662,-3.2016053199768066,4.583555221557617,0.9361537098884584
3.1213507652282715,3.5303969383239746,9.859485626220703,-3.294026613235474,4.609580993652344,0.8306420445442201
4.342632770538331,3.7340018749237065,11.085515022277834,-3.348081111907959,4.668062686920167,0.6868985295295716
5.4392290115356445,4.463146686553956,12.611188888549805,-3.4073257446289062,4.765273571014405,0.5311332941055298
6.461359977722168,5.208705425262452,13.439242362976076,-3.5740513801574707,4.886341094970703,0.40030708909034735
6.877103328704835,5.202312469482422,13.215665817260742,-3.7427675724029545,4.940341949462891,0.26901200413703924
6.934924602508546,5.772391319274902,12.82376003265381,-3.842610120773316,4.839855194091797,0.10250689089298248
7.4834136962890625,6.952469348907472,13.150581359863281,-3.985311985015869,4.616579532623292,-0.13743585348129272
8.709523200988771,7.995588779449464,14.234676361083984,-4.204110622406007,4.384367465972901,-0.46916455030441284
10.25296401977539,9.028861999511719,15.545392990112305,-4.486530780792237,4.1907548904418945,-0.8314288258552552
12.246190071105959,10.425887107849123,16.587646484375,-4.834614276885987,4.040465354919434,-1.1462244987487793
13.349480628967287,11.000157356262209,16.093124389648438,-5.150718688964844,3.8970568180084233,-1.4557476043701172
13.649971008300781,11.243101119995117,14.817209243774414,-5.29957389831543,3.637646198272705,-1.7870343923568728
14.382464408874513,11.469770431518555,13.865808486938477,-5.273112773895265,3.294715404510498,-2.1306860446929936
15.170909881591797,12.937916755676271,13.117120742797852,-5.133364677429199,2.965891599655152,-2.462652921676636
16.70970916748047,14.968579292297365,12.681471824645998,-5.086690902709961,2.696503877639771,-2.7356338500976562
16.73515892028809,14.532613754272461,10.592351913452148,-4.976796627044679,2.550881624221802,-2.9441747665405273
15.401090621948242,11.650195121765138,7.702016830444336,-4.462989330291749,2.2973642349243164,-3.132618665695191
15.822533607482912,9.010073661804201,5.961393356323242,-3.5794990062713627,1.9044265747070312,-3.291477680206299
16.39321517944336,8.059519767761232,4.253923416137695,-2.6101861000061035,1.5616420507431032,-3.347994804382324
17.33270072937012,7.848224163055421,2.061165094375611,-1.8961176872253418,1.300046682357788,-3.1842324733734135
17.579753875732422,6.801042556762695,-0.9871532917022705,-1.4234662055969238,1.04616916179657,-2.7338919639587402
16.696537017822266,5.576754570007324,-3.432417392730713,-1.0281461477279665,0.6797635555267334,-2.033682346343994
14.969668388366701,4.549779415130616,-4.472574234008789,-0.5807877779006958,0.15723444521427157,-1.2594432830810547
11.712127685546875,-8.742338180541992,-1.7222851514816286,1.228159308433533,-0.5391884446144105,-0.5156759023666382
10.407413482666016,5.71346139907837,3.2330379486083984,4.33137321472168,-0.9071801304817201,-0.5155795812606812
-2.1769359111785893,7.64379644393921,21.6244068145752,3.2087154388427734,-0.17453198134899142,0.31424704194068914
1.2490499019622803,-5.389379501342773,16.263240814208984,2.076169013977051,-0.42125114798545843,-0.06592348217964172
1.9064317941665652,3.5810976028442383,10.418140411376953,1.94663405418396,-1.186202049255371,-1.534668564796448
9.148309707641602,-4.233877658843995,11.074274063110352,1.9141111373901367,-1.5093489885330202,-1.5627272129058838
19.88384246826172,1.0944217443466189,19.679325103759766,1.462194085121155,-1.1201577186584473,-0.7081089019775391
9.370294570922852,8.093816757202148,14.628764152526857,1.0006192922592165,0.09070082008838654,-0.15813215076923373
-0.39536207914352417,7.300151824951172,10.298688888549805,0.6253717541694642,-0.0730712339282036,-0.12608098983764648
3.110409498214722,4.930653095245362,12.127440452575685,0.273027390241623,-0.3091890811920166,-0.22043929994106296
5.118473052978516,-0.7181847095489502,10.47349739074707,0.1350054144859314,-0.20906554162502292,-0.19117413461208346
4.22929573059082,-0.7768487334251405,10.079234123229982,0.05876055359840393,-0.1290829032659531,-0.08686509728431702
3.8173658847808842,0.07839374244213104,10.228609085083008,0.005616219248622657,-0.09543170779943468,-0.10447406768798828
4.1683454513549805,-1.2282774448394775,10.045409202575685,-0.0014739058678969743,-0.0948149561882019,-0.13362844288349154
4.5325684547424325,-1.6410331726074219,9.983541488647461,0.011700524017214775,-0.10211437195539476,-0.094060055911541
4.283621788024902,-0.9668188095092773,10.11946201324463,-0.0019331101793795824,-0.08489813655614854,-0.057150088250637054
4.377385139465332,-0.9489372372627259,10.069765090942383,-0.021909320726990703,-0.060108419507741935,-0.039379581809043884
4.141911983489991,-1.3320088386535645,9.996893882751467,-0.001983863301575184,-0.06312932819128038,-0.02510051801800728
4.016570568084718,-1.3793895244598389,9.894497871398928,0.015520503744482994,-0.06651725620031358,-0.023233709856867794
3.7375886440277104,-1.2155374288558962,9.812870025634766,0.018920792266726497,-0.08353821933269501,-0.02626084722578526
3.785679817199707,-0.9181307554244995,9.850684165954592,0.02645953744649887,-0.09927982091903687,-0.03305891528725625
3.8580522537231445,-0.7678503394126893,9.804751396179201,0.027212005108594894,-0.11533374339342119,-0.03693068027496338
4.024603843688965,-0.7858117818832397,9.988700866699219,0.027223972603678707,-0.11895467340946198,-0.037917360663414
4.027621746063233,-0.8101158738136293,10.01711177825928,0.011040058918297293,-0.11317853629589081,-0.02942265756428242
4.0300049781799325,-0.7796338796615601,9.982034683227539,-0.01654164120554924,-0.11334922909736633,-0.019437143579125408
4.039742469787598,-0.7006254196166992,9.858333587646484,-0.03886504843831063,-0.10755467414855957,-0.01512653660029173
4.117960453033448,-0.7451027631759644,9.825575828552248,-0.05568362772464752,-0.0943053886294365,-0.012086519040167333
4.158699035644531,-1.0223193168640137,9.716043472290039,-0.05421893298625946,-0.0729888752102852,-0.010276932269334793
4.046038150787354,-1.354335427284241,9.535868644714357,-0.04253178462386132,-0.053895402699708946,-0.013668732717633247
3.9296286106109624,-1.4603966474533083,9.461126327514648,-0.015017176046967506,-0.04751845076680184,-0.02459781989455223
3.997943878173828,-1.3397576808929443,9.516774177551271,0.011108549311757088,-0.05110746994614602,-0.04257947579026223
4.003046512603761,-1.3770133256912234,9.559661865234375,0.035626489669084556,-0.04240728169679642,-0.06357429176568986
4.034569263458253,-1.3675925731658936,9.595848083496094,0.05417012423276901,-0.03231502324342728,-0.0780569836497307
3.9910693168640137,-1.4134591817855837,9.63625717163086,0.06907116621732713,-0.02317032217979431,-0.08798902481794359
4.079366207122804,-1.4204432964324951,9.681309700012209,0.08571270108222961,0.004299137275665999,-0.09446422010660173
4.25650453567505,-1.034851312637329,9.735546112060547,0.0899135023355484,0.009493530727922918,-0.08490824699401855
4.008601188659668,-0.9547111988067627,9.818308830261232,0.0804867148399353,0.029153775423765182,-0.06344806402921678
3.9150519371032715,-1.0127791166305544,9.855797767639162,0.05948775634169579,0.019308242946863174,-0.05675798282027245
3.4792997837066655,-1.1168203353881836,9.530012130737305,0.04439887031912804,0.0030130003578960896,-0.05809830129146576
3.209614515304566,-1.3028290271759033,9.84413242340088,0.022955322638154033,-0.09059792757034302,-0.09964152425527574
4.427347660064698,-0.5625182390213013,10.09823513031006,-0.008703778497874739,-0.11556973308324815,-0.10618650913238525
4.112832069396973,-0.8146466612815858,9.765427589416506,-0.032430987805128104,-0.0874253660440445,-0.07028045505285264
3.6326458454132085,-1.0172946453094482,9.86359977722168,-0.049042526632547385,-0.11868022382259369,-0.07944843173027039
4.027957439422608,-0.6015421152114868,9.98174571990967,-0.07618516683578491,-0.14204163849353793,-0.0877130925655365
4.172129154205323,-0.7707866430282593,9.74259662628174,-0.09897596389055253,-0.14216689765453341,-0.07193522155284882
3.438745737075806,-1.341940760612488,9.485180854797365,-0.10597205907106401,-0.16688069701194763,-0.07468306273221971
3.907167911529541,-1.0438892841339111,9.770804405212404,-0.10415145754814148,-0.20300404727458957,-0.113189734518528
3.869121551513672,-1.0522167682647705,9.616116523742678,-0.1165919676423073,-0.1958516240119934,-0.11024031788110734
3.2543284893035893,-1.4451656341552734,9.696870803833008,-0.1145845353603363,-0.22827783226966858,-0.17379637062549594
4.1404995918273935,-0.7929454445838929,10.077398300170898,-0.13030177354812622,-0.298761397600174,-0.16217538714408875
3.2281711101531987,-1.2370544672012331,9.990631103515625,-0.15893197059631348,-0.3576915562152863,-0.17503429949283603
3.6090316772460938,-1.624776840209961,10.108880996704102,-0.15810927748680115,-0.4558067619800568,-0.24544310569763184
3.601604461669922,-0.8940912485122681,10.136965751647951,-0.17522118985652926,-0.5607872605323793,-0.30727195739746094
4.3235979080200195,-1.4162553548812868,10.138947486877443,-0.2185589075088501,-0.6980740427970887,-0.35298240184783936
3.9133088588714604,-0.9103225469589233,10.216829299926758,-0.2678768336772919,-0.8297878503799438,-0.386401891708374
3.887647390365601,-0.6047888994216919,10.43858051300049,-0.3297807574272156,-0.9779787659645082,-0.4492982029914856
3.5520327091217045,0.5302751064300537,10.835207939147951,-0.48883259296417236,-1.2208435535430908,-0.4303589761257172
2.4476244449615483,0.2174634337425232,10.916077613830568,-0.684350073337555,-1.590813398361206,-0.38668707013130194
1.6034913063049316,1.219006419181824,11.34590816497803,-0.9185214042663574,-2.154885053634644,-0.28135678172111517
0.7850000858306885,0.9985336065292358,11.899502754211428,-1.0922232866287234,-2.862844944000244,-0.1634679883718491
0.33354461193084717,0.7332228422164917,12.408373832702638,-1.1587864160537722,-3.6214087009429936,-0.16041794419288635
-0.09738744795322418,0.11972126364707947,12.105898857116701,-1.077488899230957,-4.576068401336671,-0.2234373688697815
