AccX,AccY,AccZ,GyrX,GyrY,GyrZ
0.0006008759955875577,-0.00010607725562294946,0.001231457805261016,2.617794621073699e-07,-2.565293698353344e-06,-1.8016205558524234e-06
4.633197307586671,-0.7940253019332886,9.473888397216797,-0.0007820918108336629,-0.01957583799958229,-0.012817567214369774
4.640571117401124,-0.8045971393585205,9.451650619506836,-0.0024661757051944733,-0.015229598619043829,-0.010089440271258354
4.64453935623169,-0.8260804414749146,9.444755554199219,0.0011821152875199916,-0.01448722090572119,-0.01055857539176941
4.641689300537109,-0.8437014818191528,9.437944412231445,-0.0004897155449725689,-0.01232505589723587,-0.010659166611731054
4.608249664306641,-0.8164572715759277,9.445394515991211,5.146214607520961e-05,-0.010468127205967903,-0.009970271959900856
4.6164655685424805,-0.8171004652976991,9.436712265014648,0.0009230386931449175,-0.014309410937130453,-0.010527128353714943
4.636458396911621,-0.8199203610420228,9.449700355529787,0.003787687281146646,-0.013851427473127844,-0.01145627535879612
4.617937088012695,-0.8366286754608154,9.40402126312256,0.003112336155027151,-0.013252521865069868,-0.01193242147564888
4.63328742980957,-0.8128911256790161,9.444659233093263,0.002196407876908779,-0.013965471647679807,-0.012495602481067182
4.651840686798097,-0.8307299613952637,9.453056335449219,0.0005678509478457273,-0.013410916551947594,-0.012696233578026296
4.632774829864503,-0.8098636865615845,9.445410728454592,0.0025139274075627327,-0.011728644371032715,-0.01200744789093733
4.619927883148194,-0.8153125643730165,9.46009922027588,0.0012707317946478727,-0.010315090417861938,-0.009815420024096968
4.632115840911866,-0.8133718967437744,9.4494104385376,0.00024341409152839336,-0.011293960735201836,-0.012523278594017029
4.638336181640625,-0.8210214376449585,9.433786392211914,-0.0007668542675673962,-0.013074428774416448,-0.010673914104700089
4.6027235984802255,-0.8125840425491333,9.473032951354982,0.0001342519244644791,-0.011703986674547195,-0.010078622959554197
4.615373611450195,-0.8118807077407837,9.439578056335451,-0.0012401315616443755,-0.012012647464871407,-0.009091583080589773
4.617776393890382,-0.8359006643295288,9.435803413391115,-0.0035962448455393314,-0.013056772761046888,-0.009583835490047933
4.621357440948487,-0.8206165432929994,9.46615982055664,-0.002447216771543026,-0.012731424532830717,-0.010837897658348083
4.623147964477539,-0.8318293690681459,9.432147979736328,-0.0017295443685725333,-0.01107234973460436,-0.010388201102614403
4.6386213302612305,-0.796518623828888,9.423377037048342,-0.0011578828562051058,-0.012904032133519651,-0.011503241956233978
4.649714946746827,-0.816298246383667,9.436345100402834,-0.001363652991130948,-0.011267696507275106,-0.00994068291038275
4.637283802032472,-0.8021371364593506,9.446370124816896,0.0010676722740754487,-0.01039855182170868,-0.009348521940410139
4.631808280944824,-0.7886791825294496,9.44150161743164,-0.0019307767506688833,-0.00780340563505888,-0.009083495475351812
4.621936321258546,-0.8163145780563354,9.465227127075195,-0.0003190579300280661,-0.009350085631012917,-0.009035698138177397
4.63116455078125,-0.7957305312156678,9.45252323150635,-0.0021809178870171313,-0.010886453092098236,-0.006403064355254173
4.626772880554199,-0.8233745098114014,9.473793029785156,-0.0024255639873445034,-0.009816157631576063,-0.006805810146033764
4.612342834472656,-0.8275822401046753,9.470105171203615,-0.003382826922461391,-0.011189171113073828,-0.009606648236513138
4.635550022125245,-0.8168482780456543,9.462746620178224,-0.0011595371179282665,-0.00932497810572386,-0.010074809193611145
4.6112685203552255,-0.8126925230026245,9.436622619628906,-0.0018582551274448633,-0.009971239604055883,-0.008344010449945928
4.588248252868652,-0.8253655433654785,9.428511619567873,-0.002028031274676323,-0.011905548162758352,-0.009774096310138702
4.618290424346925,-0.833533763885498,9.441575050354006,-0.0024073822423815727,-0.01211673952639103,-0.008694008924067022
4.6411943435668945,-0.8104676008224487,9.443912506103516,-0.003233687719330192,-0.01258101873099804,-0.007922594435513021
4.6237897872924805,-0.825758695602417,9.459695816040039,-0.003349387319758535,-0.012485949322581291,-0.009163621813058853
4.630806922912598,-0.7890583276748657,9.454996109008789,-0.006592822261154652,-0.012997447513043882,-0.008562762290239334
4.6494951248168945,-0.8112828135490419,9.454526901245117,-0.005159758497029544,-0.01312857959419489,-0.008486507460474968
4.632924556732179,-0.8248693943023682,9.444818496704102,-0.005324149038642646,-0.012211572378873825,-0.00753861339762807
4.641069889068604,-0.8344460129737855,9.443849563598633,-0.003428339958190918,-0.010226436890661718,-0.007016094867140056
4.611793994903565,-0.8438079953193666,9.4252405166626,-0.003371074097231031,-0.010319553315639496,-0.008645008318126203
4.6304731369018555,-0.8400729298591615,9.4383020401001,-0.0011956652160733938,-0.007850410416722298,-0.007704599294811488
4.622387409210206,-0.8522131443023682,9.458364486694336,-0.0009872571099549532,-0.008345349691808225,-0.00799696147441864
4.612500190734863,-0.8601598143577577,9.459123611450195,-8.277206507045776e-05,-0.008809476159512998,-0.008930311538279058
4.5919904708862305,-0.8447671532630922,9.406875610351562,0.0004919429775327444,-0.008736985735595228,-0.010246941819787025
4.603652477264405,-0.8495866060256958,9.44542121887207,0.0008045745198614896,-0.010611814446747305,-0.01205584965646267
4.607155323028565,-0.8205759525299072,9.462697982788086,7.056321192067116e-05,-0.012695734389126303,-0.012353505939245224
4.609230518341065,-0.7947827577590942,9.487241744995117,-0.0013371591921895742,-0.015256593935191633,-0.011394015513360502
4.5993852615356445,-0.7929106950759888,9.46544075012207,-0.004570426419377327,-0.017881041392683986,-0.010675817728042603
4.626067161560059,-0.8271880149841309,9.434141159057617,-0.0057875607162714005,-0.018049422651529312,-0.01130210515111685
4.636724472045898,-0.8265043497085571,9.432766914367678,-0.004278734792023898,-0.017008479684591293,-0.012115289457142355
4.649096965789796,-0.809218168258667,9.469367980957031,-0.002712349407374859,-0.014883399941027166,-0.009971604682505133
4.6568007469177255,-0.8035816550254823,9.431915283203125,-0.0014728320529684427,-0.01153542473912239,-0.00798196066170931
4.632372856140137,-0.8228711485862733,9.43540668487549,-0.0014559188857674599,-0.0059062885120511055,-0.0067992168478667745
4.6440491676330575,-0.8427589535713197,9.426135063171388,-5.2684819820569835e-05,-0.006161289289593697,-0.008636477403342726
4.598194599151612,-0.8638257384300233,9.46932888031006,0.0031294825021177535,-0.007995231077075005,-0.00829392671585083
4.595717906951905,-0.8809069395065308,9.459160804748537,0.002871389733627439,-0.008899569511413574,-0.010452087037265302
4.602386951446534,-0.8400406241416932,9.457753181457521,0.00346170854754746,-0.011603183113038542,-0.013058360666036606
4.622055530548097,-0.8229764699935913,9.435061454772951,0.0016844437923282385,-0.014480258338153364,-0.013037050142884254
4.634015083312988,-0.7958749532699585,9.462330818176271,0.0016694721998646858,-0.014866698533296585,-0.01119333878159523
4.621682167053223,-0.7915451526641846,9.452386856079102,-0.00039131223456934094,-0.01230443734675646,-0.009519258514046669
4.637438774108887,-0.8124325275421143,9.447874069213867,-0.0006086830398999156,-0.009874251671135427,-0.0087428018450737
4.6349453926086435,-0.8284734487533569,9.45431900024414,0.0007812305702827872,-0.007594062015414238,-0.009754472412168981
4.614492416381836,-0.8524808287620546,9.430076599121094,0.00031529014813713735,-0.008805818855762482,-0.00828985683619976
4.598003387451172,-0.8371939063072206,9.458981513977053,0.003949446603655815,-0.007916701026260855,-0.009401464834809303
4.578261375427246,-0.8539106845855713,9.432452201843263,0.0034447696525603537,-0.011452496983110906,-0.01135045476257801
4.607839584350586,-0.8461346626281738,9.434939384460451,0.0035149769391864543,-0.013661827892065048,-0.01414118241518736
4.618923187255859,-0.8150514960289003,9.449984550476076,0.003790951101109386,-0.013564933091402054,-0.01606914773583412
4.612135410308839,-0.8422606587409974,9.458969116210938,0.00555794034153223,-0.011572455056011679,-0.016287822276353836
4.61661434173584,-0.8317619562149048,9.448890686035156,0.006955180782824756,-0.013042534701526167,-0.016363583505153656
4.640834808349609,-0.819980561733246,9.463808059692383,0.0074552525766193875,-0.010751284658908844,-0.01522353943437338
4.596308708190918,-0.8106394410133363,9.436079978942873,0.005198460537940265,-0.010847201570868492,-0.014082120731472969
4.613992691040039,-0.8420474529266357,9.456419944763185,0.0074496082961559296,-0.01307389419525862,-0.01643902063369751
4.595865726470948,-0.8037585020065308,9.45521354675293,0.006379847414791584,-0.010725921019911766,-0.01582417450845242
4.647299766540527,-0.7977555990219116,9.455462455749513,0.00475432025268674,-0.011129656806588173,-0.013820768333971502
4.6210784912109375,-0.812476933002472,9.467159271240234,0.005153658334165812,-0.009893808513879776,-0.013638872653245926
4.614775657653809,-0.7987018823623657,9.456975936889648,0.0025480005424469714,-0.011048872023820877,-0.011327442713081838
4.59354066848755,-0.810665488243103,9.443762779235842,0.0020104527939111,-0.012606284581124784,-0.012963356450200081
4.6354827880859375,-0.8123451471328735,9.459232330322266,0.0021190987899899483,-0.011779771186411383,-0.012504639104008675
4.636972904205323,-0.7869819402694702,9.445374488830568,0.0005653943517245353,-0.012852456420660019,-0.01093483529984951
4.625943660736085,-0.8163824081420898,9.429430961608888,0.0003246201085858047,-0.00947550777345896,-0.010994436219334602
4.609261989593507,-0.8395583033561708,9.430527687072756,0.0012760990066453817,-0.009752630256116392,-0.011990806087851524
4.626739025115968,-0.8177680969238281,9.445778846740724,0.0005467470036819577,-0.00916100759059191,-0.01130884513258934
4.621393680572511,-0.8113306760787964,9.448374748229982,0.003121779998764396,-0.01042703352868557,-0.011086391285061836
4.624847888946534,-0.8238581418991089,9.440347671508789,0.002358066849410534,-0.009156881831586363,-0.010707037523388863
4.606462001800538,-0.8072155714035034,9.460547447204592,-9.967073128791527e-05,-0.010963258333504202,-0.011586256325244904
4.610457420349121,-0.800050437450409,9.46539306640625,4.120012818020769e-05,-0.01248583011329174,-0.010577416978776457
4.61887264251709,-0.8038942813873291,9.477245330810547,-0.0016237362287938595,-0.01286022085696459,-0.009399923495948316
4.619511604309082,-0.8140568733215332,9.46620845794678,-0.0020865581464022402,-0.013769960030913353,-0.01059642340987921
4.628961563110352,-0.7899999618530273,9.446911811828615,-0.0018353458726778629,-0.013594814576208593,-0.009529074653983116
4.62157964706421,-0.8389034271240234,9.457685470581055,-0.0018261341610923412,-0.012233296409249306,-0.009049150161445143
4.618789196014405,-0.8208602666854858,9.451854705810547,-0.002152068773284555,-0.011917086318135262,-0.009025804698467255
4.604430198669434,-0.8163847923278809,9.45767116546631,-0.0028325750026851897,-0.011550448834896088,-0.01028250437229872
4.606545448303223,-0.8230845928192139,9.437509536743164,-0.0011325404047966003,-0.013419702649116516,-0.01092458423227072
4.608948707580566,-0.8345157504081727,9.44483280181885,0.00012323645933065566,-0.014663070440292358,-0.011842939071357252
4.642172813415527,-0.8235560655593872,9.4408655166626,0.00011000132508343087,-0.012433020398020744,-0.012076538056135178
4.646249294281007,-0.7973847389221191,9.457606315612795,0.0005141959991306067,-0.012852813117206098,-0.009225955232977867
4.634293556213379,-0.8172070980072021,9.450245857238771,0.000285852060187608,-0.01218440756201744,-0.009614658541977407
4.599093437194824,-0.8070164918899536,9.461926460266115,-0.0021431315690279007,-0.012573675252497198,-0.0089701097458601
4.627762794494629,-0.798864483833313,9.443152427673342,-0.0027472802903503184,-0.013189373537898064,-0.008642228320240974
4.637809753417969,-0.7920430302619935,9.431411743164062,-0.004123013000935317,-0.01141664944589138,-0.0066313142888247975
4.628800392150879,-0.8346273303031922,9.439708709716797,-0.003710148157551885,-0.008835815824568273,-0.006331741809844971
4.584127426147461,-0.8525189161300659,9.452504158020021,-0.0007420341135002674,-0.008785612881183624,-0.007938490249216558
4.588744163513184,-0.8738347291946411,9.455068588256836,-0.0007632490596733988,-0.00827859528362751,-0.011127734556794167
4.610601425170898,-0.8209134340286255,9.476350784301758,0.000761896837502718,-0.014074402861297132,-0.01238308660686016
4.600691795349121,-0.7998784780502319,9.475669860839844,-0.0005078978720121087,-0.014722528867423536,-0.01089794933795929
4.625411033630371,-0.7969245314598085,9.458842277526857,-0.000616170873399824,-0.015721507370471954,-0.008781920187175276
4.611713886260987,-0.8268989324569702,9.478736877441406,-0.002894127974286676,-0.014929594472050667,-0.010640669614076614
4.633130550384522,-0.801774561405182,9.462813377380373,-0.0033351480960845947,-0.013944110833108427,-0.009402196854352951
4.657027244567871,-0.8204995393753052,9.430356025695803,-0.003891324391588569,-0.012680758722126486,-0.007026626728475094
4.643828868865968,-0.830004394054413,9.472704887390138,-0.002776063047349453,-0.01065561827272177,-0.008199071511626244
4.638291358947754,-0.8423559069633485,9.430517196655273,-0.001345331547781825,-0.010799297131597997,-0.006691089365631343
4.612182140350343,-0.8373039364814759,9.43275260925293,-0.0012928519863635302,-0.01044514309614897,-0.00785071775317192
4.621354103088379,-0.8404541611671449,9.445733070373537,-6.0619349824264646e-05,-0.011960184201598167,-0.009668144397437574
4.620182991027832,-0.8566545248031616,9.453269958496094,0.0007101255469024181,-0.012278486974537374,-0.010217789560556412
4.614312648773194,-0.8670713901519775,9.44252681732178,0.0033994440454989676,-0.011018132790923119,-0.01205284334719181
4.616667747497559,-0.8207697868347168,9.452017784118654,0.002946392865851522,-0.011973468586802483,-0.012517566792666914
4.629822731018066,-0.8025206923484803,9.445550918579102,0.002444394631311298,-0.010629489086568357,-0.012018896639347076
4.62210512161255,-0.7920491695404053,9.474890708923342,0.0024723168462514877,-0.010830459184944631,-0.01172153651714325
4.621538639068604,-0.7928541898727417,9.453239440917969,0.001211634837090969,-0.00924597028642893,-0.011132742278277876
4.614135265350343,-0.818988859653473,9.450809478759766,0.0003382476279512048,-0.010653731413185598,-0.010591935366392136
4.614299774169922,-0.8350589275360107,9.469703674316406,0.0027951104566454887,-0.010356493294239044,-0.011081171222031118
4.6178860664367685,-0.846847951412201,9.439915657043459,0.0018806444713845851,-0.01016554981470108,-0.010134548880159857
4.63825798034668,-0.8034785985946655,9.445858955383303,0.003475565928965807,-0.011202386580407621,-0.008894191123545172
4.624520301818848,-0.8144049644470215,9.442530632019045,0.0015693323221057653,-0.007475076708942653,-0.009770825505256653
4.614060401916504,-0.8093239665031434,9.460880279541016,0.0009866564068943262,-0.0082518570125103,-0.007826664485037329
4.619290351867676,-0.8349672555923462,9.47762966156006,0.002425702288746834,-0.008293448947370054,-0.00784272886812687
4.622846603393555,-0.8255754709243774,9.45187759399414,0.002763767493888736,-0.008948924019932747,-0.009833384305238724
4.617631435394288,-0.801242470741272,9.451118469238281,0.002355540404096246,-0.007862146943807602,-0.008799877949059011
4.629497528076172,-0.8063456416130067,9.470862388610842,0.002222384093329311,-0.0071036950685083875,-0.008788086473941803
4.620591640472413,-0.8287725448608398,9.473409652709961,0.0012929131044074895,-0.007870782166719437,-0.007268103305250407
4.610949039459229,-0.8241559267044067,9.455999374389648,0.0011954169021919372,-0.007114540785551071,-0.0075976550579071045
4.596983909606934,-0.823398232460022,9.441308021545412,0.001810100511647761,-0.0065054213628172874,-0.008815973065793516
4.5935821533203125,-0.8386134505271913,9.45736312866211,0.00280982768163085,-0.00771320890635252,-0.009318080730736257
4.597084999084473,-0.8394887447357178,9.44510269165039,0.00537958275526762,-0.008051021955907347,-0.011095084249973297
4.613950729370117,-0.7820240259170532,9.447145462036133,0.006131606176495552,-0.008169225417077543,-0.011350772343575956
4.643694400787354,-0.7909730672836304,9.466436386108398,0.004511642269790173,-0.00647382764145732,-0.010766597464680672
4.610591888427734,-0.81756591796875,9.425714492797852,0.005390500184148551,-0.005362449679523707,-0.009037092328071594
4.609395503997804,-0.8170247077941895,9.467639923095703,0.006364862434566021,-0.005470172036439181,-0.010417552664875984
4.62830686569214,-0.7989081144332886,9.45737934112549,0.005662396550178528,-0.003537923796102405,-0.010964092798531057
4.627272605895996,-0.773295521736145,9.460847854614258,0.005069097969681025,-0.0035136397927999496,-0.0077606779523193845
4.596426963806152,-0.8301972746849061,9.459736824035646,0.004737922456115485,-0.002922536106780172,-0.00796244852244854
4.577619552612305,-0.8444340229034424,9.472423553466797,0.004950829315930606,-0.004214253276586533,-0.01067894045263529
4.592200756072999,-0.7991150617599487,9.458958625793459,0.0057561397552490234,-0.004858128260821105,-0.011792575009167196
4.621711730957031,-0.7663078308105469,9.434593200683594,0.0031348208431154494,-0.005288309417665005,-0.009313947521150114
4.59605360031128,-0.8156273365020752,9.441668510437013,0.001244761748239398,-0.006749036721885204,-0.009473950602114202
4.583998203277589,-0.849337100982666,9.470936775207521,0.002865409478545189,-0.00799876917153597,-0.009296230971813202
4.599224090576172,-0.8100243806838989,9.498344421386719,0.002462533302605152,-0.008007339201867582,-0.011875561438500883
4.600045680999757,-0.7790336608886719,9.498658180236818,0.004190874751657248,-0.007964139804244041,-0.01031662803143263
4.618547916412354,-0.8358357548713685,9.494845390319826,0.001507962355390191,-0.010355591773986816,-0.008795167319476606
4.592941761016847,-0.8110730648040771,9.460875511169435,0.000972042267676443,-0.007900850847363472,-0.01094659883528948
4.614797592163086,-0.7942562103271484,9.462466239929201,0.003504744730889797,-0.008295313455164434,-0.009298843331635
4.60314702987671,-0.7884270548820497,9.430643081665039,0.0004808848898392171,-0.0052248453721404076,-0.007703511510044337
4.5980682373046875,-0.7953692078590394,9.464338302612305,0.0002679399331100285,-0.007085218094289303,-0.009093604050576689
4.601069927215577,-0.8178265690803529,9.495972633361818,0.0012044748291373253,-0.005367748904973269,-0.009532222524285316
4.59641981124878,-0.8291407227516175,9.495758056640625,4.0928051021182916e-05,-0.007544028572738171,-0.008464083075523376
4.605885982513429,-0.8012719750404359,9.481852531433107,-0.0009634816669858993,-0.009045528247952461,-0.008970712311565878
4.577040672302246,-0.7795568704605103,9.481184959411623,-0.0022183097898960114,-0.011599402874708176,-0.009935927577316763
4.581890106201172,-0.7897350192070008,9.46571159362793,-0.004260380752384663,-0.01604139991104603,-0.00994616188108921
4.59637212753296,-0.8413278460502626,9.444395065307617,-0.003185788169503212,-0.015776587650179866,-0.010972081683576109
4.597459316253663,-0.8323392271995546,9.47933578491211,-0.0015772000188007953,-0.016848590224981308,-0.012125867418944837
4.631457805633546,-0.7895315885543823,9.455978393554688,-0.0034251571632921696,-0.014885423704981804,-0.010550872422754766
4.62351942062378,-0.8103860020637513,9.474287033081055,-0.004269405268132687,-0.012121683917939665,-0.009558536112308502
4.625831127166749,-0.8109785914421083,9.473127365112305,-0.0019426337676122787,-0.010309748351573944,-0.008725684136152267
4.588601112365723,-0.7985436916351318,9.476009368896484,-0.0021214596927165985,-0.009981761686503889,-0.007101306691765785
4.5711870193481445,-0.8233401775360107,9.431798934936523,-0.0026474683545529842,-0.01067681610584259,-0.008775117807090284
4.580528736114503,-0.8413064479827881,9.482381820678711,-0.0021483367308974266,-0.012057128362357618,-0.008913572877645493
4.578059196472168,-0.8222953081130981,9.481204986572266,-0.003167963353917003,-0.015136277303099632,-0.01065792515873909
4.5751309394836435,-0.8466736078262329,9.477475166320803,-0.00327644101344049,-0.016729213297367096,-0.011164183728396894
4.599034309387207,-0.8439624905586244,9.4744348526001,-0.0020048639271408324,-0.019619463011622432,-0.013539576902985573
4.6193132400512695,-0.8087194561958314,9.468143463134766,-0.0048124738968908795,-0.019268546253442764,-0.012198469601571562
4.6207547187805185,-0.816822111606598,9.448151588439943,-0.00239099794998765,-0.018737303093075756,-0.01279918383806944
4.610621452331543,-0.8311548233032227,9.44420909881592,-0.0015387124149128797,-0.0181417316198349,-0.011896497569978239
4.629903793334961,-0.8286740779876709,9.46650505065918,-0.0007844424690119923,-0.01657974533736706,-0.011237436905503273
4.605844497680664,-0.8357948064804077,9.450533866882326,-0.0003936840512324125,-0.015205709263682365,-0.01489942613989115
4.592788219451905,-0.8562743067741395,9.469919204711914,0.003580772317945957,-0.014484816230833532,-0.0132720610126853
4.577617168426515,-0.8457845449447632,9.487234115600586,0.005001711193472148,-0.01571052148938179,-0.01578069664537907
4.60092830657959,-0.8321195244789125,9.48490619659424,0.006467174738645554,-0.016840379685163498,-0.018074804916977886
4.609296321868897,-0.7985445261001587,9.436731338500977,0.006220424082130195,-0.01695108413696289,-0.01919864304363728
4.6401472091674805,-0.7866315841674805,9.480603218078615,0.005708332639187575,-0.014425287023186684,-0.01750751957297325
4.643864154815675,-0.7738856077194214,9.481011390686037,0.004033410456031562,-0.013005176559090614,-0.013014617376029493
4.634397506713867,-0.8019074797630311,9.465027809143068,0.004323276225477458,-0.012353179045021536,-0.010702095925807953
4.623844146728516,-0.8352925777435303,9.466075897216797,0.005263992585241795,-0.010111502371728422,-0.010483523830771446
4.624061584472656,-0.8130849599838257,9.464656829833984,0.005960040260106326,-0.010053357109427452,-0.010911427438259125
4.643846035003663,-0.8166744112968446,9.460702896118164,0.00744679756462574,-0.005058850627392531,-0.011542204767465591
4.595106601715089,-0.7750075459480287,9.472937583923342,0.005316473543643951,-0.0008793032029643655,-0.0102064972743392
4.596854686737061,-0.8153525590896606,9.476590156555178,0.006630839314311744,-0.0006599711487069726,-0.009263944812119009
4.600723743438722,-0.8313623666763306,9.460294723510742,0.005345866084098816,-0.0012370367767289283,-0.009424998424947264
4.617384910583496,-0.7899831533432007,9.462356567382812,0.004041073378175498,-0.0032328227534890175,-0.008843471296131613
4.605681419372559,-0.8122943639755249,9.467620849609375,0.004330524243414402,-0.0020031011663377285,-0.006458328571170569
4.622083187103272,-0.7902729511260986,9.485689163208008,0.003286808729171753,-0.005367051344364882,-0.007748414762318134
4.634119033813477,-0.7991436719894409,9.440503120422365,0.003387401578947902,0.0011044777929782867,-0.0047637587413191795
4.636514186859132,-0.7860761880874634,9.42024040222168,0.005424042232334614,0.006281302776187659,-0.003588737454265356
4.623462677001953,-0.6521708965301514,9.439284324645998,0.005225561559200287,0.013787435367703438,-0.0017917234217748048
4.613323688507081,-0.6919816732406616,9.449353218078615,-0.0005930251791141928,0.01678764447569847,0.003851435845717788
4.592752456665039,-0.8080736994743348,9.415098190307617,-0.0034428127110004425,0.017433455213904384,0.0073345047421753415
4.603126525878906,-0.7813653945922852,9.467932701110842,-0.002704649232327938,0.01749433018267155,0.0056757936254143715
4.5601468086242685,-0.7665150165557861,9.470104217529297,-0.00856787618249655,0.01717830263078213,0.008682690560817719
4.576811790466309,-0.7041879892349243,9.523193359375,-0.015883380547165874,0.012507377192378044,0.011621146462857725
4.614423274993897,-0.7413918972015381,9.488774299621584,-0.023326724767684937,0.010665965266525747,0.014464910142123701
4.588597774505616,-0.666290283203125,9.541460990905763,-0.032486721873283386,0.0067108781076967725,0.02109217271208763
4.604126930236816,-0.710487186908722,9.522383689880373,-0.04618542268872262,0.005922887008637191,0.03025607392191887
4.560389995574952,-0.8696357607841493,9.452545166015625,-0.050335563719272614,0.0026355318259447817,0.03308800607919693
4.528727054595948,-0.9532074332237245,9.452217102050781,-0.042115475982427604,0.0032268445938825607,0.029733866453170776
4.609386920928956,-0.9137391448020936,9.414081573486328,-0.032229214906692505,0.005804209504276515,0.024639159440994263
4.563230514526367,-0.8201010227203369,9.399877548217773,-0.025277163833379745,0.013326801359653473,0.02219580672681332
4.467235565185547,-0.5818812251091005,9.553391456604006,-0.0420273095369339,0.0062336171977221974,0.024913456290960312
4.361756324768066,-0.8869518637657167,9.513716697692873,-0.062853641808033,-0.010251462459564209,0.025060687214136124
4.383400440216065,-0.8534582853317261,9.575898170471193,-0.07947351783514024,-0.03746475279331207,0.02012150920927525
4.37555742263794,-0.8996332287788392,9.574434280395508,-0.09621378034353258,-0.059552926570177085,0.01993805542588234
4.412525177001953,-0.9679712057113647,9.536086082458498,-0.09947916120290758,-0.0860908031463623,0.01093242969363928
4.4792938232421875,-0.7381004691123964,9.551432609558107,-0.11028242856264116,-0.11082018911838531,0.007759738713502884
4.350831985473633,-0.8816657066345215,9.605202674865724,-0.1291361898183823,-0.13888302445411682,0.005818623583763839
4.373183250427246,-0.93617844581604,9.70052242279053,-0.14118149876594543,-0.17927515506744385,-0.001634264015592635
4.442556381225586,-0.8788092732429506,9.804297447204592,-0.15433183312416077,-0.2271062880754471,-0.00568449217826128
4.348515510559082,-0.9258726239204408,9.789278984069826,-0.16586251556873324,-0.28630369901657104,-0.013189330697059631
4.281571865081788,-0.7475631833076478,9.934494018554688,-0.17801333963871005,-0.37061578035354614,-0.018944727256894115
4.089200019836426,-0.8136054873466493,10.130016326904297,-0.21334342658519748,-0.49098911881446844,-0.025700997561216354
3.45054841041565,-0.8906260132789613,10.431015968322756,-0.2531736493110657,-0.6754629015922547,-0.06137993186712265
2.684565544128418,-0.651564359664917,11.034422874450685,-0.332803100347519,-0.9782980680465698,-0.11750970780849457
1.4929970502853396,-1.0638846158981325,11.795603752136232,-0.4157314598560334,-1.4701974391937256,-0.14700691401958468
0.408764123916626,-2.3104944229125977,12.283559799194336,-0.3530587255954743,-2.204588651657105,-0.1727360486984253
0.7636256217956543,-2.5030508041381836,12.647472381591797,-0.09738002717494965,-2.9935438632965092,-0.3283788561820984
1.2921555042266846,-4.0131120681762695,12.594623565673828,0.23420816659927368,-3.8094651699066167,-0.6596121191978456
6.17363166809082,-4.635941982269288,14.740262031555178,0.5323727726936341,-4.5687360763549805,-1.1472693681716921
14.529407501220703,-4.087212562561035,19.66315460205078,0.4635222256183625,-4.713915348052979,-1.455486536026001
19.612258911132812,-6.178753852844238,16.69143104553223,0.02843664214015007,-4.411257266998292,-1.560427188873291
25.670873641967777,-13.054135322570803,13.469808578491211,0.8156647086143495,-4.556697845458984,-1.346379041671753
30.581312179565433,-14.696394920349123,16.397134780883793,1.8087549209594727,-3.938095331192017,-0.5173752307891846
28.534584045410156,-4.5243330001831055,15.622576713562013,2.526436567306519,-3.467636346817017,0.41518664360046387
27.095582962036136,2.745240926742554,18.549268722534183,1.2492039203643799,-2.491069555282593,1.0551135540008545
18.342262268066406,-0.2789596915245056,14.437262535095217,-0.1693462282419205,-2.221839427947998,1.0986309051513672
18.809766769409183,-4.911553859710694,15.037055969238281,-0.006340554915368557,-1.9599829912185671,0.6265137195587158
16.047418594360355,-3.528380870819092,15.584521293640138,0.6141602396965028,-1.298044800758362,0.06748427450656891
12.299442291259766,0.8006307482719422,14.75979518890381,0.7778184413909912,-0.724999487400055,-0.5325113534927368
8.92495632171631,1.48502516746521,13.561214447021484,0.48151949048042303,-0.2184460163116455,-1.0398857593536377
5.358194351196289,-1.2272006273269656,12.231721878051758,0.34664344787597656,0.23006026446819308,-1.4478662014007568
2.43137264251709,-3.131054401397705,11.202254295349123,0.5617655515670776,0.6017137765884399,-1.683503031730652
0.008176758885383606,-3.156490564346314,10.417126655578615,0.8546983599662782,0.9965697526931763,-1.698804020881653
-3.1050000190734863,-2.8029453754425053,8.840752601623537,0.9768496155738832,1.437654972076416,-1.5490562915802002
-6.304940223693848,-2.33204197883606,6.644208908081055,0.8414824604988099,1.7785289287567139,-1.2732907533645632
-9.274005889892578,-2.313915014266968,3.7889239788055424,0.5922548770904541,1.9591217041015625,-0.9238920807838441
-12.366077423095703,-2.2842273712158203,0.8380997180938721,0.4016041159629822,1.9030967950820925,-0.628491997718811
-13.602026939392092,-1.6582220792770388,-0.3280752897262573,0.14594954252243042,1.6632231473922732,-0.34076198935508734
-13.023991584777834,-1.9838351011276247,0.5488907098770142,-0.16956382989883423,1.492765784263611,-0.029186181724071503
-11.246074676513672,-2.727947235107422,2.3326179981231694,-0.42293673753738403,1.5615756511688232,0.2918991148471833
-10.008219718933107,-3.022284507751465,3.115121364593506,-0.5522735118865967,1.8355418443679812,0.6532086133956909
-9.417019844055178,-2.3808577060699467,2.678302764892578,-0.6040974855422974,2.117352724075318,0.9925585389137269
-8.688679695129396,-1.0025132894515993,2.1438338756561284,-0.6809299588203431,2.3057894706726074,1.2636648416519167
-7.067464351654054,0.014081846922636032,2.1455099582672124,-0.8039700388908387,2.42463231086731,1.4418189525604248
-5.267251968383789,1.158572554588318,2.02064061164856,-0.885605275630951,2.514298439025879,1.5469828844070437
-3.0896508693695073,2.6736044883728027,1.869277000427246,-0.9866732954978944,2.5440335273742676,1.5599613189697266
0.014629803597927094,3.0244455337524414,2.1565244197845463,-1.0558043718338015,2.4996137619018555,1.4770644903182986
3.2954249382019043,3.1248781681060795,3.047710180282593,-1.046805024147034,2.4438011646270756,1.3429670333862305
5.926096439361573,2.7428925037384038,3.639580726623535,-0.9511623382568359,2.420325040817261,1.1657977104187012
8.445679664611818,1.8669451475143435,3.7937767505645756,-0.7532374858856201,2.36266303062439,0.9891481995582582
10.230950355529787,1.648167610168457,3.3709604740142827,-0.5465987920761108,2.188945531845093,0.8759807348251343
11.473244667053224,0.7265287637710571,2.683409929275513,-0.37726411223411566,1.850678324699402,0.8065240383148193
12.717985153198242,1.2666926383972168,2.730110883712769,-0.27037391066551214,1.3507580757141113,0.8103987574577333
15.09830951690674,1.0141385793685915,3.7000634670257573,-0.28857600688934326,0.9074454903602601,0.867848575115204
15.900426864624023,0.2779931724071503,3.9371705055236816,-0.18175916373729709,0.5953934192657471,0.8931295275688172
15.671116828918459,0.5351879000663758,4.055418968200684,0.006741479970514774,0.291872501373291,0.8905580639839173
15.569847106933594,1.4448328018188477,4.9245758056640625,0.09646693617105485,0.073346808552742,0.9163532853126527
14.158169746398928,2.1596186161041264,4.802166938781738,0.12915296852588656,0.0006068442016839981,0.9317464828491211
12.539789199829102,2.1277480125427246,3.7546689510345463,0.18236681818962097,-0.12296206504106523,0.8848022222518921
10.797558784484865,1.7253267765045166,2.7055056095123295,0.2932214438915253,-0.42982533574104315,0.7816367149353027
30.613222122192386,0.5463364720344545,4.485811710357667,0.06724941730499268,-1.3211773633956911,0.8465687036514282
53.61527633666993,13.182921409606935,45.28845596313477,-0.34810012578964233,0.6347199082374574,0.4565862119197846
-8.778759002685547,-5.049110412597656,0.9929735064506532,0.26832166314125067,1.098240613937378,-0.17035202682018283
4.009289741516113,-2.7295913696289062,16.368568420410156,0.6037067770957948,0.30755832791328436,0.16941842436790466
-9.218663215637209,-3.1495633125305176,5.5135207176208505,0.3779105544090271,-0.3686486184597016,0.08644072711467743
5.291692256927491,2.791234731674195,12.347301483154297,-0.18382465839385986,-1.0680140256881716,-0.18612422049045566
5.753320217132569,-3.004635810852051,8.656836509704592,-0.06682261824607849,-0.6097831130027772,-0.47099769115448
9.30787467956543,-3.392541646957398,7.710632801055909,0.03559441864490509,-0.48388487100601196,-0.3163872063159943
8.79592514038086,2.8591635227203374,8.734243392944336,0.2670340836048127,0.09367206692695618,-0.15926872193813327
7.669162750244141,0.7511515617370605,9.13441562652588,0.20372560620307922,0.47662505507469183,-0.18721626698970797
5.526407241821289,-1.6755056381225586,9.67971420288086,0.1396610140800476,0.5850335955619813,-0.003640810027718544
4.256886005401612,-0.536456823348999,10.333234786987305,0.059687890112400055,0.5038021802902222,0.07408673316240312
4.426290512084961,-1.7539783716201784,9.92719841003418,0.024940213188529018,0.3769479990005493,0.040962632745504386
4.8833327293396005,-1.8541980981826784,9.46579360961914,0.08215241134166718,0.3240273296833039,0.016356213018298153
5.188295841217042,-1.0225287675857546,9.26754379272461,0.11799870431423187,0.33750262856483465,0.0032938821241259575
4.834312438964844,-0.5280241966247559,9.460097312927248,0.10114891082048418,0.3551705181598664,-0.0016267551109194756
4.293103694915772,-0.49495917558670044,9.740969657897951,0.06519488990306854,0.3130945265293122,0.002289930358529091
4.194821357727051,-1.0094863176345827,9.677591323852539,0.043662082403898246,0.23400110006332397,-0.01248866319656372
4.355555057525636,-0.9048911929130555,9.642169952392578,0.04287052527070046,0.1625397503376007,-0.033504236489534385
4.389060497283936,-1.0270889997482302,9.634443283081055,0.04105080291628838,0.12113863974809648,-0.049620792269706726
4.651873588562012,-0.8496689200401307,9.607110023498537,0.021382592618465424,0.08231743425130846,-0.03807010501623154
4.603629112243652,-0.4783638119697571,9.628585815429688,-0.027699455618858337,0.04102792218327523,0.006467950064688922
4.312626361846925,-0.8042823672294618,9.695038795471193,-0.06835982203483582,-0.004891369026154281,0.025254763662815094
4.498832225799561,-0.9705558419227601,9.62759017944336,-0.09514907747507097,-0.054428104311227805,0.035432443022727966
4.4970669746398935,-0.7870194911956787,9.69849967956543,-0.12926463782787326,-0.0985364019870758,0.052132066339254386
4.5565032958984375,-1.1252503395080566,9.60167980194092,-0.14096969366073608,-0.13276614248752597,0.05546653643250466
4.804682731628418,-1.138566493988037,9.453670501708984,-0.12236449122428894,-0.14078767597675326,0.050111010670661926
4.809601783752441,-1.0282875299453738,9.443861961364748,-0.1265765577554703,-0.1405013054609299,0.04077497869729996
4.690259456634522,-1.0199106931686404,9.44075107574463,-0.13176326453685763,-0.1474400758743286,0.04099682345986367
4.63959550857544,-1.1498868465423584,9.382422447204592,-0.1264304965734482,-0.15442246198654175,0.04398562014102936
4.587360858917237,-1.3080960512161257,9.415974617004396,-0.11980808526277544,-0.174696147441864,0.03520269319415093
4.758155345916749,-1.2130072116851807,9.403361320495607,-0.11032650619745256,-0.18601064383983615,0.027512453496456146
4.846415996551515,-1.0005176067352295,9.311163902282717,-0.11832379549741746,-0.18531355261802673,0.0266494806855917
4.811583042144776,-1.0369864702224734,9.255835533142092,-0.1274756044149399,-0.1801835000514984,0.04133585840463638
4.856853485107422,-1.2313580513000488,9.282243728637695,-0.10914844274520874,-0.17633678019046786,0.03646238148212433
4.703667163848878,-1.5448199510574343,8.998199462890625,-0.06887096911668779,-0.1577703505754471,0.01492234319448471
4.517198085784913,-1.444885849952698,9.266335487365724,-0.043186496943235404,-0.16215404868125916,0.013717616908252241
4.648607730865479,-1.2552317380905154,9.333724975585938,-0.042206257581710815,-0.16652654111385348,-0.006995971780270339
4.490703582763672,-1.3922309875488281,9.079342842102053,-0.0365162380039692,-0.17567065358161926,-0.027705913409590725
4.369498252868652,-1.3937327861785889,9.383646965026857,-0.04385587945580483,-0.21400247514247897,-0.040510110557079315
4.5647735595703125,-1.8665075302124023,9.232288360595703,-0.00676162587478757,-0.23484060168266296,-0.0804695710539818
4.98544979095459,-1.6673206090927126,8.988685607910156,0.04028074815869332,-0.22776225209236145,-0.119544118642807
4.88419008255005,-1.2079403400421143,9.111071586608888,0.05699203908443451,-0.21141152083873752,-0.14090529084205627
4.475161075592042,-1.2361258268356325,8.911958694458008,0.06384502351284027,-0.2054550051689148,-0.16599620878696444
4.131999492645265,-1.5343617200851443,9.071529388427734,0.07930707186460496,-0.24946752190589905,-0.21742965281009677
4.341625213623047,-1.033180117607117,9.707337379455568,0.09952006489038469,-0.3403337597846985,-0.24459770321846008
4.398878574371339,-1.0728015899658203,9.391395568847656,0.10303509980440141,-0.4178707003593445,-0.2734860479831696
4.205195426940918,-1.6846253871917725,9.051394462585451,0.14117926359176636,-0.5009341239929199,-0.3442951142787934
4.244993686676026,-0.9512224197387695,9.742445945739748,0.1698877513408661,-0.6378316283226014,-0.39819931983947754
4.642157554626465,-1.1729061603546143,9.329029083251953,0.1593100875616074,-0.7582069635391235,-0.43329304456710815
4.7468061447143555,-0.35450565814971924,9.739299774169922,0.11181919276714325,-0.9066002964973451,-0.42131054401397705
5.31238889694214,0.006470173597335815,9.912644386291506,-0.045585054904222495,-1.0440787076950075,-0.42267680168151855
4.266582965850831,-2.2537043094635014,9.860066413879396,-0.07573515921831132,-1.1731007099151611,-0.4408818185329438
3.6102530956268315,0.505792498588562,10.056676864624023,0.08030917495489122,-1.5214025974273682,-0.29274725914001465
4.905465602874757,-0.5271082520484925,10.228051185607912,0.028033738955855373,-1.7534971237182617,-0.24102203547954562
4.437840461730957,-0.4677562713623047,9.972799301147461,0.017940904945135117,-2.0314717292785645,-0.2319041341543198
4.928534507751465,-0.7154970169067383,10.1597375869751,0.061630673706531525,-2.31212067604065,-0.281785786151886
5.171770095825195,-0.6335937380790712,9.885965347290039,0.09309691935777666,-2.611729145050049,-0.2978671193122864
5.632501602172852,-0.7236805558204652,9.588468551635742,0.07865224778652191,-2.8375990390777592,-0.3210216760635376
5.639619827270508,-0.9020804166793823,8.965790748596193,0.10442046076059343,-3.1317093372344975,-0.3964087963104248
5.295378684997559,-0.9666378498077393,8.632135391235352,0.25285723805427557,-3.48299503326416,-0.5233502984046937
5.944840908050538,-1.244248867034912,8.984499931335451,0.43820992112159735,-3.9128241539001465,-0.6017526388168335
6.474021911621094,-1.3138341903686523,8.715517044067383,0.5284939408302308,-4.375866889953613,-0.45037916302680975
8.113230705261232,-0.2844072282314301,10.683773040771484,0.736657977104187,-4.715166091918945,-0.506623685359955
10.089248657226562,-0.3227150738239289,11.743983268737795,0.6928207278251649,-4.912378311157227,-0.3436917960643769
12.307929039001467,-1.5764665603637695,13.547471046447756,0.5614397525787354,-4.978859424591065,-0.3303132355213166
15.263739585876467,-4.126086235046387,12.552182197570803,0.6541519761085511,-4.914237022399902,-0.5295223593711854
22.12905502319336,-1.547107458114624,11.063459396362305,0.7370932102203369,-4.8827714920043945,-0.7723814845085145
28.794727325439453,-1.3047840595245361,3.886690139770508,0.4611413776874543,-4.864703178405762,-0.8815826773643495
31.88027572631836,-2.7368376255035405,-1.2962870597839355,0.20386502146720886,-5.18096685409546,-0.9767838120460511
35.175312042236335,-7.2631425857543945,-4.265020370483398,1.0391252040863037,-5.678927898406983,-1.3116564750671387
36.312286376953125,-6.8678741455078125,-3.593743324279785,1.9487222433090212,-5.958648204803468,-1.0616865158081055
35.40277099609375,-3.821819067001343,-5.883654117584229,2.704891920089722,-6.4856767654418945,-0.8420364260673524
47.19646453857422,-0.34910327196121216,8.10200595855713,2.410971879959107,-6.606978416442871,-0.6309236288070679
38.04233932495118,0.7980544567108154,11.750906944274904,1.7358797788619997,-5.362521171569824,-0.4911217391490937
34.11194229125977,2.1974740028381348,12.689213752746584,0.9973741769790649,-4.714145660400391,-0.5434985756874086
29.632455825805668,2.851308107376099,15.205000877380373,0.24508152902126315,-3.8392043113708496,-0.7842130064964296
26.623241424560547,4.049915790557862,18.177085876464844,-0.7036819458007812,-3.0401165485382085,-1.05050003528595
21.959136962890625,1.7009829282760622,20.022911071777344,-1.6207640171051025,-1.8269797563552859,-1.2971205711364746
15.270937919616701,-4.361428737640382,19.864801406860355,-1.826451301574707,-0.5710588693618774,-1.591889023780823
8.564863204956055,-8.48577404022217,19.077501296997074,-1.0754157304763796,0.44407540559768677,-1.7504199743270876
1.502315402030945,-8.721323013305664,17.35495185852051,0.02274943329393864,1.2285587787628174,-1.7653214931488037
-2.6097450256347656,-7.093506813049316,17.35067367553711,0.8237341642379761,1.8082860708236697,-1.6764156818389893
-4.585022449493409,-5.7786149978637695,17.128475189208984,1.0914789438247683,2.4887058734893803,-1.3895440101623535
-9.220570564270021,-5.15630865097046,14.52491855621338,1.0883634090423584,3.1231291294097905,-1.0273041725158691
-14.580154418945312,-4.462454795837402,11.231238365173342,0.9103524684906006,3.326377630233765,-0.7224646210670472
-17.898296356201172,-3.7976081371307377,8.756513595581055,0.5439190864562988,3.220779180526734,-0.36498427391052246
-19.375011444091797,-3.5464906692504883,8.061181068420412,0.11978298425674438,3.0363049507141113,0.01894360221922398
-17.665973663330078,-3.675004005432129,9.415383338928224,-0.3156973719596863,3.068860292434693,0.4736196994781494
-16.26389884948731,-4.536070823669434,9.882841110229492,-0.565817415714264,3.3962321281433105,0.9571291208267212
-16.04470252990723,-3.8565025329589844,9.258953094482422,-0.5936805009841919,3.789024114608765,1.3695170879364014
-15.529316902160646,-1.8201327323913574,8.635146141052248,-0.7034707665443422,4.125980854034425,1.6973586082458496
-14.083364486694336,-0.3099296391010285,8.839695930480959,-0.9611486196517944,4.447369098663331,1.898503065109253
-11.61469841003418,0.35593667626380926,9.530314445495607,-1.2442007064819336,4.864092350006104,1.9776223897933962
-10.151467323303224,0.6190750598907471,9.061469078063967,-1.3727406263351443,5.313319206237793,1.9478276968002322
-9.167648315429688,1.4384183883666992,8.989537239074709,-1.3992577791213991,5.596381664276124,1.8193609714508057
-6.030987739562988,2.5075681209564213,10.657581329345703,-1.4785656929016113,5.845491886138917,1.6502313613891602
-2.6951105594635014,3.4957308769226074,11.319019317626953,-1.5807484388351443,6.257772445678711,1.4041554927825928
-0.9218333959579468,4.215909957885742,10.357149124145508,-1.6628410816192627,6.620460987091065,1.0371484756469727
0.5874797701835633,4.787761688232422,9.647358894348146,-1.7667561769485476,6.754692554473878,0.5664845705032349
4.618211269378663,4.7064270973205575,10.468620300292969,-1.8974556922912598,6.8239150047302255,0.05166855454444885
8.884271621704102,4.031949043273926,9.963071823120117,-1.9965060949325564,6.948498725891113,-0.41020679473876953
11.46002197265625,2.7095978260040288,7.472943782806397,-1.9777004718780518,6.914950847625733,-0.7334822416305542
12.863546371459961,1.7443351745605469,4.774620056152344,-1.8699216842651367,6.550806045532227,-0.7788302302360536
14.629029273986818,2.2226672172546387,3.799812555313111,-1.7669637203216553,5.909968852996827,-0.4466544985771179
18.03819847106934,3.2013757228851323,3.987108945846558,-1.75376832485199,5.183943748474121,0.12876787781715393
20.93714141845703,2.603439092636109,4.373060703277589,-1.5983529090881348,4.5218243598938,0.6901860237121582
20.593614578247074,2.761954545974732,3.9161672592163086,-1.112060785293579,3.865509033203125,1.0640095472335818
19.64330101013184,5.148261547088624,4.965540885925293,-0.632781982421875,3.1558535099029545,1.196394920349121
21.76313018798828,5.778093814849854,8.052053451538086,-0.38435199856758123,2.754892349243164,1.1376371383666992
21.940343856811527,5.975561141967773,8.500593185424805,-0.14293000102043152,2.707506895065308,0.9179954528808594
19.62981414794922,5.817385196685792,5.75408935546875,0.05450233072042465,2.587909698486328,0.5207235217094422
17.2796802520752,4.6620850563049325,2.3337686061859135,0.21950489282608032,2.1622202396392827,0.05917491763830185
16.915658950805668,3.236082077026367,1.171877980232239,0.2539999186992646,1.5944430828094482,-0.242645263671875
31.820430755615234,6.842748641967773,-18.030755996704105,-0.4348030090332031,-1.0343807935714724,-0.10524126887321472
14.802077293395998,-2.1320116519927983,-36.54746627807618,-0.15379521250724792,-4.317047119140625,0.32873919606208807
40.04595947265625,-4.727327346801758,20.096637725830078,-0.2436669617891312,-6.312821388244629,1.4144560098648074
55.26365280151368,0.35035550594329834,53.36639404296875,0.1377790868282318,-3.5916516780853276,0.21105389297008517
24.49941635131836,7.043644905090332,32.1826171875,-0.3823294341564179,-0.264384925365448,-0.035753820091485984
-11.886819839477539,0.09235280007123949,-4.451623439788819,-0.2531330883502961,-0.6850444674491883,-0.1884559690952301
-2.0187470912933354,-6.870960712432862,5.299864292144776,0.09463442862033844,-1.9177075624465945,-0.23982447385787964
12.535147666931154,-5.772972106933594,14.339801788330078,0.022776886820793152,-1.495411038398743,-0.3108020722866059
10.466175079345703,-2.540777921676636,10.725114822387695,-0.08359293639659882,-0.6938425898551942,-0.07416228950023651
3.7150671482086186,-0.27975982427597046,8.114727020263672,0.07171748578548431,-0.6500043869018555,-0.06970714777708055
6.1205811500549325,0.5972765684127808,10.680094718933107,-0.031289637088775635,-0.5216165184974672,-0.15328380465507507
6.462153434753418,-1.4379972219467165,10.233803749084474,0.19321292638778687,-0.4666737616062165,-0.28985884785652166
3.1501624584198002,-3.425277471542359,9.246287345886232,0.5547407269477845,-0.6008985042572021,-0.3079768121242524
4.4879913330078125,-1.9531505107879639,9.670574188232422,0.7348851561546327,-0.6414266228675843,-0.3977915644645691
6.575396537780762,-1.0718491077423096,10.309821128845217,0.6776554584503174,-0.4542125761508942,-0.3456445336341858
6.029268741607667,0.8213486671447754,10.50777816772461,0.5195390582084657,-0.23621031641960144,-0.27997148036956787
5.717505931854249,-0.29093226790428167,10.613733291625977,0.4570162296295166,-0.11958666890859605,-0.2799943685531616
5.449283599853516,-0.3298460841178894,10.29567050933838,0.39759483933448797,-0.029609365388751033,-0.17578080296516418
4.8528289794921875,0.0653253048658371,10.072937965393068,0.2932139337062836,0.015222329646348953,-0.13322956860065463
5.021524906158448,-0.4917132258415222,10.019670486450195,0.18346482515335083,-0.010457300581038,-0.09741147607564928
5.061248779296875,-0.160773366689682,9.833292007446289,0.10506491363048553,-0.019061857834458355,-0.03944627195596695
4.2482361793518075,-0.2644973397254944,9.634348869323732,0.04579338058829308,-0.050801601260900504,-0.007077840156853199
4.223516464233398,-0.5470349788665771,9.854629516601562,-0.018075931817293167,-0.12193127721548082,0.012154461815953255
4.600115299224854,-0.5290137529373169,9.805200576782227,-0.08545132726430894,-0.16811975836753845,0.05739150941371918
4.681540966033936,-0.5481963753700257,9.46727180480957,-0.12579636275768283,-0.18990427255630493,0.09461966902017595
4.499841213226319,-0.8530779480934144,9.62522602081299,-0.15028303861618042,-0.22110295295715332,0.10382073372602464
4.4283857345581055,-1.184298634529114,9.556254386901857,-0.15510182082653048,-0.2557978630065918,0.10227818042039873
4.272285461425781,-1.1856255531311035,9.549449920654297,-0.1363445222377777,-0.2964505851268769,0.0761614814400673
4.783167839050293,-1.3249223232269287,9.497046470642092,-0.12802070379257202,-0.32398357987403875,0.06231062114238739
5.0995330810546875,-1.4017580747604372,9.36742687225342,-0.0838371068239212,-0.30488067865371704,0.04791969433426858
4.872021675109863,-1.4627320766448975,9.230792045593263,-0.04265950247645379,-0.2842385768890381,0.03357597067952157
4.650982856750488,-1.2783653736114502,9.454034805297852,-0.029073810204863552,-0.28572535514831543,0.032616011798381805
4.593339920043945,-1.3075077533721924,9.335884094238281,-0.02034696936607361,-0.30009052157402044,0.02549361065030098
4.569283485412598,-1.314563870429993,9.424398422241211,-0.01620891503989697,-0.3179504573345185,0.013660900294780731
4.768052101135254,-1.364511847496033,9.390613555908203,0.0016937727341428401,-0.33095335960388184,-0.005909719970077277
4.964076042175293,-1.1802288293838503,9.243120193481445,0.009358741343021393,-0.32605686783790594,-0.01620147936046124
4.99411678314209,-0.7586438059806825,9.271245956420898,-0.006255507934838534,-0.316062331199646,0.0047451029531657704
4.969005584716797,-0.894279956817627,9.280542373657227,-0.009880566969513893,-0.31207793951034546,0.026910083368420604
4.944051742553711,-1.0157256126403809,9.19008541107178,-0.012619298882782461,-0.30436086654663086,0.02128943614661694
4.829126834869386,-1.073460340499878,9.20997428894043,-0.01169105898588896,-0.30335867404937744,0.014092110097408295
4.705435276031495,-1.0901234149932861,9.336785316467287,-0.03021611459553242,-0.30618375539779663,0.012862815521657469
4.743732452392578,-1.4050241708755495,9.260250091552734,-0.0323658473789692,-0.32633462548255926,0.011249149218201637
4.751416206359863,-1.3100696802139284,9.326779365539553,-0.02667360007762909,-0.35945013165473944,0.0013412856496870518
4.832802295684815,-1.3012312650680544,9.282441139221193,-0.017670379951596264,-0.3911373019218445,-0.010394185781478882
4.943116188049316,-1.446439504623413,9.123315811157227,0.0006651473813690246,-0.404266893863678,-0.03618424758315087
5.064370632171632,-1.452303409576416,9.036997795104982,0.01301985699683428,-0.40212967991828924,-0.06572306156158447
5.188373565673828,-1.2724719047546387,8.99706554412842,0.005476524122059345,-0.3776919543743134,-0.08596488833427429
5.19616460800171,-1.5031005144119265,8.856839179992678,0.006824475247412921,-0.35175591707229614,-0.11354710161685944
5.329293251037598,-1.191155195236206,8.843264579772951,0.0166254285722971,-0.3311840891838074,-0.14170171320438388
5.537683010101319,-0.8250520825386048,8.860724449157717,0.0029991099145263438,-0.2942966520786286,-0.13249507546424866
5.574832439422608,-0.7626822590827943,8.834710121154787,-0.009356490336358549,-0.25448399782180786,-0.10771217197179796
5.519447326660156,-0.8577160835266113,8.89436435699463,-0.023817872628569606,-0.21882310509681702,-0.08132544159889221
5.434479713439941,-0.9153465628623964,8.893193244934084,-0.03401586413383484,-0.19446094334125522,-0.056540362536907196
5.33785343170166,-0.8337513208389282,8.888895034790039,-0.05823151022195816,-0.1731947660446167,-0.03572598472237588
5.236625671386719,-0.9751020669937134,9.021873474121094,-0.07630547136068346,-0.17068496346473694,-0.03188597038388253
4.837913990020753,-1.4397287368774414,9.07563591003418,-0.0683206543326378,-0.19326499104499817,-0.05965360999107361
4.652201175689698,-1.7331390380859375,9.20051670074463,-0.05253495648503304,-0.26630133390426636,-0.12226752191781999
5.008110523223878,-1.4984490871429443,9.237337112426758,-0.03627054020762444,-0.34542050957679754,-0.17330050468444824
5.107220649719238,-1.4557608366012575,9.162952423095703,-0.030538685619831085,-0.4008001387119294,-0.22005128860473633
5.164642333984375,-1.4981211423873904,9.042655944824219,-0.0008985754684545101,-0.4531974792480469,-0.2633342146873474
5.4952497482299805,-1.0373742580413818,9.055430412292482,0.018856231123209,-0.48042997717857366,-0.28736037015914917
5.669754505157472,-0.8476641774177552,9.012526512145998,0.01919987611472607,-0.4816571772098542,-0.2892581820487976
5.595244884490968,-1.0186994075775146,9.070688247680664,0.030252229422330856,-0.4751934707164765,-0.2833346128463745
5.613856315612793,-1.1073143482208252,8.864830970764162,0.04499804973602295,-0.48065015673637396,-0.29131892323493963
5.0101027488708505,-0.8732424974441528,8.625573158264162,0.007672984618693591,-0.5287811756134033,-0.3114058077335358
5.428822040557862,-0.6283843517303467,8.874026298522951,-0.06234196573495865,-0.6037522554397583,-0.3135445415973664
5.318532466888429,-0.9202783703804017,8.947325706481935,-0.10456430166959764,-0.670012354850769,-0.3285785615444184
5.090266704559327,-1.1464438438415527,9.018601417541506,-0.12773321568965915,-0.7733805179595947,-0.3689868450164795
5.2241668701171875,-0.8043519854545594,9.130571365356445,-0.15907400846481323,-0.9114304184913636,-0.386421799659729
5.261098384857179,-0.4069309532642365,9.128632545471193,-0.2131643742322922,-1.0618070363998415,-0.3707009553909302
5.2167253494262695,-0.4678630828857422,9.275457382202148,-0.2571603059768677,-1.2288182973861697,-0.2977585196495056
5.070087432861328,-0.31321981549263006,9.43336582183838,-0.2786242961883545,-1.4300781488418581,-0.22823335230350497
5.023065567016602,0.6244301795959473,9.509331703186037,-0.3541710376739502,-1.6915677785873415,-0.14018255472183228
5.278940677642823,0.3284516632556916,9.631758689880373,-0.47620904445648193,-1.9942896366119385,-0.07063130289316179
4.502894878387452,-0.01038716733455658,9.750977516174318,-0.5471482276916504,-2.318763971328736,-0.0844883918762207
5.059999465942383,0.6923044919967651,9.411825180053711,-0.7039032578468324,-2.7739882469177246,-0.0257217176258564
4.833296775817871,-0.5535438060760498,9.076943397521974,-0.8039346337318422,-3.272815227508545,0.017776103690266613
3.8046309947967534,-0.8208868503570557,8.85458755493164,-0.6898314952850342,-4.019961357116699,0.08555977791547777
5.474526405334473,0.9358950257301332,9.482310295104982,-0.8150837421417236,-4.923602581024171,0.3272252678871155
4.913138866424561,1.3060007095336914,9.763493537902834,-0.9976261854171753,-5.934284687042237,0.5824875235557557
6.180996894836426,-2.7367131710052495,10.855935096740724,-1.0524871349334717,-7.131673336029054,0.45360928773880005
7.710114002227784,-1.0545202493667605,13.070884704589844,-1.8270823955535889,-8.414134979248047,0.53677636384964
12.423095703125,2.294808149337769,17.714269638061527,-2.926546573638916,-9.124232292175295,0.8921582698822021
17.372264862060547,1.6560219526290896,18.41390609741211,-4.300715446472168,-8.87700939178467,1.4877766370773318
22.964857101440433,-4.318197250366211,16.410858154296875,-5.475847721099854,-8.287254333496094,1.535053372383118
25.118314743041996,-4.30985164642334,18.010730743408203,-6.018683433532715,-7.961797714233398,0.7204410433769227
17.78843498229981,-6.136041641235352,13.377455711364748,-6.486128807067871,-7.301204204559327,-0.3099291920661926
23.436885833740234,-5.985039234161378,12.505058288574219,-7.168611526489258,-6.98345708847046,-0.1557089537382126
25.054054260253906,-3.3848125934600835,15.489067077636719,-8.684272766113281,-6.021441936492921,0.4230554699897766
26.12963676452637,0.17224562168121338,20.401128768920902,-10.551503181457521,-4.289045810699464,0.6902331113815308
19.784616470336918,-3.9833269119262695,16.941923141479496,-10.755800247192383,-2.282903909683228,-0.04329420626163483
32.475971221923835,-7.853581428527832,23.72536849975586,-8.912245750427248,-0.11647452414035797,-2.3790645599365234
27.84881401062012,-14.75323009490967,26.56383514404297,-5.522438049316406,3.795676469802857,-2.9962334632873535
14.65287494659424,-3.8630554676055913,17.692724227905277,-4.203774452209473,5.553774833679199,-2.6551215648651127
8.825096130371094,1.6825904846191406,9.890976905822756,-3.9083690643310547,6.225294589996339,-2.1741509437561035
1.7496284246444704,4.320884227752686,3.860122919082642,-4.284846305847168,5.929956912994386,-1.3863047361373904
-1.1079879999160769,4.110272884368897,1.8268954753875732,-4.631135940551758,5.142947673797608,-0.5655792951583862
1.6961926221847536,2.5196673870086674,3.591293573379517,-4.447225093841554,4.478975772857667,0.14460042119026184
4.757339954376222,2.405361890792847,6.996259689331055,-3.718155860900879,4.329162120819093,0.7487422227859497
4.699514389038086,4.81147336959839,9.323604583740234,-2.950517892837525,4.509786605834961,1.163881540298462
4.431666851043702,8.586835861206055,10.717666625976562,-2.6078615188598633,4.730705738067628,1.3937880992889404
4.390729427337647,11.17683219909668,11.400188446044922,-2.6741292476654057,4.979263782501222,1.5297167301177979
5.760994911193848,10.856493949890138,12.37138557434082,-2.8399085998535156,5.356213092803956,1.5524425506591797
7.202104568481445,10.378716468811037,12.81108283996582,-2.719281911849976,5.8740434646606445,1.510817289352417
7.183526515960694,11.282978057861328,11.815320014953615,-2.381567239761353,6.381803512573242,1.4126831293106081
6.220010280609132,12.262115478515625,9.897913932800295,-2.0438952445983887,6.749384880065918,1.1557475328445437
5.929831981658936,13.184924125671388,8.030195236206055,-1.787161111831665,6.890005588531495,0.7887169122695923
7.250998497009277,14.190819740295412,7.662357807159425,-1.6357718706130984,6.940606117248535,0.3286835551261902
7.285536289215089,13.858375549316406,5.937202453613281,-1.4595561027526855,7.095473766326905,-0.23289957642555237
5.124227046966554,13.450836181640625,2.4389238357543945,-1.2284252643585205,7.020944595336914,-0.9686713814735414
3.3107368946075444,12.55796527862549,-0.24409469962120056,-1.0057487487792969,6.573723316192628,-1.6700191497802734
2.9934947490692143,11.501322746276857,-0.1935347616672516,-0.8766927123069764,6.01371955871582,-2.264751434326172
4.818726062774659,10.05910873413086,2.6154224872589116,-0.8921345472335815,5.634197711944581,-2.695021152496338
7.234086513519288,7.52587652206421,4.581351280212402,-0.9120535850524902,5.640532493591309,-2.988445043563843
8.070289611816406,5.053981781005859,3.5025732517242436,-0.7926536202430726,5.736924171447754,-3.1519896984100346
7.683672904968262,2.9305403232574467,0.6825801730155946,-0.6422853469848633,5.563071727752686,-3.0786879062652592
8.663309097290039,0.5453954339027406,-1.7273198366165163,-0.4717459976673127,5.056424140930176,-2.688355684280396
10.788803100585938,0.027176618576049805,-3.4417021274566655,-0.3673843741416931,4.332864761352539,-1.9208725690841677
12.937564849853516,-0.6274250745773315,-4.967699527740479,-0.34239816665649414,3.470958471298218,-0.9559192657470703
14.112324714660646,-1.2189385890960693,-6.1845364570617685,-0.2174232751131058,2.4974584579467773,0.03477349132299423
14.444048881530763,-1.199247121810913,-6.175768852233887,0.022760361433029175,1.4276465177536013,0.8769774436950684
16.637210845947266,-0.43227306008338934,-3.912759780883789,0.27525103092193604,0.3644062280654907,1.4200462102890017
20.806432723999027,1.0662200450897217,-0.1359441578388214,0.4889289140701294,-0.2859258353710175,1.6338555812835693
23.170587539672855,2.9372668266296387,3.3909723758697514,0.5909847617149354,-0.5404901504516602,1.4320502281188965
24.945392608642578,4.9792447090148935,6.9019927978515625,0.41962006688117987,-0.4287240505218506,0.9150267243385316
22.088794708251953,6.059898853302003,5.0216827392578125,0.10480182617902757,-0.009735639207065107,0.3455079197883606
15.037376403808594,4.872014522552491,-1.3223168849945068,-0.23366403579711914,-0.09791595488786699,-0.1572965681552887
11.042399406433107,0.68468177318573,-5.73055362701416,-0.2619056701660156,-0.8330448269844056,-0.37516376376152044
8.668998718261719,-2.712250947952271,-6.836635589599609,0.02993651106953621,-1.6789308786392214,-0.31933414936065674
7.587176322937012,-4.573486328125,-6.016081333160401,0.3097344338893891,-2.3434379100799565,0.0386815145611763
17.985975265502933,-2.758777618408203,-5.647193431854249,0.25445315241813665,-3.004061222076416,0.7739230990409852
74.57778167724611,-6.1221723556518555,43.51848602294922,1.0095794200897217,-2.765628576278687,1.5552207231521609
27.425052642822266,27.64157485961914,26.07628631591797,1.6304694414138796,1.4316742420196533,-0.7739484906196595
-16.254198074340824,-3.334592342376709,4.774152755737305,-0.03369612619280816,1.6943806409835818,-1.1503000259399414
-4.868409156799316,-4.10671329498291,18.327413558959964,0.6903073787689209,-0.1424047499895096,-0.8089563846588135
3.9114363193511967,9.013347625732422,11.770698547363281,0.7093580961227417,-0.21078751981258395,-1.0997582674026491
10.903997421264648,-2.241119384765625,10.963871002197266,0.15897272527217868,-0.23375773429870605,-0.4956187307834626
4.866648197174073,4.761207580566406,9.583825111389162,-0.05455159395933151,-0.10624821484088898,-0.21248276531696322
6.2716779708862305,2.8652436733245854,10.008481025695803,-0.377142071723938,-0.07386448234319688,0.014373105019330978
5.109968185424805,-2.157073259353638,9.790598869323732,-0.41567879915237427,-0.11646255105733873,0.1294432729482651
5.0507307052612305,0.062282249331474304,10.17381477355957,-0.3428518772125244,-0.23828794062137607,0.15756690502166748
4.91628122329712,0.09160038828849792,10.00576686859131,-0.4256887435913086,-0.2942875623703003,0.22418092191219333
5.415825366973878,-0.7518937587738037,9.675589561462404,-0.46539998054504395,-0.29930409789085394,0.2777809500694275
4.821144580841065,-0.6096043586730957,9.657114982604982,-0.4883207082748413,-0.2927225530147553,0.31963244080543524
4.839046001434327,-0.7820420265197754,9.696588516235352,-0.49407416582107544,-0.3123562633991242,0.3235894441604614
4.64334535598755,-1.1836749315261843,9.679183006286623,-0.4876155555248261,-0.3276060521602631,0.2965303063392639
4.47010374069214,-1.3519010543823242,9.75181293487549,-0.46109509468078613,-0.3547870218753815,0.24734550714492798
4.458160400390625,-1.1635733842849734,9.874483108520508,-0.44697052240371704,-0.41340836882591253,0.16518871486186984
4.5144548416137695,-1.3068538904190066,9.642095565795898,-0.42867001891136175,-0.46753227710723877,0.13277034461498263
4.706059455871582,-1.4025081396102907,9.638224601745607,-0.3852035403251648,-0.5225095748901367,0.10386527329683305
4.570540428161621,-1.301191806793213,9.808666229248047,-0.38270738720893865,-0.552735447883606,0.05893008783459664
4.9279751777648935,-0.8135651350021362,9.646783828735352,-0.4876003861427307,-0.5886951088905336,0.023987246677279476
6.343382835388184,-0.9386188983917236,8.913084983825685,-0.5393521189689637,-0.47738128900527954,0.06897104531526567
6.286450386047363,-0.9196370244026185,8.801948547363281,-0.5764995813369751,-0.2567136883735657,0.13795833289623263
5.632469654083253,-1.6466480493545534,8.701618194580078,-0.5335439443588257,-0.0862441584467888,0.17202308773994446
5.01866340637207,-2.1368770599365234,8.744483947753906,-0.44616103172302246,0.008814851753413679,0.1442687958478928
4.957822799682617,-2.4387414455413823,8.662917137145998,-0.35891994833946234,0.03413066267967224,0.08793797343969346
4.8401384353637695,-1.923567771911621,8.700275421142578,-0.2800840735435486,0.04298336058855057,0.07172102481126787
4.083595752716065,-2.263942956924439,8.572636604309084,-0.23087002336978915,0.04940380901098251,0.0288586150854826
4.071318149566651,-3.2089810371398926,8.155728340148928,-0.09350991249084473,-0.019862631335854534,-0.029846942052245144
4.503720283508301,-2.415935516357422,8.778046607971193,0.04690063372254372,-0.09691578149795532,-0.05710431560873986
4.782910823822022,-1.8786728382110596,8.924099922180178,0.11875113844871521,-0.10684610903263092,-0.08203502744436265
5.288998603820801,-1.4903740882873535,8.854681968688967,0.13231588900089267,-0.08430099487304688,-0.06816761940717699
5.033720493316651,-1.1079988479614258,8.897674560546875,0.10019584000110626,-0.05199183896183968,-0.05873277410864831
4.365020751953125,-1.807570219039917,9.14809322357178,0.09234702587127686,-0.05866945907473565,-0.06667768955230713
4.386883258819581,-2.127904653549195,9.06471347808838,0.11757403612136841,-0.08981449902057648,-0.0910315588116646
4.564160346984863,-1.7255626916885378,9.145927429199219,0.12201818823814392,-0.12305533140897752,-0.12785527110099792
4.515285491943359,-1.2225364446640017,9.198083877563477,0.09068529307842255,-0.14895690977573398,-0.14690093696117404
3.499149560928345,-1.8117167949676514,9.18978500366211,0.05679280310869217,-0.21492926776409152,-0.17037838697433472
3.3057487010955815,-1.7284818887710574,9.768376350402834,0.07994612306356431,-0.3927521407604218,-0.20899692177772522
3.700660228729248,-2.300174474716187,9.445459365844727,0.17561152577400208,-0.5561974644660951,-0.3351583480834961
4.41741943359375,-1.9818344116210938,9.427685737609865,0.21259962022304538,-0.6483865976333618,-0.47077125310897827
5.601209163665772,-0.32331582903862005,9.80827522277832,0.17305351793766025,-0.7004934549331665,-0.4587987959384919
5.406170845031738,-0.18146458268165588,9.684005737304688,0.036959342658519745,-0.7225089073181152,-0.38299420475959783
5.0341033935546875,-0.7451473474502563,9.575441360473633,-0.04282589629292489,-0.8180352449417114,-0.32633218169212347
5.0122175216674805,-0.20860061049461365,9.76668453216553,-0.08273079246282579,-0.9435261487960815,-0.316256582736969
4.846371650695801,-0.4030057191848755,9.672435760498047,-0.17714464664459229,-1.092945456504822,-0.2921350598335266
4.674273490905762,0.04310627281665802,9.733402252197266,-0.30339735746383667,-1.3081464767456055,-0.22183080017566684
4.829177379608155,-0.07600970566272736,9.88148593902588,-0.40220075845718384,-1.6008080244064333,-0.13370159268379211
4.334954738616944,0.03278432786464691,10.152773857116701,-0.545358717441559,-1.946035623550415,-0.09406450390815735
4.363845348358155,-0.8028157949447632,10.00915050506592,-0.5851969718933105,-2.295657873153687,-0.09295874834060669
4.435219764709473,-0.5330264568328857,9.451297760009766,-0.5413852334022523,-2.6631195545196538,0.03866623342037201
4.586297988891602,-0.5959250926971436,9.296067237854006,-0.4779645502567292,-3.0233616828918457,0.0427178405225277
5.707645893096925,0.362077534198761,9.36892318725586,-0.36180996894836426,-3.399042367935181,-0.0070104007609188565
4.941033363342285,-0.11268080770969391,9.023948669433594,-0.2446950376033783,-3.92194676399231,-0.10729359090328217
4.623369693756104,-0.410802960395813,9.842513084411623,-0.2963267266750336,-4.61493730545044,-0.16300314664840698
9.555638313293459,-5.092565536499023,12.974175453186037,-0.18530532717704773,-5.013514041900636,-0.19663774967193604
9.575545310974123,-3.143120765686035,14.105297088623047,-0.15777510404586792,-4.971281528472901,-0.03871187195181847
13.814998626708984,-4.849903583526612,14.74658203125,-0.3880411386489868,-4.763768672943116,-0.11011545360088348
22.508407592773438,-6.2828168869018555,14.59737777709961,-0.2575174570083618,-4.638705253601074,-0.3879602253437043
30.23128700256348,-2.272483110427857,10.07828140258789,-0.4021978974342346,-4.214001178741456,-0.7723971605300903
37.5528564453125,-1.778108835220337,9.03268337249756,-0.759666919708252,-3.911728143692017,-1.4419475793838503
38.29130935668946,-0.8928394913673402,9.532100677490234,-0.9895749092102051,-3.2827713489532475,-2.0408406257629395
31.621805191040043,-0.5344048142433168,7.907954216003418,-0.9706457853317261,-3.0764522552490234,-3.0806820392608647
49.44218826293946,-5.976513385772706,21.710052490234375,-0.41518348455429077,-2.312339544296265,-3.6256656646728516
31.480875015258793,-4.88154172897339,20.3602294921875,0.22750288248062134,-0.6162245869636537,-3.698382139205933
24.208423614501953,-2.116580009460449,17.237747192382812,-0.22991909086704257,-0.14875531196594238,-3.406051397323609
16.55908966064453,-3.4169967174530034,14.7106409072876,-0.7355536222457886,0.039866648614406586,-3.066832780838013
12.043055534362795,-6.180866241455078,13.207579612731935,-0.9419482350349427,0.009880442172288895,-2.602150201797486
8.296756744384766,-8.184628486633303,12.413310050964357,-0.5621748566627504,-0.011890124529600143,-2.2453060150146484
4.587980747222901,-8.992833137512209,12.437505722045898,0.1312445551156998,0.024321354925632477,-1.9752329587936404
1.0713920593261719,-7.558353900909425,11.756459236145021,0.6925821304321289,0.13744598627090454,-1.6872137784957888
-2.555886507034302,-5.712053775787354,10.17414665222168,0.8999075293540956,0.26624226570129395,-1.3676656484603884
-6.102019309997559,-4.403289318084718,8.658113479614258,0.8200612664222718,0.3959149122238159,-1.0730798244476318
-8.853775024414062,-3.859716653823853,7.4083967208862305,0.546747386455536,0.5102468729019165,-0.7809210419654847
-10.55112934112549,-4.356583118438722,6.040888786315918,0.28438553214073187,0.6103069186210633,-0.5073957443237305
-10.346054077148438,-4.68577527999878,6.950425624847413,0.032170955091714866,0.7248212099075317,-0.25349214673042303
-8.126793861389162,-4.658007621765137,8.618215560913086,-0.2644606530666352,1.1856460571289062,0.07315196096897125
-8.430252075195312,-4.925098419189453,8.130272865295412,-0.41992405056953436,1.8111965656280518,0.38118806481361395
-10.10230827331543,-4.363896846771241,5.8566632270813,-0.5286104083061219,2.268635988235474,0.6791226863861084
-10.812063217163086,-3.527107477188111,3.6948521137237553,-0.6849404573440552,2.492843389511109,0.9702179431915283
-10.605051040649414,-2.802255630493164,2.4903357028961186,-0.8502454161643983,2.5917420387268066,1.2242193222045898
-9.688058853149414,-2.1858446598052983,2.2333178520202637,-1.001341223716736,2.6688084602355957,1.4322894811630251
-8.691509246826172,-1.478670597076416,2.1238293647766113,-1.081217169761658,2.7696225643157963,1.56722092628479
-7.052072048187257,-0.6256754994392396,2.732043743133545,-1.1252499818801882,2.919193744659424,1.6522983312606814
-5.318995475769043,-0.011843055486679077,3.034208297729492,-1.148097634315491,3.155029773712158,1.7349631786346436
-4.249325752258301,0.8184776902198793,2.5248372554779057,-1.1140975952148438,3.36951231956482,1.8234524726867676
-2.92380428314209,2.2394297122955327,1.8066391944885254,-1.1066534519195557,3.4830493927001953,1.90926730632782
-0.6821208000183105,3.3741672039031987,1.725145220756531,-1.136493802070618,3.540797233581543,1.9276579618453982
1.7661185264587402,3.885511159896851,1.6363632678985596,-1.0912246704101562,3.6001923084259038,1.8324986696243288
4.886944770812988,3.7354116439819336,1.7240179777145388,-0.9103413224220277,3.6126861572265625,1.608814835548401
7.528800964355469,4.461797714233398,1.2666826248168945,-0.6964557766914369,3.572804212570191,1.3401689529418945
10.181671142578125,4.921043872833253,0.3464784622192383,-0.5641770362854004,3.4384510517120366,1.0489556789398193
13.460287094116211,3.7544534206390385,-0.17898933589458468,-0.4276559352874756,3.1927659511566167,0.7859669327735902
16.459356307983402,2.738401412963867,-0.6358821392059326,-0.21152526140213013,2.925362825393677,0.6191866397857666
17.095594406127933,2.7245569229125977,-2.8812253475189213,-0.051939189434051514,2.5757851600646973,0.5941044688224794
15.93565082550049,1.7477220296859743,-5.810957908630371,-0.0032560136169195175,1.8870798349380495,0.6358143091201782
16.11406517028809,0.07139410078525543,-6.78667974472046,0.16072306036949158,1.0255407094955447,0.7230433821678163
15.317161560058594,0.2561055719852448,-6.762946128845215,0.5280020236968994,0.24107520282268527,0.7669974565505981
12.876180648803711,1.4735425710678103,-6.2534027099609375,0.9919872879981996,-0.46541395783424383,0.6325562000274658
89.98748016357423,1.3021364212036133,19.258844375610355,0.43899667263031006,-3.1191289424896245,0.7044816017150879
6.111907958984375,13.775807380676271,-13.445114135742188,0.17688536643981934,4.476255893707276,1.829987406730652
21.6429443359375,-10.489139556884766,22.069103240966797,-0.4562619924545288,2.0327594280242924,0.2181595265865326
-17.458932876586918,1.769146203994751,11.223251342773438,-0.14282095432281494,1.8292593955993652,0.3579504787921906
-5.907294750213624,5.190956115722656,15.804716110229492,0.35975122451782227,0.4503230750560761,-0.9255582094192505
3.1369159221649174,-12.638263702392578,13.345160484313967,0.4805508255958557,-0.5019738078117372,-0.9364090561866761
6.888296604156495,4.103653907775879,11.067550659179688,0.3422921299934387,-0.872987449169159,-0.37166261672973633
8.566273689270021,-0.08315891772508623,7.458432197570801,0.13031344115734103,-0.47214791178703314,-0.41399627923965454
8.682312965393068,-1.8597707748413086,6.8148956298828125,0.12642431259155273,-0.08849332481622697,-0.20766636729240417
7.656394004821777,0.8291994333267212,8.509605407714844,0.13010174036026,0.24433986842632296,-0.05821092054247857
5.875707149505616,-0.6132429838180542,9.18794059753418,0.01577581837773323,0.3787074983119965,0.03253772109746933
4.940275669097901,-1.6103110313415527,9.168385505676271,-0.003090962767601013,0.36008983850479126,0.034935098141431815
4.913608551025391,-0.3507848381996155,9.83228397369385,-0.019468726590275768,0.27000731229782104,0.04599973931908608
4.780630588531495,-0.25688341259956365,9.941120147705078,-0.07967796176671983,0.16076979041099548,0.12089750170707703
4.4800004959106445,-0.6693214178085327,9.875968933105469,-0.14192463457584384,0.03196486830711365,0.15965311229228976
4.52459478378296,-0.9554308652877808,9.71525287628174,-0.18065474927425387,-0.09397787600755693,0.14141136407852173
4.738440990447999,-0.6399181485176088,9.738184928894045,-0.22420868277549744,-0.20518653094768527,0.11753484606742859
4.867578983306886,-0.7154973149299623,9.468164443969727,-0.263808161020279,-0.3191944360733032,0.11205808818340302
5.27322816848755,-0.7969570755958558,9.463470458984375,-0.2941546738147736,-0.411182701587677,0.10642150789499284
5.275259971618652,-0.26921746134758,9.496746063232422,-0.36217072606086737,-0.4868405759334565,0.1297404170036316
5.1357483863830575,-0.5888008475303651,9.604511260986328,-0.4366862177848816,-0.5644270777702333,0.1552388072013855
5.2899370193481445,-1.1127111911773682,9.331704139709474,-0.48909679055213934,-0.635130763053894,0.1628783941268921
5.334900379180909,-1.2066428661346436,9.107874870300295,-0.49330458045005804,-0.6618643999099731,0.19952048361301425
5.24091672897339,-1.4175401926040652,9.019379615783693,-0.48713231086730957,-0.7199997901916504,0.19596131145954135
5.413391590118409,-1.1456598043441775,8.902789115905763,-0.4781502187252045,-0.7118099927902222,0.21750091016292575
5.704520702362061,-1.7797157764434814,8.835324287414553,-0.4324972331523896,-0.6751000881195068,0.25472891330718994
5.588555812835694,-1.5297236442565918,8.55549430847168,-0.40133276581764227,-0.6247105598449707,0.2860060036182404
5.516007900238038,-1.6889554262161257,8.357235908508303,-0.36559578776359564,-0.5825968384742738,0.25353866815567017
5.470407962799073,-1.828341007232666,8.52469253540039,-0.34629935026168823,-0.561534345149994,0.21530184149742126
5.8001446723938,-1.921454906463623,8.241619110107422,-0.32191517949104315,-0.5382118225097656,0.1799941062927246
5.647606372833253,-2.3725941181182866,8.128097534179688,-0.2852632105350495,-0.5031089782714844,0.1529013365507126
5.426553726196289,-2.62705659866333,8.16733169555664,-0.2547626197338105,-0.48492315411567694,0.11979863047599792
5.726309299468995,-2.6748025417327885,8.145281791687013,-0.21493257582187655,-0.4727591872215271,0.08904173225164415
5.782279968261719,-2.5988221168518066,8.020619392395021,-0.17256538569927218,-0.42288845777511597,0.060133762657642365
5.897247314453125,-2.412678956985474,8.070645332336428,-0.15648780763149264,-0.3568800091743469,0.0316290594637394
6.005215644836426,-1.9502289295196533,7.9734864234924325,-0.13805057108402255,-0.2995086014270783,0.021520063281059265
5.778254508972168,-2.0440490245819096,8.195844650268555,-0.12691415846347812,-0.26448553800582886,0.015176440589129927
5.749261856079102,-2.0492866039276127,8.134458541870117,-0.13234907388687134,-0.25351485610008245,0.013491404242813589
5.903467178344727,-2.2866125106811523,8.05598258972168,-0.1328822374343872,-0.22660513222217563,-0.003242981154471636
6.189125537872315,-2.269731044769287,7.918860912322999,-0.11882450431585313,-0.1797977834939957,-0.027451805770397186
5.815296649932862,-2.0948765277862553,7.93921709060669,-0.10123027116060258,-0.11692154407501221,-0.05193800106644631
5.210394859313965,-2.109562873840332,8.40035629272461,-0.08056840300559998,-0.13720314204692843,-0.0780826434493065
5.16705083847046,-2.0791976451873784,8.561081886291506,-0.10004375874996185,-0.22314526140689853,-0.09424509108066559
5.290668487548828,-2.6575958728790288,8.107729911804201,-0.07007384300231934,-0.32267141342163086,-0.15079797804355624
5.622730731964112,-1.7465579509735107,8.59730625152588,-0.05224676430225372,-0.437600463628769,-0.19106677174568176
5.137047290802003,-1.4855514764785769,8.787246704101562,-0.0886335000395775,-0.5579196214675903,-0.2197096049785614
4.429712295532227,-1.610846996307373,9.245166778564453,-0.130351722240448,-0.7766734957695008,-0.26270872354507446
5.129034042358398,-1.4998507499694824,9.287755966186523,-0.16678237915039062,-1.0425238609313965,-0.3339820802211762
5.9003872871398935,-0.8268520832061768,9.612091064453125,-0.21961760520935059,-1.2485486268997195,-0.3610750436782837
5.393489837646484,-0.821815311908722,9.545868873596193,-0.29260045289993286,-1.4850126504898074,-0.3428890407085419
4.986076354980469,-0.9984809160232544,9.540456771850586,-0.33293130993843084,-1.802452802658081,-0.3845801651477814
4.933997631072999,-0.8279339075088501,9.584544181823732,-0.37409764528274536,-2.2652196884155273,-0.36278519034385687
5.001812458038331,-0.9715744256973267,9.04932498931885,-0.4066907465457917,-2.775421619415283,-0.31630143523216253
6.202131748199464,-0.7606514692306519,8.976719856262209,-0.46505251526832586,-3.3326892852783203,-0.34787696599960327
6.348860740661621,-2.598992347717285,8.984853744506836,-0.4839291572570801,-3.802252054214478,-0.35243678092956543
6.628846168518066,-1.2336472272872927,9.413572311401367,-0.3851493000984192,-4.247139930725098,-0.14918689429759982
7.82387638092041,-1.7681487798690798,9.837277412414553,-0.46849435567855835,-4.556893825531007,-0.03680999577045441
9.319742202758789,-2.7473435401916504,11.110219955444336,-0.4618630707263947,-4.806221008300781,0.018284477293491364
11.164778709411623,-5.455987453460694,11.86619758605957,-0.34653574228286743,-4.789776325225831,-0.0751480907201767
14.494173049926758,-7.445443630218507,11.539717674255373,0.10849023610353471,-4.684209346771241,-0.4335561990737915
21.095661163330078,-9.608104705810547,12.823811531066896,0.8091953992843628,-4.279221057891847,-0.9149390459060669
23.94779777526856,-12.448065757751467,9.2484827041626,1.901174783706665,-3.9056050777435307,-1.4405461549758913
28.606163024902344,-6.623993396759034,2.2529175281524663,2.87323546409607,-4.1940507888793945,-2.0927383899688725
30.727375030517578,-2.097954750061035,-5.472989082336426,3.447907686233521,-4.944196224212647,-2.9513769149780273
40.76050567626953,0.0795860067009926,-0.29809746146202093,3.4811003208160405,-5.086788177490234,-3.492785215377808
37.64192199707031,6.970745086669922,0.2271428555250168,3.3226597309112553,-4.81689453125,-3.8515257835388184
56.125885009765625,9.043222427368164,15.268164634704592,1.5892717838287354,-4.192041873931886,-3.535886764526367
40.98508834838868,4.956010341644288,19.85574722290039,-0.4331475496292114,-1.9686071872711182,-2.716964960098267
33.22057342529297,-0.03956219553947449,17.565416336059574,-1.9451917409896853,-0.515516996383667,-2.0424659252166752
22.091512680053714,-5.105298042297363,15.008206367492678,-2.4157502651214604,0.33383047580718994,-1.5370771884918213
13.172598838806154,-8.233544349670412,12.624937057495117,-2.0219709873199467,0.4144556522369385,-1.2448891401290896
8.792720794677734,-9.592611312866211,13.747096061706545,-0.8785616755485536,0.3385789096355439,-1.2336406707763672
7.246082305908203,-7.853275299072266,17.666051864624027,0.1584982126951218,0.737902045249939,-1.2005115747451784
2.801809310913086,-5.117687702178956,18.3663501739502,0.6379237174987793,1.6293016672134402,-1.027755379676819
-4.599882602691651,-3.9963290691375737,16.006248474121094,0.7714791297912598,2.5023524761199956,-0.863755464553833
-10.797840118408203,-4.234291553497315,11.925838470458984,0.714522123336792,2.995455265045166,-0.699022948741913
-15.527811050415039,-5.437552452087402,6.603024482727051,0.6999678015708924,3.0457301139831543,-0.5010041594505311
-18.0780029296875,-5.498425960540772,3.7128782272338867,0.7040687799453735,2.7440707683563237,-0.2750400602817536
-17.839281082153324,-4.500995635986328,3.743985176086426,0.4011628031730652,2.5188038349151616,0.0830853283405304
-17.77889633178711,-4.479985237121582,3.571901798248291,0.0015538185834884644,2.568798065185547,0.5101699233055116
-17.474681854248047,-4.998108863830566,3.7556381225585938,-0.29989090561866766,2.7640581130981445,0.935629427433014
-15.575306892395021,-4.522660255432129,4.197621822357179,-0.5056307315826416,3.1111710071563725,1.3618010282516482
-14.492693901062013,-3.6325404644012456,3.192947626113892,-0.6016761660575868,3.5360493659973145,1.710510849952698
-13.538553237915039,-1.983770251274109,1.9310892820358279,-0.6812929511070253,3.8224160671234135,1.958092212677002
-11.502446174621584,-0.2838209867477417,0.8421024680137635,-0.7978122234344482,4.0760235786438,2.1045799255371094
-9.294233322143555,0.7584859728813172,-0.3098434805870056,-0.866748571395874,4.240373134613038,2.088694334030152
-5.335068702697754,2.1878683567047124,0.39499554038047796,-0.9475350379943848,4.37627935409546,2.015209197998047
-1.4626032114028933,3.7509629726409917,0.536622166633606,-1.0454435348510742,4.618983268737793,1.9305654764175417
1.5696994066238406,5.085161685943604,-0.546692967414856,-1.0856740474700928,4.7604689598083505,1.7423951625823975
5.422487735748292,5.852614402770996,-1.262310862541199,-1.066138744354248,4.71393918991089,1.3905557394027712
10.037681579589844,5.75815486907959,-1.291267275810242,-0.9022435545921327,4.582569122314453,0.8948017954826356
12.937002182006836,6.574706554412843,-1.9791046380996706,-0.7045322060585023,4.366453647613526,0.349803626537323
15.806950569152834,5.997304439544679,-2.9938895702362065,-0.5495156049728394,4.026672840118409,-0.16290885210037231
17.764574050903324,4.210362434387207,-3.935990810394287,-0.27120620012283325,3.519190073013306,-0.5319226384162904
18.50121879577637,3.134865045547486,-4.1302227973938,0.024439632892608643,2.905765295028687,-0.6913045644760132
18.87236785888672,3.1279370784759526,-2.777704000473023,0.1550583988428116,2.304242372512818,-0.6010907888412476
18.25147247314453,2.639890670776367,-3.242681741714478,0.10599639266729356,1.8683581352233887,-0.2772797048091889
13.062200546264648,1.6722100973129275,-6.9603009223938,-0.056157555431127555,1.1428494453430176,0.2762663960456848
10.21175289154053,-1.1620409488677979,-6.906084537506104,-0.09090300649404527,0.20253098011016846,1.1108337640762331
86.701904296875,6.095325946807862,23.37697982788086,-2.67932677268982,-2.524664163589478,2.9565086364746094
28.427560806274418,18.550909042358402,2.261161088943482,0.43443477153778076,4.601005077362061,2.407094955444336
14.884524345397951,-28.17571067810059,21.538976669311527,-1.2661757469177246,2.7983629703521733,1.3441625833511355
-20.3521900177002,-5.217460155487061,10.016484260559084,-0.32493206858634954,1.572660207748413,1.0117729902267458
-9.137392997741701,6.314783573150636,15.36571788787842,0.5588192939758301,0.0684729516506195,-0.5842323899269105
4.281466960906983,-13.382771492004396,14.036295890808107,0.5256574153900146,-0.8109338879585267,-1.1583669185638428
6.938591003417969,4.6934967041015625,9.789612770080568,0.23337611556053162,-0.9694167971611024,-0.5357789397239686
10.697752952575685,5.015671730041504,7.439443588256836,-0.13970004022121432,-0.4960777759552002,-0.25137475132942205
9.134166717529297,-2.3980531692504883,6.472504615783691,-0.1940600574016571,0.04709624499082565,0.017800023779273037
6.882759094238281,-0.6665984988212587,8.368214607238771,-0.01563564501702786,0.35157036781311035,0.11485175043344499
5.33365297317505,-1.354389548301697,9.10427761077881,-0.056555014103651054,0.4984692931175232,0.11561617255210876
4.696232795715332,-1.4391140937805176,9.391016006469727,-0.06945816427469255,0.47747552394866943,0.10134882479906084
4.715982913970948,-0.7757792472839355,9.707018852233888,-0.09760474413633348,0.4309094846248627,0.11514922976493835
4.549559593200684,-0.2416668385267258,9.898486137390138,-0.15893106162548068,0.34215986728668213,0.20124165713787082
3.952490568161011,-1.0457543134689333,10.07301139831543,-0.18948683142662048,0.2062536031007767,0.23452211916446689
3.7545287609100346,-1.7752974033355713,10.134444236755373,-0.21076741814613342,0.06884159892797471,0.18674933910369873
3.9113941192626953,-1.8144596815109255,9.94040298461914,-0.2167963981628418,-0.05797699838876724,0.11697836965322496
4.3501038551330575,-1.2024281024932861,9.853976249694826,-0.21830734610557556,-0.15590678155422213,0.06432399153709412
4.76212215423584,-1.0403029918670654,9.57331657409668,-0.21644444763660434,-0.22873032093048096,0.0442996472120285
4.9061646461486825,-1.5336228609085085,9.309241294860842,-0.198078528046608,-0.2543618679046631,0.0328771360218525
5.026615619659425,-1.501144051551819,9.277407646179201,-0.18021996319293979,-0.26509848237037664,0.031015142798423767
4.899345874786378,-1.3804086446762087,9.392842292785646,-0.18133996427059176,-0.28415799140930176,0.04029118642210961
4.816030979156495,-1.505869269371033,9.34167003631592,-0.18834112584590915,-0.3236141800880432,0.040242262184619904
4.934179306030273,-1.5048065185546875,9.267887115478516,-0.18755865097045898,-0.36757382750511175,0.031509630382061005
4.94343376159668,-1.2227418422698975,9.35055923461914,-0.17063117027282715,-0.385875403881073,0.038007009774446494
5.04618787765503,-1.3067432641983034,9.294923782348633,-0.16779479384422302,-0.39688286185264593,0.03401926904916763
5.090492248535156,-1.2511895895004275,9.18238639831543,-0.16530911624431613,-0.3993085026741028,0.027266960591077805
5.295153141021729,-1.505152702331543,9.019061088562013,-0.14740736782550815,-0.3671361207962036,0.024880254641175274
5.282053470611573,-1.4897582530975342,8.87945556640625,-0.13165432214736938,-0.32664549350738525,0.04702980443835259
5.19306230545044,-1.1065698862075808,9.223066329956055,-0.12561242282390597,-0.3027724027633667,0.08028434962034227
4.888213157653809,-1.4259514808654785,9.216272354125977,-0.13502280414104464,-0.28524261713027954,0.09219332039356232
4.948902130126953,-1.64323365688324,9.028298377990724,-0.12168377637863159,-0.29776898026466375,0.08921726047992706
5.178593635559082,-1.7481044530868532,8.698992729187013,-0.10547582805156708,-0.2788706421852112,0.07018954306840898
5.062339305877686,-1.7038688659667969,8.599752426147461,-0.09720569103956224,-0.2590699791908264,0.0601625107228756
5.010288238525391,-1.6492775678634646,8.696084976196289,-0.09856253862380981,-0.2677638232707978,0.05837930366396905
4.806424140930176,-1.7089595794677734,8.922490119934084,-0.0896851122379303,-0.27690634131431585,0.048349469900131226
4.691783905029297,-2.128452777862549,8.842334747314453,-0.09187907725572587,-0.28994730114936834,0.01573217287659645
5.027717590332031,-2.1929018497467045,8.821025848388672,-0.07655110210180284,-0.30561745166778564,-0.033028382807970054
5.60180425643921,-2.2742910385131836,8.459736824035646,-0.059798531234264374,-0.27092614769935613,-0.07861202210187913
5.628143310546875,-1.6652417182922363,8.424882888793945,-0.04389668256044388,-0.20381008088588717,-0.10352563858032227
5.351296424865723,-0.8552587032318115,8.637347221374513,-0.059813208878040314,-0.14838388562202454,-0.09238863736391069
4.477005481719972,-1.3053596019744873,8.612227439880373,-0.06966941058635712,-0.1499598175287247,-0.07660944759845734
4.316736221313477,-2.133517980575562,8.841736793518068,-0.03801842778921127,-0.24857656657695773,-0.11747821420431138
4.927934169769288,-2.0598812103271484,8.862612724304201,-0.015766268596053127,-0.3232792615890503,-0.1612530201673508
4.356485366821289,-1.6351100206375124,9.26629638671875,-0.053986549377441406,-0.40958642959594727,-0.21312518417835238
4.555033206939698,-1.8182902336120605,9.248389244079592,-0.08992787450551988,-0.5445767641067505,-0.26084688305854803
4.499314785003663,-1.632247567176819,9.815473556518555,-0.12088359892368317,-0.7180785536766053,-0.3191726505756379
5.1707000732421875,-0.47476744651794434,9.943122863769531,-0.15155035257339478,-0.9051765799522401,-0.36130470037460327
4.711000919342042,-0.8446512818336488,9.676448822021484,-0.22804689407348633,-1.143721103668213,-0.3452956378459931
4.428765296936035,-0.2554291784763337,9.809885025024414,-0.3112669587135315,-1.4654957056045534,-0.28476250171661377
3.7759180068969727,-0.7086182832717896,9.905607223510742,-0.43564701080322266,-1.8296507596969607,-0.30179831385612493
4.645136356353761,-0.7750719785690308,9.892271995544435,-0.40086841583251953,-2.2063691616058354,-0.40163397789001465
4.463544845581055,-0.37856972217559814,10.210872650146484,-0.4004825949668884,-2.5543575286865234,-0.3505600988864899
4.642225742340089,-0.7719829082489014,9.442960739135742,-0.44677937030792236,-2.9916269779205327,-0.2961508631706238
4.756657600402832,-1.6057734489440918,8.754426002502443,-0.3507954478263855,-3.4766356945037846,-0.3639424145221711
5.002628803253175,-1.5551629066467285,9.342710494995117,-0.28087994456291204,-4.079440116882324,-0.5401329398155214
6.286231517791749,-4.128337860107422,10.49012851715088,0.1646536886692047,-5.053502082824707,-0.9304891228675843
5.308789730072022,-2.1098217964172363,10.718762397766115,0.1801404058933258,-5.220409870147706,-0.7496625185012817
9.576817512512209,-4.521193027496339,12.798952102661133,0.2157019227743149,-5.62729549407959,-0.6877974271774292
14.597687721252443,-5.192924499511719,15.32676887512207,0.3446163535118103,-5.513511180877686,-0.6777085065841675
17.51345443725586,-6.99973201751709,14.12682628631592,0.6629828214645386,-5.090873718261719,-0.9553290009498597
27.823827743530277,-6.17588996887207,14.011735916137695,1.1862033605575564,-4.660329818725586,-1.33767306804657
31.073902130126953,-5.34321403503418,8.165672302246094,1.3256809711456299,-4.391096591949464,-1.5949231386184695
34.90864562988281,-6.008756637573242,4.2096099853515625,1.8109643459320068,-4.289496898651124,-2.066488265991211
38.629493713378906,-5.842385768890382,4.2343339920043945,2.3353526592254643,-3.7446777820587163,-2.055746078491211
33.18364334106446,-0.17322047054767611,0.26020222902297974,2.891150236129761,-3.64383602142334,-2.380220174789429
45.826629638671875,3.45314359664917,15.378470420837404,2.0762069225311284,-3.089388370513916,-2.2094130516052246
28.28433609008789,2.9682507514953613,13.941134452819826,0.7819048166275024,-1.7247723340988161,-1.7422807216644287
23.035690307617188,3.478970289230347,11.878826141357422,-0.8745257258415223,-1.5199939012527468,-1.3175475597381592
19.858587265014652,-0.6022288203239442,11.823184967041016,-1.9329210519790652,-1.187262773513794,-1.0610512495040896
15.15139389038086,-4.973056316375733,10.697756767272951,-2.095831871032715,-0.8388313651084901,-0.976755440235138
10.034578323364258,-8.684419631958008,10.037975311279297,-1.282130479812622,-0.6268394589424134,-1.160130500793457
6.396060943603516,-9.054218292236328,11.40181064605713,-0.029729476198554042,-0.5305840373039247,-1.3257701396942139
5.458280563354492,-6.229704380035401,14.242086410522461,0.8467674255371094,-0.152043029665947,-1.2663860321044922
3.179893970489502,-3.6984786987304688,14.794561386108398,1.125834107398987,0.6347421407699585,-1.0541160106658936
-2.974071264266968,-2.2076094150543217,12.550524711608888,1.0365667343139648,1.4434710741043093,-0.9427061080932617
-7.973788261413574,-1.9092332124710085,10.048804283142092,0.6645107269287109,1.8839209079742432,-0.8531164526939393
-10.435910224914553,-3.3850166797637944,7.654932975769043,0.35653278231620794,2.0291566848754883,-0.7592421174049379
-10.26368808746338,-4.619152545928956,7.36011838912964,0.22540755569934848,2.147019386291504,-0.5968418121337891
-8.92309093475342,-4.799347400665284,8.336270332336428,0.1182374879717827,2.480349540710449,-0.2774153649806977
-8.716899871826172,-4.519549846649171,8.426424980163576,-0.06813935935497284,2.9847893714904785,0.13854305446147921
-9.623671531677248,-4.247425556182862,6.238229751586914,-0.31151834130287176,3.514586925506592,0.5829439759254457
-12.95809078216553,-4.021409034729004,1.5816740989685059,-0.3822356760501862,3.672476291656494,0.9043678045272827
-13.760762214660646,-2.623184442520142,-1.0236377716064453,-0.5212808847427368,3.4072482585906987,1.1980793476104736
-11.871210098266602,-1.6947079896926882,-0.6201584339141846,-0.8024879693984985,3.107987403869629,1.4947434663772585
-9.065105438232422,-1.9221839904785156,1.1105428934097292,-0.9923328161239624,3.046219110488892,1.7289707660675049
-6.942505359649659,-1.6425777673721316,1.9700820446014404,-1.00075364112854,3.228251695632935,1.9216209650039675
-6.070789337158203,0.3565423786640168,0.9590445756912231,-0.9690808653831483,3.44254732131958,2.06802773475647
-5.138521671295167,2.22693419456482,-0.74900221824646,-1.0436327457427979,3.5242624282836914,2.136053800582886
-3.834770679473877,3.1584045886993413,-1.9596080780029297,-1.1017166376113894,3.44754695892334,2.06723427772522
-0.9570639729499818,4.668391227722168,-1.1498947143554688,-1.1581263542175293,3.340462446212769,1.898736119270325
3.3137168884277344,5.906362056732179,0.9777409434318544,-1.3052009344100954,3.381925582885742,1.677603602409363
8.004112243652344,4.693194389343262,2.3242440223693848,-1.3417819738388064,3.605658292770386,1.3801136016845703
11.173690795898438,4.09087896347046,2.2259597778320312,-1.119217872619629,3.801022291183472,1.0308234691619873
13.54404067993164,4.060742378234863,0.7148181796073915,-0.8940832018852235,3.813662052154541,0.6761409044265747
15.970033645629883,3.3226559162139897,-0.8883851170539857,-0.7684305906295776,3.6082627773284917,0.43340224027633667
17.451927185058594,2.068604707717896,-2.4976320266723633,-0.6932731866836548,3.222597122192383,0.37909033894538885
18.12064933776856,1.0832135677337646,-4.242409229278565,-0.71565842628479,2.7076442241668706,0.5894235372543335
16.195402145385746,0.08367691934108734,-7.552367210388184,-0.8208677768707275,1.965156435966492,1.0065766572952273
13.956793785095217,-1.454904913902283,-8.402708053588867,-1.0374051332473757,0.9529988765716553,1.6376596689224245
12.279573440551758,-3.24405574798584,-7.746941089630128,-1.2488198280334473,0.0318005308508873,2.441174745559693
95.89702606201173,-1.6116435527801514,1.869023084640503,0.3979606628417969,-1.4418655633926394,1.0986533164978027
45.688556671142585,25.87807655334473,26.50240707397461,2.250600099563599,4.00921630859375,-0.11488352715969086
-4.154653072357179,-24.110712051391605,8.12392330169678,0.3999281227588654,3.050915241241455,-0.4442457258701325
-11.124566078186037,13.043268203735352,13.85922622680664,0.9429112672805786,2.455085277557373,0.026670949533581737
-2.274282932281494,7.027114391326905,16.085556030273438,1.0654834508895876,1.1076765060424805,-1.6882530450820925
0.8162804841995239,-12.76186275482178,12.323706626892092,0.503320574760437,0.15106733143329623,-0.4534254372119904
5.872469902038574,7.707879543304444,12.123018264770508,0.33494904637336737,-0.48784536123275757,-0.12577410042285922
6.455913066864015,-2.6301064491271973,8.28139400482178,0.06078378483653069,-0.27561077475547796,-0.30426454544067383
6.969694137573242,-4.367445945739746,7.609650135040284,0.3316522240638733,-0.14681638777256015,-0.2698920965194702
7.042077541351319,0.6428190469741821,9.286107063293459,0.4752894639968872,0.0776156857609749,-0.2489828020334244
5.916655540466309,1.301159739494324,9.545637130737305,0.2380517274141312,0.20183339715003967,-0.0821845903992653
5.485685348510742,-0.43734991550445557,9.510657310485842,0.10704841464757921,0.23152099549770358,0.003434198908507824
5.045419216156007,0.06736764311790466,9.845409393310547,0.02902057580649853,0.21787330508232117,0.06428415328264238
4.587529182434082,-0.692868709564209,9.80782699584961,-0.028689594939351085,0.15457448363304138,0.11198833584785461
4.184789657592773,-1.244837760925293,9.751340866088867,-0.03792765364050866,0.04910048097372055,0.08127259463071825
4.195478439331055,-1.0418217182159424,9.760377883911133,-0.040444757789373405,-0.0524212308228016,0.03667258471250534
4.326838016510011,-0.7254543900489808,9.907402038574219,-0.08022785186767578,-0.149292066693306,0.007200051099061966
4.571922779083253,-1.0110532045364382,9.613804817199709,-0.10022982954978943,-0.2331606894731522,-0.0072894576005637654
4.947996139526367,-1.3840421438217165,9.345048904418945,-0.07334386557340623,-0.26395225524902344,-0.05960442498326302
5.0779218673706055,-1.5817414522171023,9.099318504333498,-0.03245844691991806,-0.2608634829521179,-0.0990637168288231
5.170613765716554,-1.2311937808990479,9.128719329833984,-0.01202370598912239,-0.2735596597194672,-0.09195265173912048
5.308117389678956,-1.0002684593200684,9.178873062133789,-0.03124813362956047,-0.28822711110115057,-0.044187251478433616
5.4333648681640625,-0.916828989982605,9.044549942016602,-0.05562141537666321,-0.2795077860355378,0.001440619584172964
5.492124557495117,-0.6497877836227417,8.927784919738771,-0.06376123428344727,-0.28691917657852173,0.031239459291100505
5.442830562591554,-0.45037269592285156,9.015094757080078,-0.09023576229810716,-0.2739322781562805,0.06992011517286302
4.979091644287109,-0.7853418588638306,9.117151260375977,-0.1282421350479126,-0.2724516093730927,0.09702555090188981
4.7530012130737305,-1.5095468759536745,8.972768783569336,-0.13857375085353854,-0.27290451526641846,0.04058304056525231
4.609770774841309,-1.721034288406372,9.083052635192873,-0.11076417565345764,-0.3189629912376404,0.01061727758497
4.541794300079347,-1.7115671634674072,9.189325332641602,-0.06716934591531755,-0.37653571367263794,-0.024763608351349834
4.673029899597168,-1.4798129796981814,9.284210205078125,-0.05360336974263192,-0.43068045377731323,-0.08128470182418823
4.652271747589112,-1.5661398172378542,9.07717037200928,-0.03879797831177712,-0.4817590117454529,-0.11813320964574815
5.039402961730957,-1.0759267807006836,9.133071899414062,-0.03984348475933075,-0.5426462888717651,-0.12850581109523776
5.015018939971925,-0.9168776869773866,9.149185180664062,-0.0712665840983391,-0.5808627605438232,-0.14437879621982577
5.079581737518311,-1.36780321598053,8.669812202453615,-0.08078426122665405,-0.6133971810340882,-0.199505552649498
5.340358734130859,-0.7199180722236634,8.730567932128906,-0.055106647312641144,-0.6279160380363465,-0.1998043656349182
5.567674160003663,-0.9756442308425903,8.64784336090088,-0.056250058114528656,-0.605664849281311,-0.19612376391887668
5.217039585113526,-1.7048468589782715,8.487380027770998,-0.056971330195665366,-0.6257187128067017,-0.23106394708156588
5.109323501586914,-1.4561347961425781,8.82472038269043,-0.03313181549310684,-0.7172442078590394,-0.23345483839511874
4.872908592224121,-1.2631806135177615,9.157617568969727,-0.03102455660700798,-0.8130492568016053,-0.23906099796295166
4.6557159423828125,-1.4379802942276003,8.965499877929688,-0.017828330397605896,-0.9649409055709839,-0.29269722104072576
5.307460308074952,-0.771005392074585,9.190385818481445,-0.030926624312996868,-1.1352272033691406,-0.2995298802852631
5.051049709320069,-0.7514087557792665,9.648425102233888,-0.09869460761547089,-1.3041371107101443,-0.2968908846378327
4.915669918060304,-0.8143471479415894,9.5604944229126,-0.13561840355396274,-1.5335769653320312,-0.29812499880790716
5.356616497039796,-1.8804755210876465,10.107630729675295,-0.0414714440703392,-1.7548317909240723,-0.3026192486286164
4.918855667114258,-0.7713984251022339,9.902091026306154,0.08772516995668413,-2.0456557273864746,-0.35003706812858587
5.521432876586914,-0.9586395621299745,9.322752952575685,0.07880162447690965,-2.3133959770202637,-0.40898436307907104
5.824823379516602,-0.6108656525611879,9.025676727294922,0.10718660801649095,-2.6374659538269043,-0.4404937326908112
5.767160415649414,-0.28613245487213135,8.731294631958008,0.13049358129501343,-2.965259075164795,-0.4718787372112275
5.974014759063722,-0.7447104454040527,8.263412475585938,0.21282672882080078,-3.3360383510589604,-0.553546667098999
6.312208652496339,-0.6000760197639466,7.9515886306762695,0.2931528687477112,-3.7050316333770756,-0.5862484574317933
6.880688667297363,-0.0655326098203659,8.614258766174318,0.32457566261291504,-4.096214771270753,-0.5358723402023315
7.784100055694581,-0.30991742014884954,9.195729255676271,0.3127838969230652,-4.398991584777832,-0.4122913777828217
8.859332084655763,-0.5074023008346558,10.245126724243164,0.3351881504058838,-4.641430377960206,-0.3017740845680237
11.080422401428224,-0.9939424395561219,11.193648338317873,0.2047706097364426,-4.720500946044922,-0.25405967235565186
15.627259254455568,-0.5993309020996094,11.61825942993164,-0.22072738409042358,-4.55187749862671,-0.03316742181777954
21.537097930908203,-0.08628033101558685,12.820611000061037,-0.7545632123947144,-4.106959342956543,0.12479809671640398
25.222784042358402,0.4936487972736359,11.915468215942383,-1.189838528633118,-3.5620570182800293,0.15243275463581088
30.294967651367188,-3.0252490043640137,4.89594602584839,-1.6981519460678103,-3.533902645111084,-0.34463924169540405
31.32707023620606,-10.619286537170412,-6.443760871887207,-0.5716434717178345,-4.055815219879151,-0.9928727149963379
39.287109375,-11.922496795654297,0.2680971026420593,1.0912798643112185,-3.9260838031768803,-1.286304235458374
37.55577468872071,-9.13339614868164,0.4551514983177185,2.572446823120117,-3.7348234653472905,-1.3364579677581787
49.5504150390625,-2.1767969131469727,15.186238288879396,2.739580869674683,-3.3541054725646973,-1.1763331890106201
33.491283416748054,1.6249573230743408,16.421016693115234,1.9733537435531618,-1.7488517761230469,-1.0925167798995974
23.882553100585938,4.188917636871339,13.606101989746094,0.3885940611362458,-1.3557835817337038,-1.0694923400878906
19.830018997192386,3.474074363708496,13.600105285644531,-1.1911209821701052,-1.0444986820220947,-1.1126393079757693
14.787603378295898,-0.16073891520500183,12.649516105651857,-2.2663853168487553,-0.762932300567627,-1.314239501953125
11.607006072998047,-5.367226600646973,12.910853385925295,-2.291022777557373,-0.4509285986423493,-1.7478835582733154
7.935859203338624,-9.421052932739258,13.87373161315918,-1.3787008523941042,-0.07176419347524644,-2.1362128257751465
4.977824687957765,-9.218214988708498,14.89927864074707,-0.1874835640192032,0.4417991638183594,-2.2819426059722905
-0.021627068519592285,-7.258005619049073,14.094134330749513,0.7360978722572328,1.0634739398956299,-2.227020740509033
-5.201427936553956,-4.808413028717042,12.860998153686523,1.08967924118042,1.5569351911544802,-2.0748019218444824
-8.353100776672365,-3.0444014072418217,11.3397216796875,0.8143669366836548,1.9401805400848389,-1.7855316400527956
-10.21713638305664,-3.8376145362854004,9.067493438720703,0.3710232377052307,2.217599153518677,-1.492234468460083
-10.586687088012695,-5.075800895690918,8.187554359436037,0.028455426916480068,2.4071102142333984,-1.1318747997283936
-11.014177322387695,-5.810904026031495,6.542112827301026,-0.2302304953336716,2.6695356369018555,-0.6815256476402284
-13.165200233459474,-5.970369815826417,3.6275475025177006,-0.34198886156082153,2.7843122482299805,-0.2565453946590424
-14.287260055541992,-4.746201515197754,1.4782730340957644,-0.5033408403396606,2.627283334732056,0.1808863878250122
-13.38539218902588,-3.521495819091797,1.2866226434707644,-0.8337143659591675,2.390382051467896,0.6552056670188905
-10.980702400207521,-3.676508188247681,2.6459202766418457,-1.153076767921448,2.321568489074707,1.1102708578109743
-8.685169219970703,-4.092707633972168,4.0481414794921875,-1.2707936763763428,2.513673782348633,1.5216482877731325
-6.987790107727051,-3.4560394287109375,4.184652328491211,-1.2386661767959597,2.849471092224121,1.874378561973572
-6.343662261962891,-2.322088956832886,3.185214042663574,-1.1541267633438113,3.1487808227539062,2.146939277648926
-4.782973766326905,-0.979707181453705,2.739490032196045,-1.1556460857391357,3.38107180595398,2.3770670890808105
-3.2767767906188965,0.4471395313739777,1.816687822341919,-1.1874620914459229,3.5945043563842773,2.5957062244415288
-1.81048583984375,2.8450362682342534,1.146906852722168,-1.3261035680770876,3.7248740196228027,2.753432989120484
1.087479829788208,3.7639772891998295,1.0346454381942751,-1.5557105541229248,3.8129274845123295,2.7419855594635014
4.214103221893311,3.470461845397949,1.2134984731674197,-1.5930068492889404,3.854890108108521,2.5515151023864746
7.006194591522218,3.7095541954040527,1.4177099466323855,-1.439237713813782,3.864887952804566,2.2516775131225586
9.822329521179201,4.093157291412354,1.141052484512329,-1.250654935836792,3.851803541183472,1.857097864151001
11.848608970642092,3.389838218688965,0.17595781385898593,-1.0198632478713991,3.748170852661133,1.4023113250732422
13.461117744445803,2.6984262466430664,-0.8172209858894349,-0.7787141799926758,3.5346143245697026,1.029489517211914
14.999336242675781,2.0439023971557617,-2.4104197025299077,-0.6454543471336366,3.1891410350799565,0.9238101243972778
16.145957946777344,1.2400214672088623,-4.678654193878175,-0.7186548709869385,2.634233713150025,1.1758639812469482
16.989080429077152,-0.727070987224579,-6.770491123199464,-0.8376106619834901,1.8895928859710693,1.7084929943084717
17.85110664367676,-1.7150793075561523,-7.736338138580323,-0.8998287320137025,1.010352611541748,2.4497964382171635
15.547260284423828,0.24290387332439425,-10.057530403137209,-1.0077368021011355,0.1418496519327164,3.126086711883545
11.828950881958008,2.028138399124146,-9.50424575805664,-1.3365466594696045,-0.8500279784202577,3.614335536956787
47.486656188964844,-8.146451950073242,-13.664836883544922,0.6991531252861024,-1.3609890937805176,2.2542824745178223
79.23213958740236,22.74295425415039,43.44312286376953,3.8425600528717045,-1.0198414325714111,-2.5039412975311284
12.436354637145998,-16.917543411254886,-0.36894774436950684,1.3955558538436892,5.698502063751222,-0.10328114032745361
-3.8102798461914062,-9.573862075805664,22.127803802490234,2.036676645278931,3.1165380477905273,-0.5961797833442689
-12.9796838760376,18.945789337158203,15.384355545043945,1.6371426582336426,2.4671704769134526,-1.574200749397278
3.6557643413543706,-2.6693823337554936,16.2500171661377,0.7932595610618592,0.6022907495498657,-0.9187791943550111
2.339347124099732,8.238089561462404,13.83688735961914,0.44397869706153875,-0.6830473542213441,-0.2532898783683777
6.86844301223755,4.910538196563722,11.205856323242188,-0.088574655354023,-0.6509387493133545,-0.005075402092188598
7.535902976989746,-8.715855598449709,5.6686978340148935,-0.03512521833181381,-0.518347203731537,0.11728674918413164
6.861739158630371,-5.004640579223633,7.2381486892700195,0.29312202334404,-0.15352851152420044,-0.09172511845827104
6.885076522827148,-1.7849062681198122,8.155576705932617,0.42931461334228516,0.18741795420646667,-0.30478677153587347
6.147269248962402,1.1636577844619753,9.014931678771974,0.2844854295253754,0.35327988862991333,-0.18378983438014987
5.171355724334718,1.465980052947998,9.628148078918459,0.04854341596364975,0.3909581601619721,0.07511944323778154
4.5634779930114755,0.7683621048927308,10.198964118957521,-0.18800881505012512,0.28229001164436346,0.2493332326412201
4.020061969757081,-1.193320155143738,10.204468727111818,-0.27830186486244207,0.028963627293705944,0.3222648501396179
3.821846723556519,-2.2654619216918945,10.020480155944826,-0.21065191924571994,-0.21250399947166443,0.21531970798969272
4.401661396026612,-2.0123264789581303,9.734949111938477,-0.18980315327644348,-0.3540934026241303,0.12170305103063585
5.0867414474487305,-1.2811838388442995,9.428548812866211,-0.22948856651782992,-0.4070301055908203,0.09973556548357011
5.50872802734375,-0.9420663118362427,9.18879508972168,-0.2898515164852143,-0.4291291534900666,0.12686526775360107
5.657711982727051,-0.9172354936599731,9.09738063812256,-0.3514549732208252,-0.44168701767921453,0.17901241779327393
5.531847953796387,-1.6893290281295779,8.820060729980469,-0.3370542228221894,-0.4385650157928467,0.2098144292831421
5.553750514984132,-2.3266503810882573,8.685295104980469,-0.28541380167007446,-0.4077433645725251,0.18345573544502258
5.429217338562012,-2.432716608047486,8.604729652404787,-0.22527757287025452,-0.36098504066467285,0.14672525227069858
5.424786567687988,-2.2730398178100586,8.5947265625,-0.18488989770412448,-0.3228985667228699,0.12338612228631975
5.408683776855469,-2.249346017837525,8.481056213378906,-0.1588995307683945,-0.2828212380409241,0.09038791060447693
5.571683883666992,-2.135284900665283,8.437579154968263,-0.12236282974481584,-0.2520607113838196,0.06954274326562883
5.351165771484375,-1.9639194011688232,8.575630187988281,-0.09143632650375366,-0.23736175894737244,0.05178292468190194
5.459394931793214,-2.187597513198853,8.427124977111818,-0.06314194947481157,-0.217387855052948,0.0230501051992178
5.6042938232421875,-2.3512511253356934,8.245367050170898,-0.002837629523128271,-0.18221943080425265,-0.0002555731043685228
5.578105926513672,-2.4013955593109135,8.306976318359375,0.0666772872209549,-0.1438238173723221,-0.029641348868608475
5.628666400909425,-2.083401441574097,8.363973617553711,0.09752590209245683,-0.09859056025743486,-0.06561112403869629
5.555816173553468,-1.9955502748489382,8.337451934814453,0.104424849152565,-0.04068445041775704,-0.07547158002853394
5.357917308807374,-1.584602236747742,8.817972183227539,0.08469556272029877,-0.01896406896412373,-0.05653008446097375
5.408561229705811,-1.8481243848800661,8.700520515441896,0.05021316185593606,0.004118357785046101,-0.051689762622118
5.686625957489015,-2.1390054225921635,8.40023708343506,0.06311514973640442,0.020717822015285492,-0.05677222833037377
5.74421262741089,-1.7271804809570312,8.492918014526367,0.07578935474157335,0.06329117715358734,-0.0625693127512932
5.56159782409668,-1.6307623386383057,8.647715568542482,0.07200475782155992,0.10292969644069672,-0.061957359313964844
5.252283096313477,-1.9705801010131836,8.664706230163576,0.059166323393583305,0.11709149181842804,-0.0749432072043419
5.000957489013672,-2.0666160583496094,8.749683380126953,0.06456465274095537,0.0908016934990883,-0.08512742817401886
4.978295803070069,-2.388972282409668,8.646542549133303,0.09933059662580492,0.05105038732290268,-0.1387952119112015
5.201180458068848,-2.7183363437652592,8.375518798828125,0.1708611249923706,0.030053926631808284,-0.22120688855648044
5.183210372924805,-1.4348385334014893,9.096745491027834,0.18753749132156372,-0.017457002773880962,-0.25202417373657227
5.399841785430909,-1.0324952602386475,9.261014938354492,0.15861064195632935,-0.04152413457632065,-0.24971808493137362
5.151772022247315,-0.9820735454559326,9.264158248901367,0.120917446911335,-0.09637154638767242,-0.22946833074092868
4.778861522674561,-0.8957642912864686,9.409327507019045,0.08318092674016954,-0.2057863473892212,-0.2070603370666504
5.147207736968995,-1.2311588525772097,9.412266731262209,0.06458409130573273,-0.31284663081169134,-0.19861966371536255
4.942078590393066,-1.402428984642029,9.164036750793459,0.061533104628324516,-0.40798875689506536,-0.21349653601646423
5.001915454864503,-1.5813875198364258,9.27259922027588,0.04689460620284081,-0.5223650932312012,-0.24467511475086215
5.05931043624878,-1.913093090057373,9.094093322753906,0.06261302530765533,-0.63846093416214,-0.3055504262447358
4.944135665893555,-1.6050626039505007,8.827898025512695,0.09631089121103288,-0.7517184019088745,-0.38804408907890325
5.106046199798585,-1.8622806072235107,8.628762245178224,0.1137421950697899,-0.8773949742317201,-0.4721904993057251
5.416156291961671,-1.0838079452514648,8.469555854797365,0.10722050815820695,-1.0025527477264404,-0.4702186286449433
5.701860904693604,-1.4030449390411377,8.80049228668213,0.11257694661617279,-1.0911623239517214,-0.47998866438865667
4.964914798736573,-1.1559275388717654,8.769287109375,0.08945957571268083,-1.1808714866638184,-0.4748136699199677
5.874410629272461,-1.708693504333496,8.518491744995117,0.08976951241493225,-1.3162765502929688,-0.4741345345973969
6.2507338523864755,-1.016531229019165,8.857975959777834,0.08823636919260026,-1.3832459449768066,-0.49510535597801214
6.350427150726319,-1.3109546899795534,9.086225509643555,0.1309739798307419,-1.4587922096252441,-0.46104156970977783
5.627300739288331,-0.6750567555427552,8.94943141937256,0.14603860676288608,-1.6172010898590088,-0.4251705706119538
5.9788923263549805,-1.2197201251983643,9.30424213409424,0.12370287626981737,-1.8173407316207888,-0.4016323685646057
5.5869812965393075,-0.980620265007019,9.309745788574219,0.1185131147503853,-2.0339369773864746,-0.4129081070423127
5.097346305847168,-1.533531904220581,9.286588668823242,0.14273916184902194,-2.3299612998962402,-0.503757119178772
4.826163291931152,-1.9288909435272217,9.30208969116211,0.24674640595912936,-2.7152676582336426,-0.6193258166313172
5.229498863220215,-1.7633734941482546,8.572581291198732,0.376131683588028,-3.1141259670257573,-0.7454918622970581
5.811657905578613,-1.279062867164612,8.26869010925293,0.47483220696449285,-3.553096294403076,-0.8263426423072816
6.097424030303956,-1.1471939086914062,7.834688663482667,0.6163238286972046,-4.017655849456788,-1.017740607261658
6.912229537963867,-1.1486165523529053,7.672667980194093,0.8028827309608461,-4.53856086730957,-1.1455143690109255
8.179331779479982,-0.4796985387802124,8.379216194152834,0.8729159832000732,-5.072258949279785,-1.0617522001266482
9.314162254333498,0.2943753302097321,9.217840194702148,0.8719683885574341,-5.414525508880616,-0.9260810613632202
12.106779098510742,-0.3197367787361145,9.067706108093263,0.7752856612205506,-5.452057838439941,-0.816461443901062
15.98110866546631,-1.5428980588912966,9.352588653564453,0.727105975151062,-5.145745754241944,-0.8489723205566406
17.699748992919922,-3.203841924667359,9.015313148498537,0.8308013677597046,-4.371862411499023,-1.1149457693099978
21.57937812805176,-2.736085653305054,8.70570182800293,0.822079062461853,-3.6535346508026127,-1.4529800415039062
22.50780487060547,-1.3074514865875244,7.626578330993652,0.20916618406772616,-2.9883780479431152,-1.4132952690124512
22.455364227294922,1.9059363603591921,3.982606649398804,-0.9922220110893251,-2.623852252960205,-1.0723215341567995
19.057054519653324,1.2782926559448242,-2.0358519554138184,-1.6587656736373904,-2.753536462783814,-1.3409676551818848
21.374897003173828,1.6919622421264648,-5.383743762969972,-1.7519447803497314,-3.469300985336304,-1.846956729888916
20.391712188720703,0.7600588798522949,-6.884963035583496,-1.3274948596954346,-4.221807003021241,-2.72905707359314
18.97429466247559,2.156563520431519,-6.451903820037843,-0.5223466753959657,-5.070315361022949,-3.7396504878997807
30.71539306640625,4.143146991729737,0.909806787967682,-0.2514390051364899,-5.8575806617736825,-4.304521560668945
30.67692375183106,3.5999333858489995,8.035418510437013,-0.5523942708969116,-5.175438404083253,-4.248968124389648
26.645748138427734,2.3586914539337163,8.327518463134766,-1.0243190526962282,-4.6740827560424805,-4.087308883666992
23.6403980255127,-0.39028745889663696,9.445161819458008,-1.1819889545440674,-4.046692371368409,-3.972923755645752
18.978240966796875,-2.708758115768433,9.610801696777344,-1.12026584148407,-3.506992101669312,-3.798095226287842
15.42131233215332,-5.723388671875,9.957086563110352,-0.6556673049926758,-3.1138560771942143,-3.595151424407959
12.914823532104492,-6.808244705200195,10.219103813171388,0.08281320333480835,-2.7678182125091557,-3.32957673072815
10.940183639526367,-6.511183738708496,10.82246208190918,0.7712572216987611,-2.3425235748291016,-3.0368373394012456
9.368839263916016,-5.424257278442383,12.10102653503418,1.203590273857117,-1.8383737802505495,-2.653036594390869
7.70490598678589,-4.4107818603515625,12.842567443847656,1.3347893953323366,-1.1770658493041992,-2.159958124160767
5.043988704681397,-3.4769954681396484,12.731130599975586,1.2169301509857178,-0.43669739365577703,-1.6848236322402956
2.2622032165527344,-2.5632009506225586,12.456595420837404,0.8599833250045776,0.19242642819881442,-1.2007403373718262
0.26842284202575684,-2.185463666915894,12.064545631408693,0.30394214391708374,0.7049624919891357,-0.7240859866142274
-0.8789986968040467,-2.634514331817627,11.749750137329102,-0.26563000679016113,1.2284923791885378,-0.2981271743774414
-1.987985372543335,-3.158751249313355,10.989171981811523,-0.6869035363197328,1.74253249168396,0.11131654679775238
-3.8909144401550293,-3.822703123092652,9.68635654449463,-0.9079251289367676,2.1226131916046147,0.4856380820274353
-5.215520858764648,-3.8309872150421147,8.543394088745117,-0.933281660079956,2.315999984741211,0.8182474970817567
-5.468971252441406,-3.684574365615845,7.913304328918457,-0.8460957407951356,2.4054040908813477,1.1005681753158572
-4.669983863830566,-2.835418224334717,8.251441001892092,-0.7533991932868959,2.494503974914551,1.35178804397583
-3.40449070930481,-1.736326575279236,9.241083145141602,-0.7750875949859619,2.687780618667603,1.5754389762878418
-2.2427754402160645,-0.6537154912948608,9.930565834045412,-0.9350858926773071,3.0573177337646484,1.784661412239075
-2.000178813934326,0.04574903845787048,9.734184265136719,-1.1888507604599001,3.473649501800537,1.9574128389358523
-2.0141372680664062,0.24451741576194763,8.940651893615724,-1.4281750917434695,3.812185764312744,2.0718111991882324
-1.5755364894866943,0.25832653045654297,8.195001602172852,-1.5775943994522097,4.043818473815918,2.1245138645172124
-0.7950347065925599,0.7158079147338867,7.881755352020265,-1.666311502456665,4.212103843688965,2.117379426956177
0.44745945930480957,1.626225829124451,8.144542694091797,-1.8000727891922,4.382932662963867,2.0584862232208256
2.0356507301330566,2.9463114738464355,8.781110763549805,-2.0484514236450195,4.606498241424561,1.9686053991317751
3.5129847526550293,4.074729919433594,9.186400413513185,-2.415302276611328,4.894059658050538,1.83492112159729
4.55012083053589,4.66078805923462,8.677709579467773,-2.8406116962432866,5.185803890228272,1.6446921825408936
4.857145786285401,4.844205379486085,7.730652332305909,-3.1855335235595703,5.33362913131714,1.4184150695800781
5.355677127838136,4.820592880249023,6.928193092346191,-3.4022536277770996,5.323575496673585,1.154844641685486
6.4644012451171875,4.423007011413574,6.879915714263917,-3.4567611217498784,5.221897125244141,0.8704486489295961
8.21516227722168,4.627479553222656,8.024682044982912,-3.370634078979492,5.122742652893066,0.5800834298133851
10.156744956970217,5.615915775299073,9.724246978759766,-3.329190015792847,5.105698585510254,0.2965602576732636
11.362733840942383,8.006354331970217,11.025509834289553,-3.5066134929656987,5.158476829528809,0.02570261061191559
12.342901229858398,10.377716064453125,11.428397178649904,-4.009969234466554,5.21510124206543,-0.3252841532230378
