AccX,AccY,AccZ,GyrX,GyrY,GyrZ
0.0005243712803348899,-0.00010214903159067035,0.0010593401966616514,4.1125031202682294e-07,-1.0374066050644617e-06,-1.478763806517236e-06
4.6483731269836435,-0.9434646964073182,9.419187545776367,0.0006660136859863997,-0.00586358504369855,-0.009814561344683172
4.634836196899414,-0.9325156807899476,9.427278518676758,0.0003470891097094864,-0.00620539765805006,-0.00845137517899275
4.631588935852051,-0.979642391204834,9.431925773620607,-0.0023089882452040915,-0.010058452375233175,-0.009289657697081566
4.600894927978516,-0.9725455641746522,9.433320045471193,-0.003651687875390053,-0.01148341689258814,-0.010662216693162918
4.625582218170167,-1.0222885608673096,9.415607452392578,-0.0012666693655774,-0.013756144791841507,-0.012155566364526749
4.648427486419679,-0.9545375108718872,9.444603919982912,-0.0022640847600996494,-0.012750464491546156,-0.013104910030961037
4.672022819519043,-0.9606923460960389,9.418738365173342,-0.001107094343751669,-0.010603228583931923,-0.012001245282590391
4.666777610778809,-0.9208234548568726,9.40306282043457,-0.0016333991661667824,-0.009006292559206487,-0.010219596326351166
4.6684584617614755,-0.9546909332275391,9.428478240966797,-0.0008857207139953971,-0.007820815779268743,-0.01000253949314356
4.637108325958253,-0.9403886795043945,9.448583602905273,-0.000994206755422056,-0.007959958165884018,-0.006815041881054641
4.644390106201172,-0.9449772834777832,9.43959140777588,-0.002874427940696478,-0.008506106212735176,-0.007228752132505179
4.649871826171875,-0.947762131690979,9.438002586364748,-0.0039478358812630185,-0.00967136025428772,-0.006777847651392222
4.6359148025512695,-0.9508305788040161,9.415795326232912,-0.002898184815421701,-0.012720867991447449,-0.0073735034093260765
4.633676052093507,-0.9827970266342163,9.418078422546388,-0.0038092674221843485,-0.012355662882328033,-0.00989565718919039
4.591995716094972,-1.039647102355957,9.42205333709717,-3.440028012846597e-05,-0.011988951824605467,-0.010687451809644699
4.618713855743409,-0.9779541492462158,9.425181388854982,0.002946229185909033,-0.013391074724495413,-0.014204919338226318
4.663124084472656,-0.9599497914314271,9.417423248291016,0.00513417087495327,-0.014031584374606611,-0.014633252285420896
4.660907745361328,-0.9228963851928711,9.430878639221193,0.005938116926699878,-0.016131561249494553,-0.01671087928116322
4.667322635650636,-0.9284740090370179,9.408403396606445,0.0016880936454981565,-0.012992199510335922,-0.015951408073306087
4.645672321319581,-0.934410810470581,9.420026779174805,0.003069604048505426,-0.012375673279166222,-0.01334450487047434
4.660207748413086,-0.968071460723877,9.407114982604982,0.002868404146283865,-0.009825580753386022,-0.013642757199704649
4.6380276679992685,-1.039445757865906,9.417120933532717,0.004032420925796032,-0.009738628752529623,-0.014090269804000854
4.631006240844727,-1.0467010736465456,9.397571563720703,0.010048310272395613,-0.00768112437799573,-0.017307579517364502
4.637394905090332,-0.9150847792625428,9.425432205200195,0.011646791361272337,-0.007877150550484657,-0.020310899242758754
4.669632911682129,-0.923336386680603,9.415592193603516,0.010157617740333082,-0.008811239153146744,-0.01733822375535965
4.654401779174805,-0.9411669373512269,9.435956954956055,0.007346237543970347,-0.007433800026774406,-0.0161858331412077
4.60690975189209,-0.9600695371627808,9.40615463256836,0.006936919409781695,-0.007839919067919256,-0.018042929470539093
4.650629043579102,-0.9297300577163696,9.40568256378174,0.0066009266301989555,-0.009168404154479505,-0.019773270934820175
4.679707050323487,-0.9135583043098451,9.462919235229492,0.007877671159803869,-0.009320475161075592,-0.01905405893921852
4.668812274932862,-0.8942029476165771,9.418557167053224,0.008349160663783552,-0.007245078682899475,-0.015576363541185858
4.631154537200929,-0.9324169158935547,9.430780410766602,0.006616803351789714,-0.0065444144420325765,-0.013866150751709938
4.6486783027648935,-0.9319228529930116,9.446527481079102,0.006293367128819228,-0.0067843301221728325,-0.014221456833183767
4.630817413330078,-0.9579534530639648,9.432909965515138,0.004129224922508002,-0.007660440169274807,-0.016164977103471756
4.609447479248047,-0.9714642167091371,9.444803237915039,0.0058282851241529,-0.009823773056268692,-0.018385669216513637
4.61666202545166,-0.9500376582145692,9.412961959838867,0.007023058831691742,-0.009691346436738968,-0.017274564132094387
4.621090888977051,-1.0085443258285525,9.4120569229126,0.008563474752008917,-0.009760769084095955,-0.02197256498038769
4.587375640869141,-0.9115488529205322,9.4063720703125,0.010428511537611486,-0.010902117937803268,-0.024184901267290115
4.676386833190918,-0.8714774250984193,9.444574356079102,0.002756959525868297,-0.013617388904094696,-0.020753016695380214
4.679816246032715,-0.8624719381332397,9.440202713012695,-0.00031719839898869395,-0.014398159459233284,-0.017683608457446102
4.669942378997804,-0.9107759594917298,9.429882049560547,-0.0024347780272364616,-0.010809992440044882,-0.013405460864305496
4.665909767150879,-0.9345813989639282,9.432966232299805,-0.00446700630709529,-0.010635485872626305,-0.010478736832737923
4.672479152679444,-0.9025995135307313,9.436867713928224,-0.003960222471505404,-0.008509267121553421,-0.00930111948400736
4.607505321502686,-0.9551204442977905,9.45414447784424,-0.003944080788642169,-0.009567019529640676,-0.009686946868896484
4.623582363128663,-0.9302626252174379,9.444693565368654,-0.004138345830142498,-0.012197292409837248,-0.011503679677844048
4.678639888763429,-0.9274199604988099,9.431586265563967,-0.0047208452597260475,-0.014463010244071485,-0.010464963503181936
4.639885902404785,-0.8678333163261415,9.417829513549805,-0.005106603261083365,-0.012257140129804611,-0.009854872711002828
4.645502567291261,-0.8955606818199159,9.459756851196289,-0.009523984044790268,-0.013811443001031876,-0.006747559178620578
4.586873531341554,-0.9068315029144287,9.45535659790039,-0.014384934678673744,-0.018400600180029873,-0.007193736732006073
4.540346145629883,-0.9801381826400757,9.45949459075928,-0.017930224537849426,-0.022595738992094997,-0.009338065050542356
4.598580360412598,-1.0191532373428347,9.424275398254396,-0.016049982979893688,-0.030265700072050095,-0.013512755744159223
4.677926063537598,-0.9435367584228516,9.450991630554201,-0.01623568683862686,-0.0312226340174675,-0.014677003957331182
4.702797412872315,-0.9011353850364686,9.425581932067873,-0.016187930479645733,-0.025860153138637543,-0.010102684609591963
4.710508346557617,-0.9711861610412598,9.40566635131836,-0.012999950908124449,-0.0222022607922554,-0.008965278044342995
4.6582183837890625,-0.9976096153259277,9.406615257263185,-0.011617602780461311,-0.017061477527022365,-0.009189795702695847
4.65163278579712,-0.9817136526107788,9.429079055786133,-0.0087819192558527,-0.01513696275651455,-0.010132581926882269
4.682981967926026,-0.9466997385025024,9.413829803466797,-0.005834326148033142,-0.015683988109231,-0.01190863735973835
4.67138671875,-0.9443386793136597,9.437347412109375,-0.00524134561419487,-0.010058593936264517,-0.011060570366680624
4.65309762954712,-0.9305456876754761,9.462223052978516,-0.0027871916536241774,-0.008472081273794174,-0.01123775076121092
4.641809940338136,-0.9272732734680176,9.431041717529297,-0.004348961170762778,-0.007923386059701444,-0.009493395686149597
4.6346707344055185,-0.936775803565979,9.442085266113281,-0.0049861716106534,-0.010866026394069197,-0.01024264469742775
4.642193794250488,-0.9434407949447632,9.401908874511719,-0.007016204297542572,-0.012067084200680258,-0.006944818887859584
4.640007019042969,-0.9229258298873901,9.459199905395508,-0.011573802679777145,-0.012140844948589804,-0.005802331492304802
4.682181358337402,-0.9373267889022827,9.448279380798342,-0.011116395704448225,-0.012287369929254057,-0.0048583801835775375
4.6911892890930185,-0.9618285298347474,9.439728736877443,-0.013872068375349045,-0.010419850237667562,-0.003883110824972391
4.64993715286255,-1.0351274013519287,9.419005393981935,-0.01099712122231722,-0.01028423011302948,-0.004352535121142864
4.647107601165772,-0.9918456077575684,9.412463188171388,-0.00722056720405817,-0.01238104421645403,-0.007065636105835438
4.643883228302003,-0.976664662361145,9.432814598083498,-0.0063095283694565305,-0.011794225312769415,-0.008333023637533188
4.611713409423828,-1.0218586921691895,9.43936538696289,-0.005100254435092212,-0.013787586241960526,-0.01142136473208666
4.663980484008789,-0.9773604869842529,9.44349479675293,-0.005226914770901203,-0.014618548564612867,-0.011979882605373861
4.645414352416992,-0.9594522714614868,9.452729225158693,-0.0015872865915298462,-0.016185307875275615,-0.012015262618660927
4.669826507568359,-1.0257819890975954,9.397450447082521,0.0004985393024981022,-0.015386680141091347,-0.013181704096496107
4.672907352447511,-0.974607288837433,9.43357563018799,0.004301312845200301,-0.017090320587158203,-0.015458785928785803
4.6902570724487305,-0.9544095396995546,9.424783706665039,0.0031537851318717003,-0.012470132671296598,-0.01683481596410275
4.652216911315918,-0.9319663047790527,9.40596675872803,0.0031220919918268923,-0.010241938754916191,-0.013999999500811102
4.6264448165893555,-0.9793688654899598,9.441050529479982,0.0047706286422908315,-0.011665155179798605,-0.01289222203195095
4.656432628631593,-0.966414213180542,9.436260223388672,0.005004026461392642,-0.010328087955713272,-0.014675897546112539
4.632509231567383,-0.9828613996505737,9.413685798645021,0.005533426068723202,-0.008149334229528906,-0.015612282790243627
4.671658515930176,-0.9469770193099976,9.416877746582031,0.005086280871182681,-0.011516034603118896,-0.015799941495060924
4.658884048461914,-1.0110528469085693,9.406875610351562,0.0070492783561348915,-0.008259722962975502,-0.018312463536858562
4.654933929443359,-0.9567273855209351,9.411837577819826,0.008804085664451124,-0.007998235523700714,-0.018581537529826168
4.664447784423828,-0.8917850255966187,9.44904899597168,0.00974784791469574,-0.009738597087562086,-0.01783723942935467
4.684733867645265,-0.884759783744812,9.422710418701172,0.004385683685541153,-0.008934757672250273,-0.01205490343272686
4.671842575073242,-0.9080488085746766,9.462879180908203,-0.0005273178685456514,-0.009481033310294151,-0.011534531600773336
4.648576259613038,-0.9627031087875366,9.45142936706543,-0.0012229052372276783,-0.011093272827565672,-0.009609663859009743
4.649734020233155,-0.986952543258667,9.426996231079102,-0.0013174895429983737,-0.009145444259047508,-0.008524663746356964
4.6357436180114755,-1.002374053001404,9.400470733642578,0.003194210818037391,-0.009689070284366608,-0.011377640999853613
4.678948879241944,-0.9315797090530396,9.438956260681154,0.0014448120491579177,-0.011024872772395613,-0.01305808499455452
4.678438186645508,-0.9080063700675965,9.436100006103516,0.0021404761355370287,-0.007755232974886894,-0.010277473367750646
4.670300006866456,-0.9504919052124023,9.443191528320312,0.001031521474942565,-0.006456889677792788,-0.008975780569016935
4.6610260009765625,-0.9456559419631958,9.436555862426758,0.002134228590875864,-0.005859945435076953,-0.009302899241447449
4.687372207641602,-0.9444841146469116,9.418868064880373,0.003099888795986772,-0.005574502516537906,-0.0069211507216095924
4.65824031829834,-0.9527675509452821,9.41702651977539,0.0026719151064753532,-0.0035055719781667,-0.0072868699207901955
4.600180625915527,-0.9885147213935853,9.419214248657227,0.004709559958428145,-0.004803534597158432,-0.010688694193959236
4.642553329467773,-1.0002390146255495,9.426884651184084,0.004189562983810902,-0.005311972927302123,-0.010400936007499695
4.654404640197754,-1.0064113140106201,9.423171043395998,0.009337441064417364,-0.003931045066565276,-0.014244893565773964
4.6915297508239755,-0.8755328059196473,9.444581031799318,0.008380867540836334,-0.0032501502428203826,-0.011115463450551033
4.680407047271729,-0.9171473383903505,9.43185043334961,0.0068060928024351606,-0.0008463176200166345,-0.00884690135717392
4.6464810371398935,-0.9565337896347046,9.436438560485842,0.0038673910312354565,0.001583426375873387,-0.008267506957054138
4.631311893463136,-0.955218255519867,9.443896293640138,0.004440700169652701,0.0005694559658877553,-0.007341024465858936
4.640217304229737,-0.9164918065071107,9.439981460571289,0.00485478900372982,-0.002990770852193237,-0.0069615524262189865
4.662478446960449,-0.9433084726333618,9.435297012329102,0.001750024617649615,-0.003912916406989098,-0.006693375296890736
4.6277055740356445,-0.9815188646316528,9.419811248779297,0.002487033139914274,-0.0020111955236643557,-0.005014249123632908
4.628453731536866,-0.937650203704834,9.442571640014648,0.003522847779095173,-0.0002415190974716097,-0.005015372764319182
4.649036884307862,-1.0086753368377686,9.447916030883789,0.0032666253391653304,0.0007732817903161049,-0.006800037343055011
4.626662731170655,-0.962409794330597,9.426076889038086,0.006808880250900985,-8.617585990577936e-06,-0.0089498832821846
4.666231155395508,-0.9500590562820435,9.422489166259766,0.008793815039098265,0.0020873025059700012,-0.009487153030931951
4.710516929626465,-0.9298802614212036,9.381959915161133,0.009860152378678322,0.009944610297679901,-0.005888781975954772
4.664324760437012,-0.9823673963546753,9.410155296325685,0.014737091958522797,0.019771201536059383,-0.0010224678553640842
4.670901298522949,-0.9737032055854798,9.471549034118654,0.02117489464581013,0.024238500744104385,-0.001173477852717042
4.693955898284913,-0.9315039515495301,9.481254577636719,0.02399744838476181,0.026633752509951595,0.00021131365792825818
4.555389404296875,-0.9788078665733339,9.38307285308838,0.026140350848436356,0.03274604678153992,-0.00019616573990788313
4.487328052520753,-1.194430232048035,9.403248786926271,0.03173122555017471,0.026765381917357448,-0.011112814769148827
4.682600021362305,-0.9200394153594971,9.473278045654297,0.036992765963077545,0.022835420444607738,-0.016485495492815975
4.677814483642578,-0.9966936707496644,9.418154716491701,0.03961144760251046,0.027305379509925842,-0.019115401431918148
4.672976493835449,-0.9051278829574585,9.39368534088135,0.0484544225037098,0.041212271898984916,-0.02027316391468048
4.637442588806152,-0.81293922662735,9.475878715515138,0.04807905480265618,0.049405865371227264,-0.01531761232763529
4.671782016754151,-0.9404078125953675,9.453765869140625,0.054207369685173035,0.05681517347693444,-0.012215328402817251
4.675973892211914,-1.1908602714538574,9.359437942504883,0.07979026436805725,0.07197732478380205,-0.02406565099954605
4.671897888183594,-0.9744445085525513,9.428341865539553,0.09844902157783508,0.09031449258327484,-0.031534325331449516
4.741245269775391,-0.6331743597984315,9.4535608291626,0.09340062737464905,0.10335340350866319,-0.01875228062272072
4.4625244140625,-0.8067259788513184,9.376617431640625,0.0818079635500908,0.11911627650260925,-0.007122027687728405
4.3146071434021005,-0.9194660186767578,9.432963371276857,0.0683569982647896,0.11167530715465546,-0.009938134811818601
4.480971336364746,-0.940162181854248,9.467398643493654,0.06491029262542725,0.11919555068016052,-0.01154917757958174
4.44449520111084,-0.8537174463272095,9.496119499206545,0.060006041079759605,0.12336941063404083,-0.015935791656374935
4.541019439697266,-0.8894012570381166,9.620855331420898,0.056617449969053275,0.14052486419677734,-0.012789824977517128
4.439261913299561,-0.8323827981948853,9.513594627380373,0.05921396985650063,0.12590408325195312,-0.016211366280913356
4.4108686447143555,-1.0618826150894167,9.55430316925049,0.0676035061478615,0.10321500152349473,-0.03025999292731285
4.4767866134643555,-0.9775021076202393,9.550906181335451,0.08452919125556946,0.0936206951737404,-0.04698759317398071
4.483503818511964,-0.6739120483398438,9.602368354797365,0.0835542231798172,0.08746372908353807,-0.04927523061633111
4.42542314529419,-0.6498230099678041,9.702775955200195,0.06552302837371826,0.06781352311372758,-0.0425480380654335
4.383877754211426,-0.6727553009986879,9.720916748046875,0.04909830540418625,0.04235949367284775,-0.0381266362965107
4.329553604125977,-0.6624385118484497,9.654206275939943,0.027895953506231308,0.01673517189919949,-0.03171379119157791
4.445605278015137,-0.7745572328567505,9.581570625305178,0.017650494351983074,0.00037471659015864134,-0.028205446898937225
4.437178134918214,-0.7245913743972778,9.628161430358888,0.00924584921449423,-0.007385636679828167,-0.027394967153668407
4.44062376022339,-0.7326014041900635,9.672035217285156,-0.00417000474408269,-0.01910602487623692,-0.021596744656562805
4.411567211151124,-0.8680752515792847,9.592549324035646,-0.009005105122923851,-0.032920744270086295,-0.02183075249195099
4.359784126281738,-0.9694045782089233,9.505776405334474,-0.004370944574475288,-0.04288123920559884,-0.030949560925364498
4.436333179473878,-0.9978200793266297,9.564105987548828,0.0048559759743511685,-0.05581491440534592,-0.042780514806509025
4.477790832519531,-0.8437348008155824,9.532228469848633,0.011637176387012007,-0.06155328825116158,-0.047938913106918335
4.434319019317628,-0.7686505317687988,9.570762634277344,0.015967974439263347,-0.06611768901348114,-0.05043767020106316
4.355600357055664,-1.0334665775299072,9.522475242614748,0.027687678113579754,-0.07088854908943176,-0.06264790892601013
4.528007030487061,-0.8709123134613037,9.551368713378906,0.04328781738877297,-0.07199373841285706,-0.07367566972970964
4.531877517700195,-0.6220967173576356,9.55963134765625,0.032839104533195496,-0.07112948596477509,-0.06372017413377763
4.5587830543518075,-0.7260118722915649,9.505975723266602,0.020546024665236477,-0.06815944612026215,-0.0521606169641018
4.557654857635499,-0.654560923576355,9.518555641174318,0.015633953735232357,-0.06321710348129272,-0.044139616191387177
4.5617828369140625,-0.7084110379219056,9.555400848388672,0.007505439221858978,-0.05887876823544503,-0.03573395311832428
4.610690116882324,-0.7395085096359253,9.476941108703615,0.0074020326137542725,-0.052667468786239624,-0.027683658525347713
4.538791656494141,-0.6679980754852295,9.412473678588867,0.0025393951218575244,-0.039716191589832306,-0.01903481222689152
4.379703521728516,-0.8084483742713929,9.52510738372803,-0.006050363183021545,-0.041774962097406394,-0.017744822427630428
4.52259635925293,-0.8397198915481567,9.551127433776857,-0.010607900097966194,-0.04870519414544106,-0.01740163192152977
4.57370662689209,-0.7299295067787172,9.517723083496094,-0.016199288889765743,-0.0486028902232647,-0.013693936169147491
4.58604621887207,-0.7009642124176025,9.522902488708498,-0.022211309522390366,-0.045601766556501395,-0.007801639847457409
4.632250308990479,-0.8097028732299805,9.461109161376953,-0.022788638249039653,-0.03362037241458893,-0.006503645330667496
4.621017932891847,-0.7378747463226318,9.511656761169435,-0.017218092456460003,-0.020482398569583893,-0.005116761196404696
4.596539974212647,-0.6993793845176698,9.462568283081055,-0.022068412974476818,-0.011185648851096632,-0.0021388716995716095
4.5543107986450195,-0.6291495561599731,9.537781715393068,-0.030981145799160004,-0.006161540281027556,0.007783781737089157
4.504409313201905,-0.5880320072174072,9.494372367858888,-0.04866419732570648,-0.008123065344989302,0.021886615082621578
4.359706401824952,-0.8740207552909852,9.585306167602539,-0.06385624408721924,-0.024298449978232387,0.027452383190393448
4.4349870681762695,-0.9334502816200257,9.527880668640138,-0.06017205491662026,-0.0399145819246769,0.017277918756008148
4.4772686958313,-0.7096239328384399,9.465003967285156,-0.06226982921361923,-0.048973720520734794,0.012388762086629868
4.522034168243409,-0.6068511009216309,9.51046371459961,-0.080140620470047,-0.056413006037473686,0.019665816798806194
4.546314239501953,-0.8693660497665405,9.48440456390381,-0.0875101089477539,-0.055043201893568046,0.02527499571442604
4.5686001777648935,-0.7841300964355469,9.493521690368654,-0.08612076193094255,-0.05336367711424828,0.021632540971040726
4.560429096221925,-0.8216369152069092,9.465601921081545,-0.08817314356565477,-0.051211677491664886,0.026741048321127895
4.5701918601989755,-1.081416368484497,9.452545166015625,-0.08292730897665025,-0.04296036809682846,0.021867822855710983
4.500054836273194,-0.8575183749198915,9.43272113800049,-0.07083632797002794,-0.039233461022377014,0.011681788600981237
4.483983039855957,-0.6520680785179139,9.576757431030273,-0.09051889181137085,-0.052622877061367035,0.018987687304615978
4.472606658935547,-0.9002647995948793,9.461655616760256,-0.1015555039048195,-0.06109432876110077,0.023963289335370067
4.3631134033203125,-0.8156545162200928,9.418456077575685,-0.09982885420322418,-0.07270509749650957,0.013122663833200933
4.377631664276124,-0.7911285161972046,9.584388732910156,-0.09798560291528703,-0.09508225321769714,0.011108667589724066
4.542981147766113,-0.9361037015914917,9.42222309112549,-0.09672926366329193,-0.11527331173419952,0.008622701279819013
4.308279991149902,-0.6712132692337036,9.527125358581545,-0.10230603069067003,-0.14043211936950684,0.005226169247180224
4.173718929290772,-0.658051609992981,9.807607650756836,-0.12075698375701904,-0.19713525474071505,0.012613643892109396
4.1603970527648935,-1.0255088806152344,9.716010093688967,-0.11102337390184404,-0.2677394151687622,0.006424708757549525
3.8815662860870366,-1.174145817756653,9.83573627471924,-0.05974326282739639,-0.3702847957611084,-0.03746533021330834
4.241205215454102,-1.0157787799835205,9.889956474304201,-0.010346634313464165,-0.48983600735664373,-0.0728297233581543
4.122576236724854,-0.9929466247558594,9.81969738006592,0.021497193723917007,-0.6057468056678773,-0.10207619518041612
4.2376160621643075,-0.7247557044029237,9.923604965209961,0.013428465463221075,-0.7352349758148193,-0.1276185065507889
4.26993465423584,-1.044335126876831,9.986847877502443,-0.013635419309139252,-0.8784153461456299,-0.14776657521724704
4.258262634277344,-0.748736083507538,10.0067834854126,-0.0721285566687584,-1.046158790588379,-0.1637607663869858
3.686185836791992,-0.8232646584510804,10.229771614074709,-0.18791308999061584,-1.2601600885391238,-0.14906381070613864
3.5926496982574467,-1.2511003017425537,9.94410037994385,-0.190869078040123,-1.5466971397399902,-0.11209525913000108
3.686919450759888,-0.8224899172782899,9.961329460144045,-0.1623100191354752,-1.8124483823776247,-0.1161414235830307
4.093391418457031,-0.44501644372940063,10.466669082641602,-0.15944941341876986,-2.075735569000244,-0.13998602330684665
4.401345729827882,-1.0265064239501953,10.364502906799318,-0.1206502988934517,-2.3332138061523438,-0.1721818447113037
4.489490509033203,-1.2320353984832764,10.199338912963867,-0.07202748209238054,-2.581861972808838,-0.23205967247486117
4.974001884460449,-1.4104087352752686,10.042661666870117,-0.013068638741970062,-2.8634676933288574,-0.2888064086437226
5.575758934020996,-1.73681640625,10.014001846313477,-0.0011664561461657286,-3.035157918930054,-0.3422129154205322
5.067343711853027,-1.8606157302856445,9.15709114074707,0.046133071184158325,-3.2717173099517827,-0.4230866730213166
4.943657875061035,-1.9341239929199219,8.749351501464844,0.30538335442543035,-3.570218563079834,-0.5657219290733339
5.378014087677003,-2.31550145149231,8.948247909545898,0.5860705971717836,-4.089765071868897,-0.6996967792510986
7.110097885131836,-2.0698838233947754,9.632615089416506,0.7241536974906922,-4.480650901794434,-0.7655023932456971
8.93411159515381,-1.82452666759491,10.508501052856445,0.7343628406524658,-4.650914669036866,-0.7650973200798036
10.680434226989748,-1.4683104753494265,11.22719478607178,0.6407173275947572,-4.669586181640625,-0.7109751105308534
11.540712356567383,-1.9984853267669678,11.419957160949709,0.6959548592567445,-4.6418213844299325,-0.7782838344573975
14.995233535766602,-2.148916244506836,12.345093727111818,0.8265436291694642,-4.50711727142334,-0.8378610014915467
18.665323257446293,-1.128549933433533,12.886852264404297,0.9374154806137085,-4.140982151031495,-0.9157308936119081
19.350564956665043,-3.403964042663574,9.283172607421875,1.0350522994995117,-3.7544038295745854,-1.062067985534668
20.61825752258301,-4.4863128662109375,5.403105735778809,1.4467540979385378,-3.8423740863800053,-1.3688013553619385
23.132108688354496,-3.056008815765381,2.1973953247070312,2.149154424667359,-4.000276565551758,-1.7252997159957888
27.79092025756836,-1.2904057502746582,4.445801734924316,2.645403623580933,-3.9018049240112305,-1.7063159942626953
26.34427261352539,3.0107429027557377,0.3805135488510132,2.763013601303101,-3.6676130294799805,-1.62073290348053
36.70751190185547,4.771793365478516,8.456839561462404,1.5973008871078493,-3.4626352787017827,-1.3625566959381104
29.1731128692627,2.2352507114410405,10.334334373474123,0.6395518183708192,-2.265186309814453,-1.0842524766922
23.820348739624027,2.4319899082183842,7.806526184082031,-0.2691745162010193,-1.9534813165664675,-0.784175217151642
21.54340362548828,1.6052831411361697,7.657620906829835,-1.0354523658752441,-1.7849134206771853,-0.5929533243179321
18.044662475585938,0.19233909249305725,6.645292758941651,-1.6068547964096072,-1.697968363761902,-0.4433133006095886
15.487798690795898,-2.0498449802398686,6.349497318267823,-1.6998121738433838,-1.713942885398865,-0.4727780222892761
14.109772682189943,-4.128203868865968,7.145651817321777,-1.337296962738037,-1.7562085390090945,-0.5806145071983339
13.931759834289553,-6.023527145385742,8.763341903686523,-0.6493238210678101,-1.5799432992935183,-0.650364875793457
12.544289588928224,-6.526907920837402,9.863259315490724,0.2487084120512009,-1.1891399621963503,-0.6373142004013062
10.601981163024904,-4.087749958038331,10.891245841979982,0.9369441270828247,-0.7450539469718934,-0.5233167409896851
7.982363224029542,-0.9446865320205688,10.895151138305664,1.0569603443145752,-0.2758001387119294,-0.2889977395534516
4.898414134979249,0.88988196849823,9.738705635070803,0.711776852607727,0.1693966239690781,-0.06030174344778061
2.30012059211731,1.053015947341919,8.32700824737549,0.22447457909584045,0.4896264672279358,0.07552676647901536
1.6459603309631348,0.4529660940170288,8.297919273376467,-0.16064608097076416,0.726907789707184,0.1777697503566742
1.1669353246688845,-0.2336687445640564,7.815635681152344,-0.2973857522010803,1.0468865633010866,0.2753982245922089
-0.28328824043273926,-0.16971850395202637,7.194523811340332,-0.19619467854499817,1.3626612424850466,0.2779862880706787
-0.1317172348499298,-0.057076334953308105,7.674979209899902,-0.13162672519683838,1.6906297206878662,0.26339218020439154
-0.49505436420440674,-0.3348550498485566,7.409119129180909,-0.040886394679546356,2.1188428401947026,0.2723209261894226
-2.749849081039429,-0.34885525703430176,5.8128557205200195,0.14587119221687317,2.471817255020142,0.22400094568729403
-4.4127960205078125,0.508691668510437,4.430489540100098,0.2031659930944443,2.6471657752990723,0.18735261261463168
-5.109153270721436,1.0721473693847656,3.850291013717652,0.06340193003416063,2.780678033828736,0.19090089201927185
-3.353842258453369,0.5497328042984009,5.078699111938477,-0.24151365458965304,3.038968563079834,0.27234497666358953
-3.50198245048523,-0.152371421456337,4.165574073791504,-0.4074608981609345,3.473773956298828,0.3872750997543335
-6.247126579284668,-0.02136896550655365,1.1789489984512331,-0.42904001474380493,3.691935777664185,0.46347326040267944
-7.578896999359132,0.7281883358955384,-0.9617372155189515,-0.48442050814628607,3.5985724925994877,0.5178474187850952
-7.401955127716065,1.199256777763367,-1.3516194820404053,-0.611343801021576,3.4096121788024902,0.5533226132392884
-4.660738945007324,0.771910846233368,1.2988327741622927,-0.8005495667457582,3.3306455612182617,0.632394552230835
-2.625926733016968,-0.14463722705841064,2.676633358001709,-0.8850499391555786,3.6012785434722905,0.7818721532821655
-3.2905018329620366,-0.32475617527961737,1.118017077445984,-0.7255200743675233,3.8359239101409917,0.8758783340454102
-3.835333108901978,0.7786446809768677,-0.031234759837388992,-0.6324236392974854,3.8067271709442143,0.9894845485687256
-2.7588036060333256,1.5200550556182861,0.18219177424907687,-0.701058030128479,3.703558683395386,1.0910614728927615
-1.4208793640136719,2.2647838592529297,1.0472656488418581,-0.7813794016838075,3.646975517272949,1.141311049461365
-0.36209577322006226,2.810406923294068,1.1688514947891238,-0.8267550468444824,3.625488758087158,1.0906375646591189
1.480574369430542,3.0743212699890137,1.930084228515625,-0.8103551864624023,3.554562330245972,0.8949517011642456
4.028568267822266,3.638577461242676,3.59986424446106,-0.786452353000641,3.5504727363586426,0.6384559869766235
5.894257545471191,4.3212037086486825,4.317624092102051,-0.777691423892975,3.618990421295166,0.3338972628116608
8.449108123779297,4.097278594970703,4.177288532257081,-0.7913746237754823,3.643929243087769,0.013131178915500641
10.088085174560547,2.7583141326904297,3.021376132965088,-0.6625809073448182,3.493335247039795,-0.27015271782875067
11.370877265930178,2.156337261199951,2.3717200756073002,-0.48052501678466797,3.130027532577515,-0.4241646230220795
13.094271659851076,1.3162511587142947,2.6616134643554688,-0.3442496657371521,2.6606099605560307,-0.40216153860092163
14.612132072448732,0.8818035125732422,3.3061485290527344,-0.20267683267593384,2.2393417358398438,-0.2171634286642075
16.01875495910645,0.35766360163688665,3.671705007553101,-0.08215824514627458,1.839219570159912,0.06230496242642403
16.177450180053714,0.15995144844055176,3.6072223186492924,0.06789818406105042,1.4320186376571657,0.4006055891513825
15.229408264160156,0.5180870294570923,3.4547922611236577,0.22464732825756076,1.0311336517333984,0.6822028756141664
14.88592529296875,1.1873188018798828,3.8579576015472417,0.29625186324119573,0.6665737032890321,0.8767119646072388
15.430996894836428,1.2188339233398438,4.883449554443359,0.30459004640579224,0.37538805603981024,1.010977029800415
14.712508201599123,1.2024857997894287,5.110860824584961,0.34619435667991644,0.21684667468070984,1.060971736907959
11.582583427429201,2.028258562088013,2.812626838684082,0.4084853827953339,0.09195983409881592,1.009409308433533
9.240550041198732,14.12849235534668,-8.35532855987549,-0.1276802867650986,-0.8319837450981141,0.32287245988845825
10.506669998168945,5.632118225097656,5.530377864837647,-0.004830947145819664,-0.963105618953705,-0.5761803388595581
23.443729400634766,3.5635581016540527,8.876856803894045,-0.5197200179100038,-1.090824842453003,-0.0814623236656189
50.146942138671875,13.916528701782227,41.467124938964844,-3.580880641937256,1.3344277143478396,1.6300129890441895
10.895754814147951,-2.6451647281646733,10.002947807312013,-2.041881561279297,3.0919270515441895,1.3785208463668825
2.737832546234131,-6.017734527587891,18.18662834167481,-0.7891046404838563,2.1340465545654297,1.244510054588318
-14.138465881347656,-17.130203247070312,10.06224250793457,-0.08035203069448472,0.928146243095398,0.6894692182540894
-4.038573741912843,-1.682643175125122,10.88935947418213,0.3546794652938843,-0.9211172461509706,-0.3853378891944885
6.267280101776124,-6.416561126708984,12.548657417297365,0.5861995816230775,-0.9727215170860292,-0.9153615236282349
9.500050544738771,1.0762916803359988,6.817357063293457,0.2727441489696503,-0.7409896850585938,-0.45093742012977606
10.599407196044922,7.362735271453858,7.581536769866944,0.020664609968662262,-0.12157521396875383,-0.17359702289104464
8.150218009948732,0.8282029032707215,8.424965858459474,-0.3321341872215271,0.46154496073722845,0.19445154070854187
3.942622184753418,-2.937814235687256,9.054606437683107,-0.36223861575126654,0.591131627559662,0.22324252128601074
3.23019289970398,-3.850141286849976,9.732068061828615,-0.04114488884806634,0.32970643043518066,0.06887660175561906
4.183013439178468,-1.3314955234527588,9.768491744995117,0.03547437861561776,0.1693909764289856,-0.0554438978433609
4.713177204132081,0.24102693796157837,9.775391578674318,-0.029401229694485668,0.08604499697685242,-0.02609379775822163
5.062987804412843,-0.1749158948659897,9.578171730041506,-0.13134756684303284,0.07481436431407928,0.053116161376237876
4.609707832336426,-1.6227101087570193,9.38199234008789,-0.15130554139614108,0.058749496936798096,0.0795794501900673
4.157870292663574,-1.9940975904464724,9.470962524414062,-0.08658743649721147,-0.029513917863368988,0.01936543732881546
4.8553619384765625,-1.1769561767578125,9.470051765441896,-0.02989446371793747,-0.09006430953741075,-0.030828502029180527
5.25282907485962,-0.5407091379165649,9.47245979309082,-0.04437790811061859,-0.07926130294799805,-0.01105067413300276
5.2184157371521005,-0.8453140258789062,9.318377494812013,-0.05659478530287743,-0.03843893110752106,0.0248671155422926
4.981377601623535,-1.5091874599456787,9.229476928710938,-0.027702368795871735,-0.011018010787665846,0.017199167981743816
4.744470596313477,-1.3639339208602907,9.25965213775635,0.011555438861250877,-0.012407801114022734,0.0014964682050049305
4.4636688232421875,-0.9070690274238588,9.665455818176271,-0.002130233682692051,-0.058834441006183624,-0.007354173343628646
4.756068229675293,-0.9120540618896484,9.567490577697756,-0.03432827815413476,-0.10749578475952148,0.004461141768842936
4.766661643981934,-0.9026020169258119,9.293332099914553,-0.051557045429945,-0.13321444392204285,0.005918523296713829
4.779829025268555,-1.0417782068252566,9.525123596191406,-0.051299061626195915,-0.1601061224937439,0.0005892383051104845
4.738609313964844,-1.2112730741500857,9.27114486694336,-0.04230664670467377,-0.18773892521858215,-0.012657131068408491
4.567580699920655,-1.2656879425048828,9.353682518005373,-0.018586046993732452,-0.21477900445461276,-0.042512908577919006
4.626420497894288,-1.193470120429993,9.535550117492678,-0.00727399718016386,-0.25898042321205145,-0.07272883504629137
4.8206987380981445,-1.408692240715027,9.325938224792482,0.003939547576010227,-0.2955497801303864,-0.09837132692337036
5.071424961090089,-0.6647298336029053,9.33315658569336,0.0010015859734266996,-0.3351939916610718,-0.0913740321993828
5.383238315582276,-0.7134917974472046,9.154126167297365,-0.015773750841617584,-0.31805929541587835,-0.07449740171432495
5.263614654541016,-1.0069985389709473,8.939399719238281,-0.015071392059326172,-0.2801694571971894,-0.05729536339640618
5.162003040313722,-0.9433238506317139,8.994969367980959,-0.017315775156021118,-0.24204500019550326,-0.051745183765888214
5.155668735504151,-1.0879033803939822,8.963452339172365,-0.015642600134015087,-0.21678061783313754,-0.034290947020053864
5.031900405883789,-1.004683017730713,9.216789245605469,-0.019878551363945007,-0.22367788851261142,-0.019039086997509003
5.125677108764648,-1.232454776763916,8.987707138061523,-0.01559058204293251,-0.21142394840717318,-0.02838394604623318
5.150116443634034,-1.4174754619598389,9.012621879577638,0.027227589860558513,-0.1922452747821808,-0.052942600101232536
5.200427532196046,-1.3839124441146853,9.015129089355469,0.0581473782658577,-0.17635583877563477,-0.07193326205015184
5.006730556488038,-1.3921946287155154,8.715697288513185,0.07580257952213287,-0.159609392285347,-0.09315858781337738
4.918004512786866,-0.9320992827415467,9.143603324890138,0.07702026516199113,-0.1855258047580719,-0.11170358955860138
4.830531120300293,-0.8899911642074585,9.45045280456543,0.04694778099656106,-0.22387436032295227,-0.12172455340623857
4.651249885559082,-1.376878619194031,9.179651260375977,0.05856872349977493,-0.28882163763046265,-0.14470238983631137
4.854514122009277,-1.0977026224136355,9.251482963562013,0.08257676661014557,-0.37658789753913885,-0.17699524760246277
5.1790833473205575,-1.1007583141326904,8.924286842346193,0.09755811840295793,-0.4195443391799927,-0.1902582347393036
5.437494754791261,-0.9144368171691895,8.954627037048342,0.08852074295282365,-0.45201611518859863,-0.18707998096942904
5.316747665405273,-0.3299579620361328,9.203039169311523,0.049358043819665916,-0.45884290337562567,-0.18242499232292175
4.772415637969972,-1.3961424827575684,9.303877830505373,0.055929038673639304,-0.44292551279067993,-0.1947516351938248
4.996927738189698,-0.44844067096710205,9.28405284881592,0.07484513521194458,-0.5404673218727113,-0.1600245386362076
5.612971305847168,-0.5404495000839233,9.186279296875,0.0806446373462677,-0.5783088803291322,-0.12331204116344452
5.257775783538819,-1.053882360458374,8.875119209289553,0.08951870352029802,-0.6037618517875672,-0.1256559193134308
5.219913005828858,-0.8830069899559022,9.018235206604006,0.09051050990819932,-0.6648358106613159,-0.14971049129962924
5.346555709838867,-0.6202070116996766,9.150563240051271,0.07260549813508989,-0.7302114963531494,-0.13513654470443726
5.2744717597961435,-0.5364938378334047,9.125659942626953,0.03743771836161614,-0.801756739616394,-0.1194223240017891
5.133615970611573,-0.8038259148597718,9.230580329895021,0.03271356225013733,-0.8935143947601318,-0.11792615801095964
5.191777229309082,-1.060633659362793,9.12500858306885,0.05096329748630524,-1.001852631568909,-0.1414216160774231
5.46136236190796,-1.301117181777954,8.70524311065674,0.09286911040544511,-1.0911619663238525,-0.1708272099494934
5.680933475494386,-1.1018075942993164,8.490104675292969,0.1165740266442299,-1.1560821533203125,-0.21276639401912692
5.825372219085694,-0.7444601058959961,8.50118637084961,0.11254795640707017,-1.2057293653488161,-0.2287437915802002
5.976249217987061,-0.926782488822937,8.702874183654787,0.11545790731906891,-1.2477408647537234,-0.2526143789291382
6.104121685028077,-1.4094302654266357,8.234683990478516,0.1617877930402756,-1.2691919803619385,-0.28890305757522583
6.3451504707336435,-0.861659049987793,8.42985248565674,0.18639877438545227,-1.316733002662659,-0.33521872758865356
6.160791873931886,-0.8730440735816957,8.607089042663576,0.20849342644214633,-1.3634895086288454,-0.3417642116546631
6.110317230224609,-0.7516847848892212,8.649159431457521,0.2364425212144852,-1.4644861221313477,-0.35721477866172796
6.11116886138916,-0.25042349100112915,9.110871315002443,0.20214155316352844,-1.5931924581527712,-0.360768347978592
6.036455154418945,-0.20183590054512024,9.342295646667482,0.1528548300266266,-1.7569440603256228,-0.34729963541030884
5.676193714141847,-0.6442260146141053,8.99275302886963,0.15541774034500122,-1.979360580444336,-0.37368872761726385
6.035562992095948,-0.4608127176761628,8.789676666259766,0.15374743938446045,-2.2557466030120854,-0.3941718339920044
5.605594158172608,-0.8443337678909302,8.240023612976076,0.201461523771286,-2.601300477981568,-0.43678620457649237
5.889773368835449,-0.30053019523620605,8.375589370727539,0.3045989573001862,-3.0819177627563477,-0.5086154341697694
6.5040283203125,-0.32490038871765137,7.862240791320801,0.4300617873668671,-3.5579063892364506,-0.5473595857620239
6.881628036499023,0.32323765754699707,7.824455261230469,0.5250241160392762,-4.0427446365356445,-0.5159743428230287
7.6438446044921875,0.31017476320266724,7.681841373443604,0.6137021183967591,-4.498073577880859,-0.4993419647216797
9.217343330383303,0.0868743509054184,8.071788787841797,0.7278934717178345,-4.8258023262023935,-0.5236761569976807
10.400623321533203,0.4157295227050781,8.49532985687256,0.8364582061767578,-4.929078102111816,-0.47305133938789373
13.356834411621094,-0.13857851922512057,9.478430747985842,0.6031131744384766,-4.773070812225343,-0.35198062658309937
15.282149314880373,0.01406070590019226,8.29482650756836,0.1250123381614685,-4.308303356170655,-0.13647599518299106
19.38166999816895,0.8637129068374634,7.327454090118409,-0.3111394345760346,-3.763937473297119,0.04635119810700417
21.53123283386231,1.3643811941146853,4.256270408630371,-0.709160566329956,-3.1485366821289062,0.33128353953361517
22.38628196716309,4.709047794342042,-0.17027154564857483,-1.8657803535461426,-3.2300117015838627,0.4529104232788086
27.30831527709961,0.14393495023250583,4.41907548904419,-2.248973846435547,-3.078809499740601,-0.1980775743722916
22.889427185058594,-6.296682834625245,5.19236707687378,-1.2380657196044922,-1.753585457801819,-0.8036482334136963
16.40060806274414,-5.300723552703858,-4.349530696868897,0.20994020998477939,-1.780314087867737,-1.157059669494629
15.409364700317383,-3.610055923461914,-7.495658874511719,1.3371086120605469,-2.8756506443023686,-1.5204126834869385
20.515844345092777,-1.4436570405960085,-3.9338369369506836,1.8345425128936768,-4.133477687835694,-1.8413196802139284
23.842924118041996,-0.1952165961265564,3.9733145236969,2.050314426422119,-4.314843654632569,-2.1714468002319336
20.778114318847656,1.262216329574585,3.6663408279418945,1.7883602380752566,-4.4812684059143075,-2.267608642578125
21.227073669433594,2.392486095428467,5.302799224853516,1.3919678926467898,-4.567440986633301,-2.4962632656097417
19.372545242309574,2.6818497180938725,6.529775619506836,0.7916314005851747,-4.512997627258301,-2.720996856689453
18.422176361083984,2.416927576065064,7.508357524871827,0.12485588341951372,-4.404157638549805,-2.917061567306519
17.110998153686527,1.0954095125198366,8.26633930206299,-0.4220241904258728,-4.142563819885254,-3.109397649765015
15.339291572570803,-0.8019809722900391,9.190657615661623,-0.7878088355064393,-3.752452850341797,-3.2371289730072026
13.789490699768068,-3.628316879272461,9.95817279815674,-0.8808786869049072,-3.269903898239136,-3.2807571887969975
11.677248001098633,-7.016756057739258,10.496968269348146,-0.48696446418762207,-2.7309005260467534,-3.2383551597595215
9.021419525146484,-8.575115203857422,11.005415916442873,0.3009507656097412,-2.183509349822998,-3.1406981945037846
7.435687541961671,-7.951021671295167,11.880914688110352,1.0464777946472168,-1.638928532600403,-2.913163661956787
6.451891899108887,-6.193428039550781,13.346621513366701,1.4670631885528564,-0.9575143456459047,-2.4963972568511967
5.240996837615968,-3.7634267807006836,14.300199508666992,1.4434690475463867,-0.09305498749017717,-1.9542007446289062
3.6848154067993164,-1.5538556575775146,14.583348274230959,0.9258411526679994,0.8528559803962709,-1.3323907852172852
2.0251784324645996,-0.9095844030380249,14.24238395690918,0.07020845264196397,1.7552580833435059,-0.6725986599922181
-0.17782391607761386,-2.045019388198853,12.278024673461914,-0.7175008654594422,2.470028877258301,-0.11652493476867676
-2.6645236015319824,-3.651217460632324,9.371648788452148,-1.0563660860061648,2.8938732147216797,0.24859024584293368
-4.388205528259277,-4.503019809722901,7.052731513977051,-0.9548666477203369,3.014346122741699,0.4897830784320832
-4.5026211738586435,-4.241350173950195,6.0267348289489755,-0.6503167748451234,2.9651365280151367,0.7258122563362123
-3.947247743606568,-3.533750057220459,5.97989559173584,-0.3140627145767212,2.9177711009979252,0.8940178751945497
-3.4907486438751225,-1.7945159673690798,6.485258102416992,-0.1363043934106827,2.9006447792053223,1.0176416635513308
-3.0801968574523926,-0.05271525681018829,7.167302131652832,-0.25272455811500555,2.963673830032349,1.1164851188659668
-1.7566168308258057,1.1818132400512695,8.50457286834717,-0.6483930945396424,3.137192726135254,1.186390280723572
-0.08041801303625108,1.524956226348877,9.661945343017578,-1.1842308044433594,3.538068532943726,1.2384318113327029
0.20598936080932617,1.0452172756195068,9.49789333343506,-1.6195135116577148,4.027656078338624,1.2456398010253906
0.020621418952941895,0.8433534502983094,8.59932041168213,-1.8870347738265993,4.3796353340148935,1.2223260402679443
0.09239558130502702,0.5828450918197632,7.575362205505371,-2.021194696426392,4.595865249633789,1.2209628820419314
-0.009982094168663025,0.670691967010498,6.843821048736573,-2.044764518737793,4.688562870025636,1.2096265554428103
0.2868778705596924,1.127028226852417,6.609360694885254,-2.0417752265930176,4.685266971588136,1.199622392654419
1.0091327428817751,1.6186094284057617,7.0036330223083505,-2.0880184173583984,4.625296592712402,1.1823071241378786
2.2798380851745605,1.9289196729660036,7.920459270477296,-2.180766344070435,4.592037200927734,1.161715388298035
3.8719832897186284,2.5817885398864746,9.148936271667482,-2.2965652942657475,4.635303497314453,1.1339845657348633
5.649147510528565,3.6520652770996094,10.242956161499023,-2.4835178852081303,4.778604507446289,1.0735510587692263
7.199681282043457,4.280588626861573,10.809329986572266,-2.7414381504058842,4.973369121551515,0.9347976446151733
8.066686630249023,4.186828136444093,10.815610885620117,-2.9539191722869877,5.142285346984863,0.7317838072776796
8.545221328735352,5.090506553649902,10.743140220642092,-3.0928137302398686,5.203895568847656,0.4886181354522705
9.690738677978516,6.331915855407715,10.617446899414062,-3.330117464065552,5.162498474121094,0.26161631941795355
10.797987937927248,6.4369263648986825,10.387047767639162,-3.6357400417327885,5.042998790740968,0.034325532615184784
11.777930259704592,5.52378797531128,10.676567077636719,-3.7914037704467773,4.856310367584229,-0.20242998003959656
12.949264526367188,4.652230262756348,11.560638427734375,-3.7769591808319096,4.6667070388793945,-0.42089956998825073
13.619387626647951,4.619778633117676,12.24418830871582,-3.7174255847930913,4.458036422729492,-0.5801302790641786
13.270573616027834,6.165643692016602,12.034019470214844,-3.775845527648926,4.1767120361328125,-0.6714105010032655
13.026516914367678,7.126450538635254,11.178077697753906,-4.027664661407472,3.7575459480285645,-0.7710010409355165
14.244014739990234,5.92093563079834,10.266677856445312,-4.112335205078125,3.232031106948853,-0.9478206038475038
16.212045669555668,6.295392990112305,10.564229965209961,-3.8488419055938725,2.6846885681152344,-1.1224356889724734
17.507841110229496,8.9052209854126,11.237481117248537,-3.6017291545867924,2.3139908313751225,-1.2307624816894531
18.60336685180664,12.559720039367678,12.015725135803224,-3.6350412368774414,2.150367975234986,-1.248443603515625
19.250812530517578,14.824331283569336,11.93406391143799,-4.003431797027589,2.2197728157043457,-1.1656920909881592
18.004318237304688,13.859222412109375,9.741557121276857,-4.258544445037843,2.424093723297119,-1.013794541358948
15.376497268676758,11.205367088317873,6.6676697731018075,-3.9823365211486816,2.4463582038879395,-0.8658754229545594
13.078593254089357,7.5490922927856445,3.550790071487427,-3.1170334815979004,2.1833922863006596,-0.8662856817245483
11.867401123046875,6.85736894607544,1.185157060623169,-2.0242772102355957,1.708344340324402,-1.006852984428406
12.579173088073732,9.470264434814453,0.28475719690322876,-1.5214178562164307,1.1958419084548952,-1.0726757049560547
13.565607070922852,10.371175765991211,-0.23414835333824158,-1.71397602558136,0.8267657160758973,-1.0226175785064697
13.169299125671388,-4.111340999603272,-2.526172637939453,-0.7948303818702699,0.33665740489959717,-1.060303330421448
12.713438034057617,3.81533694267273,-9.193498611450195,2.108702898025513,-0.7026176452636719,-2.013607978820801
13.128916740417482,16.315109252929688,0.7071951031684877,2.821992158889771,-1.450237512588501,-2.575384855270386
11.082402229309084,2.357088565826416,18.351083755493168,2.6258480548858647,-0.6740683913230897,-2.2037534713745117
19.665775299072266,-14.988019943237305,22.03466033935547,1.8713990449905398,-0.49846601486206055,-1.5743080377578738
5.182117938995362,-16.606327056884766,10.525426864624023,1.6960018873214724,-0.04098271578550339,-1.1252412796020508
3.4093506336212163,-7.240735054016113,5.915369510650636,1.5901846885681152,-0.7147576212882997,-0.8482725620269775
7.167910099029542,8.13368320465088,12.292803764343263,1.6167409420013428,-1.15199875831604,-0.3459704220294953
12.242041587829592,16.03106498718262,16.866388320922855,0.7672776579856874,-0.48993611335754395,-0.24269001185894015
2.6641399860382085,6.848683834075929,10.23335933685303,0.31643617153167725,-0.1355135887861252,-0.33103510737419134
4.461700439453125,-0.7061599493026733,10.852753639221193,0.2620772123336792,-0.3372832834720612,-0.2822542190551758
5.315483093261719,-0.3121493458747864,10.071038246154787,0.35352039337158203,-0.3247731924057007,-0.1786374002695084
5.1330838203430185,2.7788770198822026,10.446656227111818,0.20125205814838412,-0.21984508633613586,-0.09221815317869188
4.367961883544922,-0.8072572946548462,9.71729373931885,0.017822857946157455,-0.14699687063694003,-0.12260136753320695
4.115050792694093,-3.0788948535919194,9.582612037658693,0.04096924141049386,-0.22260576486587524,-0.12738375365734103
5.387107849121094,-1.1722488403320312,10.120824813842773,0.13384002447128296,-0.23129034042358398,-0.14577512443065646
5.134463787078858,-1.3978437185287478,9.650265693664553,0.1468588560819626,-0.16845452785491943,-0.20480446517467502
5.415979385375977,-1.3787504434585574,9.49610710144043,0.15296441316604614,-0.0981607809662819,-0.19382844865322116
5.368556499481202,-0.9752476811408998,9.635592460632326,0.1308734565973282,-0.03067570924758911,-0.14810125529766086
4.816185474395753,-1.1785175800323486,9.642719268798828,0.1235950067639351,-0.01685798726975918,-0.1282297968864441
4.682143688201905,-1.1521903276443484,9.590757369995117,0.1392904967069626,-0.020326245576143265,-0.13000588119030002
4.601991653442383,-0.7694262266159058,9.729246139526367,0.1174997091293335,-0.034985598176717765,-0.1180180534720421
4.718737602233887,-0.3370387554168701,9.780729293823242,0.09790582209825517,-0.05654875934123993,-0.10093659907579423
4.614854335784913,-0.36420297622680664,9.730554580688477,0.07113556563854218,-0.07376573979854584,-0.08874472230672838
4.625822067260742,-0.4120027124881745,9.73158073425293,0.039917781949043274,-0.09661760181188585,-0.0589274987578392
4.536149978637695,-0.5335971117019653,9.685680389404297,0.012368553318083288,-0.10735532641410828,-0.04732561111450195
4.507765769958496,-1.1401221752166748,9.472254753112795,0.021120386198163036,-0.1182345449924469,-0.059465300291776664
4.616450786590577,-1.3649771213531494,9.334113121032717,0.02865634858608246,-0.1302129328250885,-0.06772767752408983
4.6562819480896005,-1.1082847118377686,9.387798309326172,0.01928294450044632,-0.13671062886714938,-0.06764404475688934
4.718164920806886,-1.0361075401306152,9.341262817382812,0.0052772387862205505,-0.12924765050411227,-0.057993892580270774
4.373819351196289,-1.3165370225906374,9.387770652770998,0.004489766899496318,-0.13969764113426208,-0.06568896025419237
4.616571903228761,-1.1525065898895264,9.41725254058838,0.01543041504919529,-0.16251233220100403,-0.08502336591482164
4.774334430694581,-0.8093002438545228,9.30859375,0.020040635019540787,-0.1592269688844681,-0.0918334573507309
4.693941593170167,-0.6767221093177797,9.327935218811037,0.0036361287347972393,-0.15357287228107455,-0.0883392319083214
4.68160104751587,-0.6328942179679872,9.395633697509766,-0.03893702849745751,-0.15783968567848206,-0.06057988479733468
4.688876628875733,-0.817330002784729,9.504046440124513,-0.03327197209000588,-0.16046299040317538,-0.06013220548629761
4.628676414489746,-1.1419713497161865,9.409191131591797,-0.021022390574216843,-0.1795262843370438,-0.06907561421394348
4.691316604614258,-1.0499751567840576,9.286551475524904,0.0020910666789859538,-0.18887794017791748,-0.08583307266235352
4.85582160949707,-0.6722229719161987,9.47690200805664,-0.005683331750333309,-0.19214008748531344,-0.08114215731620789
4.6915483474731445,-0.7368639707565308,9.494557380676271,-0.03495836630463601,-0.1978382617235184,-0.061158187687397
4.749985694885254,-0.9026882648468018,9.42666530609131,-0.038976524025201804,-0.217097669839859,-0.06082208827137948
4.770927906036378,-1.0232195854187012,9.415468215942383,-0.01795458048582077,-0.2231843322515488,-0.0842358246445656
4.823571681976319,-0.7855101227760316,9.383889198303224,-0.01693188026547432,-0.2372432500123978,-0.10118161141872406
4.956406116485597,-0.9092831015586854,9.329643249511719,-0.029494598507881165,-0.2451627254486084,-0.10567920655012132
4.865833282470703,-0.7553865313529969,9.389933586120607,-0.042734954506158836,-0.2639709711074829,-0.1025206968188286
5.007446765899659,-0.5070770382881166,9.272260665893555,-0.06912213563919067,-0.28348752856254583,-0.07620216161012651
4.735369205474854,-0.8160655498504639,9.349415779113771,-0.08910437673330308,-0.2862812280654907,-0.058415878564119346
4.183768749237061,-1.3471087217330935,9.643216133117678,-0.06830436736345293,-0.3502702414989472,-0.10587155818939209
4.564896106719972,-1.3460421562194824,9.470749855041506,-0.038299661129713065,-0.45155006647109985,-0.16594515740871432
4.892425060272218,-0.9142208695411683,9.37846088409424,-0.020021159201860428,-0.5159260630607606,-0.19642873108386996
5.223343849182129,-0.6393893361091615,9.295672416687013,-0.04453664645552636,-0.5604439973831177,-0.1734997481107712
5.247767448425293,-0.6301589012145996,9.219480514526367,-0.08747024834156036,-0.582710862159729,-0.14607073366642
5.086019515991211,-0.6970742344856263,9.192301750183107,-0.13745111227035522,-0.6118493676185609,-0.13469573855400085
5.370392799377441,-0.19318363070487976,9.26901149749756,-0.18343983590602878,-0.6447829008102417,-0.09152433276176453
5.755615711212159,0.3259480297565461,9.176953315734865,-0.28850656747817993,-0.6580037474632264,0.01054353080689907
5.948719024658203,0.4331856369972229,9.079084396362305,-0.45235908031463623,-0.6304247379302979,0.137117937207222
4.889926910400391,-0.49623769521713257,9.227617263793945,-0.5088478326797485,-0.6420597434043885,0.20628368854522705
4.994812488555909,-0.6922398805618286,9.297584533691406,-0.5352131128311157,-0.7689197659492494,0.24200965464115146
4.026139736175538,-1.7722560167312624,9.375970840454102,-0.464539110660553,-0.9124811291694642,0.1828005313873291
4.287955760955811,-1.2688843011856081,9.616087913513185,-0.43831682205200195,-1.1451935768127441,0.10429901629686357
4.292849540710449,-1.3961172103881836,9.484791755676271,-0.42729097604751587,-1.3530219793319704,0.030797116458415985
4.402730941772461,-1.3647749423980713,9.499470710754396,-0.45484328269958496,-1.5857614278793337,-0.03601814433932305
4.518810272216797,-1.2956058979034424,9.481081008911133,-0.45604199171066284,-1.8328684568405154,-0.10691368579864502
4.6260037422180185,-0.9173607230186464,9.41940689086914,-0.4764415323734284,-2.103309869766236,-0.14127781987190247
5.150753974914551,-0.7057350873947144,9.248023986816406,-0.5420575141906738,-2.381085634231568,-0.14740681648254395
5.369695663452148,-0.39567863941192627,9.51319217681885,-0.6382364630699159,-2.6639046669006348,-0.0758190006017685
5.349786281585694,0.3030891120433808,9.39112663269043,-0.7766625285148622,-3.000974178314209,0.026497883722186092
5.3191423416137695,-0.16485159099102023,9.451068878173828,-0.8813162446022035,-3.4233915805816655,0.16846081614494324
4.690300464630128,-1.4068320989608767,9.40569591522217,-0.8919613361358643,-4.096810817718507,0.27229219675064087
4.733863353729249,-2.14307188987732,9.746238708496094,-1.080533504486084,-5.168908596038819,-0.05734577402472497
5.387678146362305,-1.396127700805664,11.336465835571289,-1.3480720520019531,-6.09476137161255,-0.09135706722736359
6.509269714355469,-1.8773274421691895,13.005746841430664,-1.6175391674041748,-7.010721206665039,-0.0008200258598662914
8.725957870483398,-1.6221070289611816,15.761646270751953,-1.7479058504104616,-7.708281517028809,0.22451676428318026
12.672404289245607,-0.5238629579544067,15.618563652038576,-1.7946903705596924,-7.806957721710206,0.6267853379249574
18.054761886596683,-3.1241683959960938,15.45750141143799,-2.2443025112152104,-7.848435401916504,0.5992946028709413
21.471267700195312,-4.955018997192383,15.448919296264648,-2.64908504486084,-7.453880310058594,0.18086431920528415
20.331592559814453,-4.514453887939453,15.802318572998047,-2.9817454814910893,-6.895280838012695,-0.503687083721161
17.21233177185059,-6.069998264312745,12.596076965332031,-3.259486675262451,-6.715311527252198,-0.7214918732643129
25.80767631530762,-5.1426453590393075,15.246192932128906,-4.251042842864991,-6.159720420837402,-0.2997649013996125
22.548351287841797,-3.0583791732788086,17.13192939758301,-5.789876937866211,-4.826485633850098,0.23965479433536532
16.707445144653324,0.008777499198913574,16.76968765258789,-7.582797527313233,-3.3286380767822266,0.9656793475151063
15.073732376098633,-3.276960134506226,8.76359748840332,-7.992047309875488,-1.965358376502991,-0.11850719898939134
40.787811279296875,-13.696603775024414,21.94798088073731,-6.122902393341065,0.18763941526412964,-2.0199749469757085
17.853021621704105,-14.568575859069826,15.220510482788086,-3.450381278991699,3.557687759399414,-2.5322191715240483
11.241324424743654,-7.442017555236816,9.086256980895998,-1.9004452228546143,4.31509828567505,-2.694340229034424
6.022849082946777,-2.2179234027862553,4.217850685119629,-1.018013119697571,4.428910255432129,-2.834256649017334
2.62799072265625,1.482262372970581,2.2763483524322514,-0.9462894201278687,4.020433902740479,-2.8095316886901855
3.798944711685181,2.4224097728729252,3.483054876327515,-1.5359882116317751,3.681447267532349,-2.497605800628662
4.847923278808594,1.0919044017791748,4.499635696411133,-1.947317361831665,3.67945408821106,-2.0031232833862305
3.892080783843994,-1.151918649673462,4.89313840866089,-1.9465380907058718,3.932340145111084,-1.522317886352539
2.14639949798584,-2.1627695560455327,5.186360836029054,-1.609298348426819,4.081735610961914,-1.1384156942367556
1.5723941326141357,-0.39189815521240234,5.659083366394043,-1.2461160421371462,4.1864895820617685,-0.7146497964859009
1.369565486907959,1.5682601928710938,6.1636247634887695,-1.0834442377090456,4.326498031616211,-0.26609775424003607
1.4830000400543213,1.7306512594223025,6.162724971771241,-1.1338624954223633,4.559739589691163,0.1742707043886185
2.236080408096314,1.3962775468826296,6.524418354034425,-1.1481564044952393,4.85868787765503,0.5548901557922363
2.5376474857330327,1.9457634687423708,6.022871494293214,-0.9798619151115419,5.208621501922608,0.8588058948516846
1.7784718275070193,3.0271096229553223,4.567061424255371,-0.7453324794769287,5.408767223358155,1.018726110458374
0.23967918753623962,4.738185882568359,2.3270742893219,-0.6058214902877808,5.3947815895080575,1.039068102836609
0.06819203495979309,5.583353042602539,1.3815429210662842,-0.6648863554000854,5.213855266571046,0.8822212219238281
1.7905858755111697,5.689454078674316,2.6177282333374023,-0.8237589597702026,5.119795799255371,0.6314733624458314
3.185588836669922,5.290070533752441,3.322419404983521,-0.8541077375411987,5.227648258209229,0.32666879892349243
2.7412765026092534,5.408364295959473,2.1581604480743413,-0.7785590887069702,5.329677104949952,-0.037782240658998496
1.797744393348694,5.384391784667969,0.5204390287399292,-0.734595537185669,5.2169203758239755,-0.41825151443481445
2.5338609218597417,4.675223350524902,0.20613481104373935,-0.7183672785758973,4.993634700775147,-0.716937780380249
3.742804288864136,3.5444483757019043,0.4281452596187592,-0.67513108253479,4.788718700408936,-0.889061450958252
5.7391157150268555,2.7800457477569585,1.392630457878113,-0.5917762517929077,4.540059566497804,-0.9252652525901796
8.856699943542482,2.3010950088500977,2.5046586990356445,-0.5337719321250917,4.387275695800781,-0.8276450037956239
11.125513076782227,1.918344855308533,2.6677675247192383,-0.4648053050041199,4.238166809082031,-0.6118960976600648
13.170727729797365,2.169562101364136,2.263674259185791,-0.4323876798152924,3.965087890625,-0.2846160829067231
15.299029350280763,2.093445301055908,1.3206672668457031,-0.4064826667308808,3.565945625305176,0.08933505415916443
16.320545196533203,1.5622128248214724,-0.09334492683410645,-0.2763781845569611,3.0305466651916504,0.4371683299541474
17.22072792053223,1.7037243843078613,-1.2614859342575075,-0.03302918747067452,2.36296820640564,0.7358328104019165
17.379850387573246,1.8482046127319336,-2.5764379501342773,0.285064846277237,1.6693401336669922,0.9382255673408509
16.141305923461918,2.59626317024231,-3.814303398132324,0.6268882155418397,0.8802220821380615,0.9715454578399658
15.720243453979492,3.3241124153137207,-4.196313381195069,0.8757939934730531,0.047028928995132446,0.8040964007377626
15.632338523864748,3.304424047470093,-3.701771497726441,1.1251864433288574,-0.6137866973876953,0.4727406203746796
14.225584030151367,3.041522979736328,-4.249428749084473,1.3842089176177979,-1.2391439676284792,0.011495329439640045
12.661413192749023,2.605780601501465,-3.5771677494049077,1.519492030143738,-1.927074670791626,-0.3115246295928955
12.083876609802248,1.2551109790802002,-1.9253966808319092,1.467989802360535,-2.3893051147460938,-0.3053636848926545
10.280776023864748,-0.5444825887680054,-0.6673988103866577,1.2234809398651123,-2.530409336090088,0.07987288385629655
50.011566162109375,13.074996948242188,21.16842842102051,-1.8522751331329346,-4.411247730255128,2.331948757171631
77.91262817382812,15.668832778930664,46.844078063964844,-3.4021322727203374,2.5746655464172363,3.257636070251465
-25.05068588256836,3.144290685653687,-6.189710140228272,-1.4636168479919434,1.9230192899703982,0.698999285697937
1.8520945310592654,-24.684503555297855,19.038982391357422,-0.6478648781776429,0.3396334350109101,0.273471474647522
-11.34429454803467,-6.10471248626709,6.18772029876709,0.7142635583877563,-0.7015427947044374,-0.055064186453819275
8.963492393493654,4.861716747283936,15.941737174987795,0.5478208661079408,-1.0701813697814941,-0.6454718112945557
6.602910041809082,-5.469375133514405,5.469037055969238,0.3860254585742951,-0.6993496417999268,-0.8162037730216981
10.863423347473146,7.500789165496827,8.009403228759766,0.04280627146363259,-0.29265508055686956,-0.25451165437698364
9.494740486145021,2.6245155334472656,8.452886581420898,-0.20363204181194308,0.19204488396644592,0.11451106518507005
4.9944868087768555,-3.158566236495972,8.66311550140381,-0.3945567905902863,0.4861692190170288,0.17987492680549622
4.130184173583984,-4.279183864593507,9.27098274230957,-0.015487536787986755,0.29774937033653265,0.05090292543172836
4.320945262908936,-2.4653196334838867,9.53909683227539,0.1453087776899338,0.190950021147728,-0.1306227445602417
5.533330917358398,-0.616246521472931,9.411556243896484,0.16663153469562533,0.1327955722808838,-0.1366422921419144
6.0000672340393075,0.3717540502548218,9.315240859985352,0.041824851185083396,0.193695068359375,-0.003659549169242382
5.280364036560059,-0.5278961658477783,9.481619834899904,-0.061674144119024284,0.2253277599811554,0.08710765093564989
4.615077018737793,-1.52248215675354,9.59962272644043,-0.062413949519395835,0.18795581161975863,0.08135177195072174
4.508356571197511,-1.7084801197052002,9.656806945800781,-0.020509934052824978,0.11106012761592865,0.029647948220372203
4.787384033203125,-1.0548979043960574,9.584863662719727,-0.013999959453940392,0.054902922362089164,0.009322003461420538
5.091116905212402,-0.8312385082244873,9.350013732910156,-0.034406904131174094,0.04884112626314163,0.024834813550114635
5.205234050750733,-1.0783482789993288,9.247516632080078,-0.05211456492543221,0.059563677757978446,0.05229562520980835
5.108207225799561,-0.8177898526191713,9.38902473449707,-0.0716158226132393,0.059828586876392365,0.08328919857740404
4.684551715850831,-0.9218895435333252,9.603169441223146,-0.09935954958200456,0.04207146167755127,0.10653358697891235
4.702311992645265,-0.6905333995819092,9.628229141235352,-0.1363677978515625,-0.010386255569756033,0.12268298864364624
4.5642056465148935,-0.6359778046607972,9.71211910247803,-0.18281373381614685,-0.05179040879011154,0.13261727988719943
4.622271537780762,-0.6676965355873109,9.586960792541506,-0.22264638543128967,-0.09711243957281114,0.1388561725616455
4.87362003326416,-1.0245302915573122,9.496196746826172,-0.25878909230232244,-0.14658764004707336,0.13543811440467834
4.8447160720825195,-1.1389713287353516,9.382081985473633,-0.27478140592575073,-0.1598155051469803,0.12785008549690247
4.732239723205566,-1.035006880760193,9.48171901702881,-0.3067971467971802,-0.18991857767105103,0.12232459336519243
5.035113811492921,-1.1959071159362793,9.317386627197266,-0.3291451930999756,-0.19973538815975192,0.1170254647731781
5.057189464569093,-1.4706424474716189,9.231085777282717,-0.3298735916614533,-0.1870976686477661,0.112605020403862
5.150992393493652,-1.5523141622543337,9.013119697570803,-0.3072974681854248,-0.15960343182086947,0.10863329470157623
5.224380970001222,-1.4886720180511475,9.029678344726562,-0.28055959939956665,-0.13209179043769836,0.1121511533856392
5.050662994384766,-1.5699502229690554,8.909536361694336,-0.24190293252468112,-0.10354167222976685,0.11238155514001848
4.874956130981445,-1.510526180267334,9.128628730773928,-0.20505204796791077,-0.08317432552576066,0.1025659963488579
4.867877483367921,-1.7818239927291872,8.899004936218263,-0.15949127078056335,-0.06497209519147874,0.09021326899528503
5.044073104858398,-1.9112654924392702,8.663344383239748,-0.09844134002923967,-0.05139778926968575,0.07942946255207062
5.04643201828003,-1.7575883865356445,8.873393058776857,-0.05698388442397118,-0.05077167600393295,0.06812842935323717
4.909249305725098,-1.8810442686080935,8.942399978637695,-0.033764779567718506,-0.0459466464817524,0.055756587535142905
4.940237998962402,-1.9247897863388064,9.001914978027344,-0.0011563042644411325,-0.05517229065299035,0.03917473554611206
4.908152103424073,-1.8002829551696777,8.96174716949463,0.013646953739225866,-0.05739665403962136,0.013255268335342407
4.648497104644776,-2.0903587341308594,8.875080108642578,0.04267576336860657,-0.05754253640770913,-0.017117395997047424
4.95170783996582,-1.5940639972686768,9.157204627990724,0.06363484263420105,-0.05293919518589974,-0.01380868908017874
5.1012587547302255,-1.4879724979400635,9.105042457580568,0.0461808629333973,-0.03632635623216629,-0.014858872629702093
5.051358699798585,-1.4318722486495974,8.946442604064943,0.029993208125233654,-0.023097848519682888,-0.017447609454393387
4.945431709289551,-1.267324447631836,9.153055191040039,0.01671945489943028,-0.01451483927667141,-0.004375410731881858
4.834094047546387,-1.2371342182159424,9.194047927856445,-0.0021407012827694416,-0.019550235942006115,0.0024206556845456366
4.5585951805114755,-1.6771562099456787,9.09576416015625,-0.006341856904327869,-0.03323627635836602,-0.005977854132652283
4.397758960723878,-1.7059506177902224,9.070993423461914,-0.006537682376801968,-0.07388973236083984,-0.020634474232792858
4.578890800476074,-1.8066381216049197,9.247420310974123,-0.01736240647733212,-0.12390211224555969,-0.03499335423111916
4.863133430480957,-1.8252445459365847,9.052582740783693,-0.009484161622822286,-0.15904465317726135,-0.0604274645447731
4.552616119384766,-1.3672871589660645,8.967090606689453,-0.005571461748331786,-0.1859683096408844,-0.08505571633577348
4.4676880836486825,-0.962744951248169,9.353452682495117,-0.014861326664686203,-0.26479417085647583,-0.11508145183324815
4.210801124572754,-1.308377742767334,9.318778038024904,-0.030630690976977352,-0.34192270040512085,-0.1271547228097916
3.953880071640015,-2.3619232177734375,9.167716026306154,0.003741402411833406,-0.4666425585746765,-0.19122591614723206
4.961942195892335,-1.8755853176116943,9.290054321289062,0.03474918752908707,-0.5773629546165467,-0.23853862285614014
5.219101428985597,-1.017627239227295,9.453319549560547,-0.0050545549020171165,-0.6169155836105347,-0.2559812963008881
5.165192127227784,-0.6785612106323242,9.648176193237305,-0.1164020821452141,-0.6787499189376831,-0.24328483641147616
4.981519222259522,-0.936611533164978,9.6885461807251,-0.2013835608959198,-0.7894894480705262,-0.22809971868991855
5.351922035217285,-0.8108633756637573,9.775604248046875,-0.2614403665065766,-0.9226365089416504,-0.19726704061031344
5.1909499168396005,-0.4415262639522553,9.39371967315674,-0.3512604236602783,-1.0655462741851807,-0.18013133108615878
5.050309658050538,-0.3882266879081726,9.88923454284668,-0.43285346031188965,-1.3134413957595827,-0.10896660387516022
4.243247032165527,-0.6078604459762573,9.494318008422852,-0.5267481207847596,-1.591088056564331,-0.09612978994846344
4.429927825927734,-0.24249663949012756,10.052470207214357,-0.5406631231307983,-1.9871262311935427,-0.07283225655555725
4.242233753204347,-0.17125022411346436,9.772615432739258,-0.5892320871353149,-2.3946332931518555,-0.07539384812116624
4.53816843032837,-0.4114754796028137,10.605321884155273,-0.5796188712120057,-2.820438861846924,-0.05315158143639565
3.9976158142089844,-2.5129971504211426,10.107604026794435,-0.3402595221996308,-3.2610082626342773,-0.08176693320274353
4.699149131774902,-1.565094232559204,9.891908645629883,-0.12564535439014438,-3.7667598724365234,-0.1721771210432053
5.92907476425171,-3.2914917469024663,10.14778804779053,0.0819963812828064,-4.196167945861816,-0.2676906287670136
6.000896453857422,-3.8786253929138184,10.671353340148928,0.20777848362922668,-4.600687503814698,-0.34320735931396484
8.726843833923342,-4.02266550064087,12.420779228210451,0.23487955331802368,-4.888740062713624,-0.310074657201767
11.907148361206055,-4.492164134979249,14.140055656433107,0.20186771452426913,-4.806605339050293,-0.28986832499504095
14.30934238433838,-7.14561414718628,10.969359397888185,0.5862224698066713,-4.77233648300171,-0.5119749307632446
25.797811508178714,-6.230327129364015,10.514624595642092,1.2943407297134402,-4.799236297607422,-0.8078622221946717
31.040508270263672,-4.128199577331543,5.904810905456543,1.6563804149627686,-4.617568492889405,-1.1633335351943972
31.79745864868164,-1.3810913562774658,3.0112216472625737,1.5129051208496094,-4.5149197578430185,-1.3540666103363037
33.173828125,-3.5413067340850835,3.4929077625274663,1.2528818845748904,-4.40560007095337,-1.3556921482086182
29.20820808410645,-0.4721332788467407,2.555254220962525,1.2035131454467773,-4.509886264801026,-1.6869966983795166
44.482696533203125,-1.4142117500305176,15.16353511810303,0.643963098526001,-4.234608173370362,-1.9032968282699587
31.975477218627933,-2.7625741958618164,15.059739112854006,0.4690747857093811,-2.6553962230682377,-1.8782639503479004
26.17523002624512,-1.0065919160842898,14.10552501678467,-0.18749906122684482,-2.2365119457244877,-1.6473846435546875
21.872289657592777,-1.355175852775574,14.313448905944826,-0.8298859000205995,-1.8522751331329346,-1.5772293806076052
16.860668182373047,-2.8338181972503667,13.432658195495607,-1.2425938844680788,-1.5175015926361084,-1.5081560611724854
11.884125709533693,-5.1060991287231445,11.724221229553224,-1.0431965589523318,-1.2971999645233154,-1.6089614629745486
7.979093551635742,-6.16396427154541,11.101861953735352,-0.45399200916290283,-1.1814944744110107,-1.75767457485199
5.875831604003906,-5.118858337402344,12.308760643005373,0.09919441491365434,-0.9732441902160645,-1.8427654504776003
4.48979377746582,-4.226883888244629,13.628916740417482,0.3757632374763489,-0.4705567061901093,-1.7308744192123415
1.5033377408981325,-3.7506315708160405,12.461427688598633,0.6094628572463989,0.20928271114826205,-1.5502407550811768
-2.363688707351685,-2.655876636505127,10.813545227050781,0.6964021921157837,0.8228484392166138,-1.4308835268020632
-5.152435302734375,-1.815775275230408,9.48488998413086,0.5180970430374146,1.2615231275558474,-1.283907175064087
-6.912746429443359,-2.635393381118775,7.3286542892456055,0.29349043965339666,1.5604376792907715,-1.1216957569122314
-8.332159996032717,-3.95700740814209,5.676497459411621,0.2768527865409851,1.6881870031356814,-0.9967830181121826
-7.671380043029785,-4.005059242248535,6.5144410133361825,0.26094555854797363,1.7989425659179688,-0.7920767664909364
-7.195825576782227,-3.833067655563355,6.463197708129883,0.1762850731611252,2.117668628692627,-0.48602542281150823
-8.595792770385742,-3.9493565559387207,5.073526382446289,0.08458279818296434,2.4017863273620605,-0.20907816290855408
-9.980916976928711,-3.561041593551636,3.2177870273590092,-0.06773453950881958,2.5097486972808842,0.07460792362689972
-10.306976318359375,-3.2236516475677495,2.030475616455078,-0.24488359689712524,2.480534076690674,0.3644131720066071
-9.616089820861818,-2.9500503540039062,2.2987966537475586,-0.44319173693656927,2.4411120414733887,0.6480173468589784
-7.184201240539551,-2.4527842998504643,4.291022300720215,-0.6757846474647523,2.615230083465576,0.9405949115753174
-5.840888500213624,-2.3047349452972417,4.75788450241089,-0.8105534315109253,3.0361888408660893,1.1812396049499512
-6.407256126403809,-1.939892292022705,3.3256175518035893,-0.8167049884796143,3.371549129486084,1.3227137327194216
-6.097219944000245,-0.31832218170166016,2.3609669208526616,-0.8358529210090638,3.508376121520996,1.4299975633621218
-4.566401958465577,0.6125594973564149,2.2913742065429688,-0.9364954233169556,3.6020629405975346,1.4910656213760378
-2.360447406768799,0.86297744512558,2.9503743648529057,-1.01228928565979,3.7365376949310307,1.4942362308502197
-0.3682863712310791,1.6782338619232178,3.7624573707580566,-1.0046026706695557,3.9571890830993652,1.4579735994338991
1.342559576034546,3.246286392211914,3.952406406402588,-1.0413492918014529,4.205964088439941,1.370110630989075
3.646998882293701,4.450082778930664,3.538352251052857,-1.138122797012329,4.374585628509522,1.1969066858291628
6.553525924682617,3.8650238513946538,2.9110779762268066,-1.1555461883544922,4.419779300689698,0.9085913896560669
8.961189270019531,2.648606300354004,2.3475193977355957,-0.9121071696281434,4.358676433563233,0.5423352718353271
10.572764396667482,3.1969459056854252,1.8084282875061035,-0.6165993213653564,4.154950618743897,0.2372094690799713
13.235817909240724,2.9514102935791016,2.073851823806763,-0.51314514875412,3.8360462188720703,0.05384466052055359
16.812356948852543,1.6616722345352175,2.8755500316619877,-0.4246435761451721,3.4874646663665776,0.026648495346307755
19.275100708007812,0.4374782741069794,2.4350461959838867,-0.2747429311275483,3.202515840530396,0.1674942970275879
19.127212524414062,0.1405693739652634,0.465223640203476,-0.07561662048101427,2.804276943206787,0.3957308232784272
18.151739120483402,0.33540213108062744,-1.7053558826446533,0.03868044540286065,2.209988594055176,0.7070518732070923
15.792458534240724,0.04988678172230721,-4.145930767059327,0.08135556429624559,1.4783012866973877,1.0698925256729128
18.444114685058594,2.8780641555786133,-10.885431289672852,-0.10074263066053392,0.49034652113914495,1.586946964263916
97.56411743164062,23.050472259521484,32.602012634277344,-3.022504568099976,-1.792593002319336,3.4196665287017827
14.325449943542482,25.054515838623047,-0.7794070243835449,0.3839080333709717,3.0585300922393803,0.23228175938129428
7.137001037597656,-11.17611598968506,11.504207611083984,-2.267953157424927,1.6940088272094727,0.7032817006111146
-13.2138147354126,-10.750650405883789,11.515874862670898,-0.47105339169502264,0.9637902379035951,0.43686598539352417
-1.4910557270050049,-0.0939343273639679,13.584547996520998,0.6599647998809814,-0.575949251651764,-0.5125899314880371
4.010833740234375,-15.894324302673342,11.165333747863771,0.9082092046737671,-0.5929840207099916,-0.9553434252738954
9.173560142517092,3.8216502666473393,9.251264572143555,0.5259831547737123,-0.7710797786712646,-0.649943768978119
10.785430908203125,6.54843807220459,7.176324844360352,0.17335267364978793,-0.2355349510908127,-0.33187204599380493
8.44692134857178,0.7218338251113892,7.941306591033936,-0.1543303579092026,0.24777978658676147,0.13545976579189303
5.075820446014405,-0.9468737840652466,9.255409240722656,-0.34918278455734253,0.540728271007538,0.274644285440445
3.7775485515594487,-3.305391073226929,9.304931640625,-0.13303381204605103,0.3471669256687165,0.2085268199443817
4.462993144989015,-2.3929207324981694,9.423519134521484,0.0036457229871302847,0.18326653540134433,0.04324750602245331
4.994093894958496,-0.6136020421981812,9.33495616912842,0.04027697443962097,0.09662931412458421,0.01775534078478813
5.356319427490234,0.7761318087577821,9.69277095794678,-0.06934145838022233,0.09589947760105133,0.12519311904907227
5.089181900024414,-0.4888319969177246,9.625157356262209,-0.21886940300464633,0.09243719279766083,0.24344904720783236
4.481132984161378,-1.780461668968201,9.507669448852539,-0.21150773763656616,0.01602434739470482,0.20237018167972567
4.514689922332765,-1.593774199485779,9.553749084472656,-0.14958441257476807,-0.0652919039130211,0.10911813378334045
5.013805866241456,-0.7236968278884888,9.514384269714357,-0.13821287453174594,-0.12293015420436859,0.08264699578285217
5.307286262512207,-0.19841352105140686,9.40477180480957,-0.19049967825412753,-0.13490238785743713,0.13338969647884372
5.1215620040893555,-0.44608339667320257,9.487488746643068,-0.2561092972755432,-0.1553686559200287,0.17568208277225497
4.892607212066651,-1.4166046380996706,9.324771881103516,-0.282010167837143,-0.1961415708065033,0.15564487874507907
4.889389991760254,-1.9201980829238894,9.208216667175295,-0.2512874901294709,-0.21678289771080017,0.15050938725471497
4.313361644744874,-0.6492470502853394,9.457909584045412,-0.26542019844055176,-0.2734015285968781,0.1500922441482544
4.178426742553711,-0.962983250617981,9.370734214782717,-0.3612021207809448,-0.3754616975784302,0.13408829271793368
5.485982418060304,-1.1325228214263916,9.360831260681154,-0.42242133617401123,-0.3829964697360993,0.1277446448802948
5.606794834136964,-0.9335722923278809,9.342693328857422,-0.4606215655803681,-0.31899023056030273,0.16550132632255554
5.433218002319336,-0.9087300896644593,9.317187309265138,-0.4739887416362763,-0.3011705279350281,0.20172305405139926
5.374215602874757,-1.3869590759277344,9.16790771484375,-0.43706473708152777,-0.2890131771564484,0.1885662078857422
5.468031406402589,-1.9171082973480225,9.011525154113771,-0.3899344205856323,-0.2626095116138459,0.17581775784492493
5.233437538146973,-2.0676350593566895,8.794470787048342,-0.3330872058868408,-0.21647851169109347,0.16662614047527316
5.07746458053589,-2.2594313621520996,8.524980545043945,-0.26339560747146606,-0.1893873065710068,0.13034185767173767
5.176305770874023,-2.167258977890015,8.536513328552248,-0.20908184349536899,-0.18966041505336764,0.11734418570995331
5.226744174957276,-1.857595682144165,8.767387390136719,-0.16182765364646912,-0.19219820201396945,0.11211003363132477
5.100310802459718,-2.064000844955445,8.673731803894045,-0.12321968376636505,-0.21716858446598056,0.10636090487241746
5.244880676269531,-2.0158898830413823,8.63148593902588,-0.07713447511196136,-0.2440147548913956,0.09659042954444885
5.151649951934815,-2.2050926685333256,8.743140220642092,-0.03711120784282684,-0.27108126878738403,0.07679875940084459
5.2882280349731445,-2.1778597831726074,8.757614135742188,0.0024675633758306503,-0.28401455283164984,0.06356534361839294
5.240771293640137,-1.9814133644104004,8.775515556335451,0.015950487926602367,-0.2840510606765747,0.05169401317834854
5.245493412017823,-1.668377757072449,8.844964981079102,-0.007229670882225037,-0.2655968368053437,0.04102493077516556
5.19859266281128,-1.998976469039917,8.555256843566896,-0.014457304030656815,-0.2624360918998718,0.021888898685574535
5.430981159210206,-1.8836244344711306,8.735633850097656,-0.01538041699677706,-0.26471829414367676,0.02236524783074856
5.477500438690186,-1.6133649349212646,8.786513328552248,-0.027106042951345444,-0.24802364408969882,0.018550591543316845
5.270362377166749,-1.743592143058777,8.740270614624023,-0.05049369111657143,-0.2272423505783081,0.0027067016344517474
5.230356216430664,-1.9924027919769287,8.645009994506836,-0.0494379997253418,-0.2285250425338745,-0.006281088571995498
4.9506425857543945,-1.9324874877929688,8.691976547241211,-0.05807573720812798,-0.24728348851203918,-0.017216337844729427
4.635934352874757,-2.183747529983521,8.80290412902832,-0.05978051945567132,-0.3198797106742859,-0.06405183672904968
5.006712913513184,-2.216133356094361,9.105946540832521,-0.06660470366477966,-0.4186671078205109,-0.09350945055484772
5.55390501022339,-1.54286789894104,8.72372817993164,-0.09764134138822557,-0.4649099409580231,-0.11320352554321289
5.355064392089844,-1.5604311227798464,8.701529502868654,-0.09591212123632432,-0.49968022108078003,-0.1289520710706711
4.575703144073487,-1.8081043958663943,8.766010284423828,-0.08170628547668457,-0.5738083720207215,-0.15914066135883334
4.910815238952637,-1.5525720119476318,9.209745407104492,-0.1551148444414139,-0.7209208011627197,-0.17189843952655795
5.841538906097413,-1.3817597627639773,8.869887351989748,-0.20105576515197754,-0.8226274251937866,-0.16869671642780307
5.410517215728761,-0.829857587814331,8.851264953613281,-0.25601083040237427,-0.9061977267265321,-0.16193407773971558
5.5598464012146005,-0.9930847287178041,8.868669509887695,-0.28820496797561646,-1.0337888002395632,-0.1256295293569565
4.928442001342773,-1.3363761901855469,9.271773338317873,-0.2854268550872803,-1.1718212366104128,-0.12934625148773193
5.004765510559082,-1.619084119796753,9.09580707550049,-0.3200988173484802,-1.4182255268096924,-0.1861252933740616
5.533738613128663,-1.8600152730941775,9.114062309265138,-0.3221464157104492,-1.624207377433777,-0.23318055272102356
5.355563640594483,-1.8687069416046143,9.636925697326662,-0.2857282757759094,-1.8594490289688113,-0.28002902865409857
4.638654708862305,-1.5494647026062012,9.04554080963135,-0.18115259706974032,-2.137373924255371,-0.32180008292198187
6.081421375274659,-1.5762511491775515,9.318624496459961,-0.18529127538204196,-2.479901552200318,-0.2809038758277893
5.707853794097901,-1.3010579347610476,8.870458602905273,-0.1479775309562683,-2.790146112442017,-0.265638530254364
5.815147399902344,-0.7441107034683228,8.939602851867678,-0.18792706727981567,-3.159310102462769,-0.21297265589237216
6.431455612182617,-0.9810220003128052,9.259039878845217,-0.25726565718650823,-3.5734872817993164,-0.1147473230957985
6.888936519622804,-1.6808252334594727,9.948731422424318,-0.3520056903362275,-3.9757969379425053,0.024380050599575043
8.36236572265625,-2.6419591903686523,10.36121463775635,-0.4292089343070984,-4.21527910232544,0.0972205400466919
9.705196380615234,-3.338758230209351,10.596199035644531,-0.4350742399692536,-4.297773361206055,0.13068825006484985
11.239068031311037,-3.576422452926636,10.936316490173342,-0.4285865724086762,-4.179819107055664,0.06800302118062974
12.858720779418945,-4.432795047760011,10.42162609100342,-0.2765797078609467,-4.143517017364503,-0.24026650190353394
15.509021759033203,-6.10390567779541,10.911781311035156,0.11778416484594346,-3.8667702674865723,-0.5397281050682069
17.81562042236328,-6.43851137161255,9.907255172729492,0.6085386872291566,-3.593050956726074,-0.6717652082443237
21.4948902130127,-4.7970428466796875,6.062079429626465,0.9802814126014711,-3.5597901344299316,-0.920806109905243
23.57583999633789,-3.5132017135620117,-0.024037301540374756,1.2662070989608767,-3.8395526409149174,-1.4419591426849365
29.085271835327152,-2.053366899490357,-0.041920989751815796,1.2327239513397217,-4.121946811676026,-1.7036323547363281
29.186431884765625,-0.45439925789833074,-0.4216799437999726,0.9176911711692811,-4.0584211349487305,-2.031853675842285
31.720600128173828,-1.1292978525161745,-0.756263256072998,0.722023904323578,-4.196203231811523,-2.3397920131683354
40.901702880859375,-3.4443650245666504,10.407511711120607,0.8968334794044496,-3.6483762264251713,-2.607856273651123
29.570795059204105,-1.6852966547012331,10.738200187683107,0.7047279477119447,-2.569571018218994,-2.5357062816619877
26.50386238098145,0.04509732127189636,10.575367927551271,-0.017132923007011414,-2.2307674884796147,-2.3789541721344
22.431278228759766,-0.4906854927539826,11.1943359375,-0.7330225110054017,-1.8036541938781738,-2.2011630535125737
18.444442749023438,-1.171081304550171,11.214336395263672,-1.3512694835662842,-1.4493539333343506,-2.0900857448577885
14.808134078979492,-3.243944883346558,11.174467086791992,-1.6486639976501465,-1.0677984952926638,-2.0742034912109375
10.758790016174318,-6.799551486968995,11.00090217590332,-1.3711973428726199,-0.7448660135269165,-2.066680431365967
7.840444564819336,-8.346599578857422,11.050486564636232,-0.5472747087478638,-0.4480448663234711,-2.035489559173584
4.79500436782837,-6.439310550689698,11.278799057006836,0.27183726429939276,-0.1219138726592064,-1.9758501052856445
2.4271667003631596,-4.365469455718995,11.53028678894043,0.6036531925201416,0.26881286501884466,-1.7687923908233643
0.8049508929252626,-3.3532807826995854,12.167379379272461,0.5884256958961488,0.733985185623169,-1.4684791564941406
0.1696242094039917,-3.6575295925140385,12.441224098205568,0.4259692430496216,1.3778980970382693,-1.1066901683807373
-0.8194646835327148,-4.671478748321534,12.53568744659424,0.2854471802711487,2.156337261199951,-0.7840737700462342
-3.8928992748260502,-5.186815738677979,10.031472206115724,0.3351569175720215,2.8629405498504643,-0.4732940196990967
-8.35158443450928,-5.430562496185304,6.169316291809082,0.5420629978179932,3.112064123153687,-0.25209000706672674
-10.354516029357912,-4.515876293182374,4.214319705963136,0.5780928730964662,2.9948134422302246,-0.023967238143086437
-10.289677619934084,-3.367885828018189,3.8107619285583496,0.3869253396987915,2.8570094108581543,0.26308473944664007
-8.859314918518068,-2.918062210083008,4.805974006652832,0.032882649451494224,2.912442684173584,0.5676661133766175
-8.113658905029297,-3.455701589584351,5.017641067504883,-0.2907505333423615,3.172311782836914,0.8616725206375122
-8.043078422546388,-3.772852182388306,3.9738423824310307,-0.41043433547019964,3.5120115280151367,1.1272288560867312
-8.986651420593263,-2.9679698944091797,2.0753378868103027,-0.40876513719558716,3.6859707832336426,1.3239115476608279
-8.209267616271974,-1.1076282262802126,1.6103971004486084,-0.5527908802032471,3.763180017471314,1.4973182678222656
-7.201016426086426,-0.2214307934045792,1.4161531925201416,-0.7870504260063172,3.8508901596069336,1.6351211071014404
-5.550161838531495,-0.03351602703332901,2.0698854923248295,-0.9603589177131654,3.933161735534668,1.7084995508193972
-3.409612894058228,0.8749627470970155,2.743857622146607,-1.0215060710906982,4.135458946228027,1.743547320365906
-2.088925361633301,2.654294013977051,2.475895881652832,-1.0399216413497927,4.339552879333496,1.6652404069900515
-0.2689476311206818,4.100456714630128,2.0549452304840092,-1.1129059791564941,4.44499158859253,1.4555972814559939
2.3958616256713867,4.71088457107544,1.6020485162734988,-1.1528239250183105,4.458617687225343,1.1432409286499023
5.395237922668457,5.0630555152893075,1.4962356090545654,-1.0680519342422488,4.370407581329347,0.7346789836883545
8.7152099609375,4.509883880615234,1.7748057842254639,-0.8677918910980225,4.256925106048585,0.27217352390289307
11.875965118408203,4.295409202575684,2.4137320518493652,-0.637479603290558,4.120704650878906,-0.0806775689125061
14.628166198730469,3.580845355987549,2.261998891830445,-0.44715458154678345,4.013270854949952,-0.2557917833328247
16.7610034942627,2.3088865280151367,0.9762046933174134,-0.2243197709321976,3.7987978458404545,-0.23119527101516724
18.098426818847656,1.1112823486328125,-0.4633568227291108,0.06374295055866241,3.3814508914947514,-0.009848162531852722
18.553575515747074,0.6925799250602723,-1.751392722129822,0.367722749710083,2.8259465694427495,0.3536680638790131
17.624174118041996,0.6528019309043885,-2.9817645549774174,0.5613978505134584,2.163357734680176,0.7829226851463319
15.941280364990234,-0.05379662662744522,-4.291473865509034,0.6949163675308228,1.4553709030151367,1.1826137304306032
12.61648941040039,-0.9302020072937012,-7.111497402191163,0.7889642715454102,0.630030930042267,1.5764567852020264
58.35454177856446,12.124957084655763,-0.22158432006835938,-1.5708589553833008,-1.948191285133362,2.675808191299439
65.92355346679688,32.41878890991212,25.14815902709961,-0.7760804891586304,2.3124091625213627,2.3978705406188965
5.314206123352051,-8.200165748596193,7.943909645080566,-2.195395708084107,2.394205808639527,1.3600680828094482
-1.5174036026000977,-8.659978866577148,13.925734519958498,-1.2775341272354128,2.3300814628601074,0.896636188030243
-12.261331558227539,-4.759146690368652,12.284686088562013,0.3729742169380188,1.007615923881531,0.11674950271844865
-0.7944791316986084,-8.279132843017578,13.807750701904297,0.7984397411346436,-0.05906811729073525,-0.7888516187667847
2.89444637298584,-7.2093963623046875,11.951704978942873,0.782251238822937,-0.5570306777954102,-0.9761463999748231
8.972384452819826,4.817657947540284,8.70272731781006,0.6189737319946289,-0.5518956780433656,-0.7133709192276001
10.236165046691896,5.290311336517335,7.386507034301758,0.13671010732650757,-0.10474167019128801,-0.31349083781242376
7.440434932708741,0.2178633213043213,8.07052230834961,-0.1796757131814957,0.368990957736969,0.03918657079339028
4.965803146362305,-1.7223430871963503,8.625320434570312,-0.07378064095973969,0.49458128213882446,0.09094253927469255
4.1545777320861825,-2.6713120937347417,9.409842491149904,0.06451914459466936,0.40505802631378174,-0.0007429607794620098
4.392718791961671,-2.1383979320526127,9.630828857421875,0.11684816330671312,0.31116408109664917,-0.10413233935832977
4.5809831619262695,-0.026484891772270203,9.780699729919435,0.0908823385834694,0.23991328477859497,-0.10460927337408067
4.933573246002198,0.7236774563789369,9.906849861145021,-0.031776152551174164,0.18478938937187195,0.0025855198036879305
4.554193973541261,-0.47485560178756714,9.636521339416506,-0.08686494827270508,0.13615484535694125,0.07588319480419159
4.06622314453125,-1.6898469924926758,9.724707603454592,-0.04337618127465249,0.0354674831032753,0.026310380548238754
4.451333045959473,-1.1450397968292236,9.692075729370117,-0.014466484077274801,-0.060106903314590454,-0.03583044186234475
5.008249759674073,-0.3772546052932739,9.500751495361328,-0.0464693270623684,-0.09347621351480485,-0.026554547250270844
5.268831729888917,-0.36663955450057983,9.301693916320803,-0.07517385482788086,-0.08231265097856523,0.015391893684864044
5.010673522949219,-0.4884099662303925,9.283084869384766,-0.09891374409198761,-0.06782514601945878,0.05495372787117959
4.615228176116944,-0.659919559955597,9.619577407836914,-0.12204162031412126,-0.09947198629379272,0.07340627163648607
4.6645827293396005,-1.0917565822601318,9.537939071655273,-0.1376432180404663,-0.14544180035591125,0.07223124057054521
4.972658157348633,-0.9840787649154663,9.297932624816896,-0.12829552590847018,-0.16477924585342407,0.05754107609391213
5.074759960174561,-0.6301579475402832,9.270631790161133,-0.13673162460327148,-0.16174019873142245,0.07132839411497117
5.2145400047302255,-0.871701717376709,9.191545486450195,-0.13842500746250155,-0.14515972137451172,0.09579309076070787
5.061750411987305,-0.8921531438827515,9.138557434082031,-0.13640367984771729,-0.12584751844406128,0.10847782343626024
4.901731967926026,-0.7990502119064331,9.32021999359131,-0.15775711834430697,-0.12800553441047668,0.11980896443128587
4.935393810272218,-0.9473415613174438,9.31117916107178,-0.17916156351566317,-0.13310116529464722,0.12925562262535095
5.097379207611085,-0.7221181392669678,9.348682403564453,-0.20225875079631808,-0.14003315567970276,0.14603625237941745
5.048318386077882,-0.7965594530105591,9.233461380004883,-0.23045758903026584,-0.14253281056880954,0.17248216271400452
4.895782947540284,-1.0926594734191895,9.304633140563967,-0.2252299189567566,-0.14721553027629855,0.16259530186653137
4.8450942039489755,-1.5538969039916992,9.182348251342773,-0.19844460487365723,-0.1414362043142319,0.13287098705768588
4.931474685668945,-1.542468547821045,8.996500015258789,-0.1570841819047928,-0.12206001579761505,0.09992059320211412
5.037934303283691,-1.198789715766907,9.2103967666626,-0.13295139372348788,-0.09915054589509965,0.0908721387386322
5.119759559631348,-1.6303268671035769,9.008516311645508,-0.11051951348781586,-0.05488115921616555,0.06842750310897827
5.155768394470215,-1.6586663722991943,8.837068557739258,-0.07512106746435167,-0.008075214922428131,0.05236443877220154
5.181915760040284,-1.1615376472473145,9.038565635681154,-0.05915939062833786,0.030226586386561397,0.05294748395681381
5.077384471893311,-1.2101867198944092,9.044657707214357,-0.05436429008841515,0.06475279480218889,0.05653355270624161
4.957177639007569,-1.3008588552474978,9.094690322875977,-0.05699190869927407,0.08460104465484619,0.06321202963590623
4.778374195098878,-1.4900310039520264,9.133609771728516,-0.05048703774809838,0.08940792083740234,0.054049596190452576
4.717575550079347,-1.3582429885864258,9.116703033447266,-0.025934437289834026,0.08431902527809143,0.02695354633033276
4.395580291748047,-1.178272366523743,9.402763366699219,-0.022188892588019375,0.05379626527428628,0.0013064711820334196
4.270318508148194,-1.3766433000564577,9.453359603881836,-0.014199638739228249,-0.011529981158673765,-0.02903589978814125
4.27497673034668,-1.3307311534881592,9.332168579101562,0.004634843207895756,-0.08085533231496812,-0.06047672405838967
4.671975135803223,-1.0589771270751953,9.592726707458498,-0.001362617244012654,-0.15538689494132996,-0.07146792858839036
4.923590660095215,-0.8778859376907349,9.24875259399414,-0.01862539909780026,-0.19290973246097567,-0.06724527478218079
4.77210807800293,-0.777624547481537,9.255971908569336,-0.054464291781187064,-0.21910342574119568,-0.04898133501410485
4.502830982208253,-0.9611339569091797,9.477094650268555,-0.0673312619328499,-0.2698909044265747,-0.04792911559343338
4.408646583557129,-1.6443482637405398,9.44980239868164,-0.05939602106809616,-0.33940151333808904,-0.09847724437713623
4.911306381225586,-1.614343047142029,9.366030693054201,-0.04175589233636856,-0.4056723117828369,-0.1597683280706406
5.158544063568116,-1.159473180770874,9.392674446105959,-0.024577952921390533,-0.4464519321918488,-0.1912156343460083
4.856577396392823,-1.406489610671997,8.86362075805664,-0.014203394763171675,-0.4795530438423157,-0.22619077563285828
4.95399284362793,-1.4140526056289675,9.272188186645508,0.014764329418540001,-0.5451821684837342,-0.25845855474472046
4.896502971649171,-0.7562346458435059,9.485388755798342,-0.0038951137103140354,-0.6481913328170776,-0.24897129833698275
4.69964599609375,-0.8303124904632568,9.685505867004396,-0.0439562052488327,-0.7929967045783998,-0.21061071753501892
4.691066741943359,-0.6826899647712709,9.553909301757812,-0.07950266450643541,-0.9828368425369263,-0.16476458311080933
4.398919105529785,-0.9339290261268617,9.64204216003418,-0.11712504923343658,-1.2049721479415896,-0.14710769057273865
4.517494678497315,-0.4745268225669861,10.018439292907717,-0.20240041613578796,-1.409008264541626,-0.13076566159725192
4.491646766662598,-1.416799783706665,9.935436248779297,-0.22832091152668002,-1.6168503761291504,-0.12090975791215898
4.449676990509034,-1.0723154544830322,9.618762016296388,-0.12574012577533725,-1.8936145305633545,-0.14170214533805847
4.833945274353027,-1.3458491563797,9.68692398071289,-0.1109960898756981,-2.0996551513671875,-0.19176612794399264
4.911899089813233,-0.8922444581985474,9.883290290832521,-0.07211268693208696,-2.371102094650269,-0.23893296718597412
5.439347743988038,-0.4224142730236054,10.053080558776857,-0.11090604215860368,-2.652596950531006,-0.2596664130687714
5.261992454528809,-0.6713116765022279,10.212719917297365,-0.12378916889429094,-3.008636474609375,-0.24983838200569153
4.594948291778565,-1.4837899208068848,9.8408203125,0.04300191625952721,-3.4088573455810547,-0.3594731986522675
4.809523582458496,-2.2613468170166016,9.332320213317873,0.27557525038719183,-3.9859850406646733,-0.4811827540397644
6.114490032196046,-2.1836802959442143,9.54721450805664,0.4751674830913544,-4.470992088317871,-0.5647606253623964
8.334056854248047,-2.545850038528443,11.27373790740967,0.6279571652412416,-4.806262016296387,-0.5781664848327637
11.235143661499023,-2.8203563690185547,12.76139545440674,0.6095082163810731,-4.806435585021973,-0.5104752182960511
13.83440685272217,-4.337711811065675,12.546878814697266,0.6016979217529297,-4.650162696838379,-0.5591443181037904
18.029067993164062,-5.143982410430909,13.476637840270998,0.9124277234077455,-4.5300092697143555,-0.8665007948875428
23.262018203735355,-3.751550912857056,12.21521854400635,1.3062381744384766,-4.268271923065186,-1.1920324563980105
26.85196113586426,-3.5323829650878906,7.511850357055664,1.503688454627991,-4.150352478027344,-1.3823722600936892
27.029666900634766,-4.308684825897218,1.8053994178771973,1.903351426124573,-4.3675551414489755,-1.687912940979004
27.846969604492188,-4.095759868621827,1.391127586364746,2.8141953945159917,-4.512974739074707,-1.9428361654281618
28.217672348022464,1.7328517436981201,-0.24252797663211825,3.1910970211029057,-4.822756767272949,-2.0145926475524902
40.57201385498047,4.326077461242676,10.289558410644531,2.1575620174407963,-4.845850944519043,-1.7320736646652224
33.79876327514649,4.183115005493164,14.546545028686523,0.8361189365386963,-3.4991097450256348,-1.1976720094680788
30.574342727661136,3.337256193161011,14.786001205444336,-0.6114270687103271,-2.54519534111023,-0.7975739240646362
24.014095306396484,1.0181198120117188,13.196577072143555,-1.4616712331771853,-1.5892527103424072,-0.6598079204559326
17.06283187866211,-1.048884630203247,10.373589515686037,-1.8900048732757568,-1.1507405042648318,-0.650473952293396
11.77122688293457,-3.550276279449463,8.415869712829592,-1.8731906414031982,-1.062781810760498,-0.7707690596580506
8.631452560424805,-5.884329795837402,7.998441696166992,-1.2943432331085205,-1.1265255212783816,-0.9416722059249878
7.066226482391358,-6.476175308227539,9.269058227539062,-0.42497351765632635,-1.0394172668457031,-1.0381684303283691
6.355202198028565,-4.622494697570801,11.693620681762695,0.3053818047046662,-0.6605573892593384,-1.0422567129135134
4.565258026123047,-2.3493309020996094,12.729510307312013,0.5685657858848573,0.03205183520913125,-0.8965069055557251
0.796128809452057,-1.3130483627319336,11.635326385498047,0.5586596727371216,0.8044924139976503,-0.7013522386550903
-3.523107767105103,-1.060589075088501,9.547764778137209,0.43834543228149414,1.3758705854415896,-0.5812663435935975
-5.474915504455566,-0.7409627437591553,8.374244689941406,0.20932002365589145,1.7305107116699219,-0.49573436379432684
-6.274976253509522,-1.4683265686035156,7.332985401153565,0.015170736238360405,2.028806209564209,-0.39066663384437567
-6.892311573028565,-2.5648937225341797,6.138788223266602,0.006649986375123263,2.3004302978515625,-0.25871661305427557
-7.815227508544922,-3.058567523956299,5.194619655609132,0.11963773518800737,2.4698619842529297,-0.13287127017974854
-8.253167152404787,-2.7208020687103276,4.300558090209961,0.19700998067855835,2.602735280990601,0.0030982159078121185
-9.35198497772217,-2.190347194671631,2.907412528991699,0.1614319086074829,2.677570343017578,0.12498656660318376
-9.557876586914062,-1.7590656280517578,2.3074982166290288,-0.018388273194432262,2.6765236854553223,0.27460667490959173
-8.583439826965334,-1.9369032382965088,2.4327173233032227,-0.287880539894104,2.711861848831177,0.502916991710663
-7.124040603637695,-2.6273334026336674,2.6939964294433594,-0.4469477832317353,2.8452696800231934,0.7673612236976625
-6.11700439453125,-2.948873996734619,2.805644989013672,-0.45121514797210693,3.0575881004333496,1.0416332483291628
-5.172275543212891,-2.069484233856201,2.6711242198944096,-0.4504887163639069,3.3153839111328125,1.309566378593445
-4.152347087860108,-0.6850171685218812,2.3791584968566895,-0.5579221248626709,3.5627167224884038,1.548145890235901
-2.3841590881347656,0.4525709450244904,2.6006605625152592,-0.787938416004181,3.8062357902526855,1.756045699119568
-0.5333476066589355,0.8988921642303467,2.2744946479797363,-0.9653406739234925,4.091106891632081,1.88836669921875
0.5976289510726929,1.4304447174072266,1.3016940355300906,-0.9672229290008545,4.2449612617492685,1.889693260192871
2.478997230529785,2.421761274337769,0.7568724751472474,-0.9345293045043945,4.246285915374757,1.7763079404830935
4.690812587738038,2.8920285701751713,0.8588125705718994,-0.897634744644165,4.176904201507569,1.559931755065918
7.607786655426026,2.4079186916351323,1.2523709535598757,-0.8162367939949037,4.080029010772706,1.2720417976379395
10.257277488708498,2.041752099990845,1.4996677637100222,-0.634329080581665,3.9585502147674565,0.9820007085800171
12.368367195129396,1.6761600971221924,1.034694314002991,-0.4347213208675385,3.816155433654785,0.7367758750915527
14.060261726379396,1.013455867767334,0.1429821252822876,-0.24942034482955933,3.553275346755982,0.5949708223342896
15.68160629272461,0.7065224051475526,-0.2278758138418198,-0.1083567962050438,3.167218446731568,0.6022835969924927
17.234310150146484,0.5031580328941346,-0.6901804804801942,-0.033712394535541534,2.7413842678070073,0.71787428855896
17.714601516723636,0.45685783028602606,-1.4641722440719607,0.04562118276953698,2.265868663787842,0.8840241432189941
16.705614089965824,1.077043056488037,-3.0900745391845703,0.03498326614499093,1.7289745807647705,1.066623091697693
13.442309379577638,0.29541653394699097,-6.503185272216797,-0.03419999033212662,1.0100293159484863,1.2714339494705202
9.336427688598633,-0.7396800518035889,-9.426945686340334,-0.07455169409513475,0.006043687462806702,1.558000683784485
44.15576553344727,8.445283889770508,-11.471845626831055,-1.0452356338500977,-1.9990035295486452,1.661546587944031
68.74577331542969,26.775796890258793,50.666351318359375,-0.8610261678695679,2.65713906288147,1.691283941268921
1.642988920211792,9.963510513305664,-0.9929336905479432,-0.9823005795478822,2.186822652816773,-0.19516751170158386
2.0436270236969,-17.461437225341797,14.432558059692383,-0.8555521368980409,3.342282295227051,0.6087003350257875
-7.134814262390137,4.878361225128175,16.964803695678714,0.3099591434001923,1.6702098846435547,0.11437296867370605
-2.173664808273316,-11.503279685974123,14.026473045349123,0.5861304998397827,0.6446425318717958,-0.43553805351257324
0.9113591313362123,-3.7357857227325444,13.319912910461428,0.4176126420497895,-0.48448333144187933,-0.6528933048248291
7.0353593826293945,2.9839072227478027,9.779346466064453,0.3384544253349304,-0.6706195473670961,-0.48248159885406494
9.094682693481445,0.0433395653963089,6.709844112396241,0.12669935822486877,-0.3418362438678742,-0.3106751143932343
8.193729400634766,1.5267907381057741,7.369163036346436,-0.0491115003824234,0.0999806895852089,-0.02344033122062683
6.080060958862305,-0.5059599876403809,8.334484100341797,-0.0854610949754715,0.34884440898895264,0.11739247292280199
4.6257219314575195,-1.827277421951294,9.05537509918213,-0.03389325737953186,0.34857228398323065,0.10514751076698303
4.21514892578125,-1.9251774549484255,9.490501403808594,-0.018108677119016647,0.26518926024436956,0.03337102010846139
4.811422348022461,0.006783351302146912,9.852992057800295,-0.06101165339350701,0.14993441104888916,0.05122951045632363
5.211721897125245,0.25992220640182495,9.619862556457521,-0.17073258757591248,0.09328265488147736,0.13791035115718844
5.094041347503663,-0.8511638045310975,9.390796661376953,-0.20214664936065674,0.05193699523806573,0.18502706289291382
4.684147834777832,-1.388773322105408,9.538286209106445,-0.1746504753828049,-0.02118164673447609,0.15815439820289612
4.7053117752075195,-1.3112945556640625,9.470176696777344,-0.17581199109554294,-0.09804296493530273,0.12842921912670138
5.012245655059815,-0.9158902764320375,9.476469039916992,-0.21048209071159363,-0.1513153314590454,0.12846197187900546
5.264849662780762,-0.7550652623176576,9.274986267089844,-0.23966385424137118,-0.17544499039649963,0.15461052954196933
5.281821727752686,-0.7207091450691224,9.26021957397461,-0.26668199896812445,-0.19248661398887634,0.19894564151763916
5.101802349090577,-0.8975104093551636,9.435036659240724,-0.29318785667419434,-0.22578419744968417,0.22991719841957092
5.137914180755616,-1.7383301258087158,9.226142883300781,-0.28138777613639837,-0.23910112679004672,0.22399500012397766
5.150184631347656,-1.5300593376159668,9.128003120422365,-0.26136973500251776,-0.24097087979316711,0.21475581824779513
5.285196781158448,-0.9605305790901185,9.156848907470703,-0.27910155057907104,-0.25953510403633123,0.20980755984783175
5.339269161224366,-0.9520434141159058,9.200328826904297,-0.3110325634479523,-0.2750779986381531,0.2294442802667618
5.194000244140625,-1.5187478065490723,9.003687858581545,-0.3123888373374939,-0.275055468082428,0.22594730556011203
5.258473873138429,-1.592886805534363,8.887356758117678,-0.27924332022666937,-0.2511369585990906,0.22235782444477084
5.244765758514405,-1.859783411026001,8.827040672302248,-0.24995100498199463,-0.23279972374439242,0.19521389901638034
5.277018070220948,-1.618523359298706,8.904062271118164,-0.22507561743259433,-0.20221483707427979,0.1693544536828995
5.297880172729492,-1.783766746520996,8.73072624206543,-0.215314194560051,-0.17921157181262973,0.14892178773880005
5.450168132781983,-1.9009735584259033,8.860934257507326,-0.1892041563987732,-0.13762049376964572,0.139731764793396
5.229481220245362,-1.9772541522979736,8.658370971679688,-0.13772724568843844,-0.07795457541942596,0.13248750567436218
4.938061714172363,-1.8836519718170166,8.90899181365967,-0.11040419340133667,-0.06095414981245995,0.13002604246139526
5.01698923110962,-1.785830616950989,8.969661712646484,-0.10298755764961243,-0.08450838923454285,0.11632864922285081
5.089245319366456,-1.9275004863739014,8.88955307006836,-0.10202564299106598,-0.10222386568784715,0.0981871634721756
5.4363417625427255,-2.207074403762818,8.623696327209474,-0.06923595070838928,-0.07980365306138994,0.06622000783681871
5.421725749969483,-2.1603353023529057,8.523652076721193,-0.027972219511866573,-0.03315958380699158,0.04144989326596261
5.253151416778565,-1.8779871463775635,8.60842514038086,-0.0034949278924614195,0.011194889433681967,0.030136384069919586
5.153114318847656,-1.696061372756958,8.768378257751467,-0.0062353480607271194,0.038300801068544395,0.029076803475618362
4.792298316955566,-1.8635293245315554,8.95608425140381,-0.006895793601870537,0.027392821386456493,0.00809618551284075
4.882214546203613,-2.334223747253418,8.756283760070803,0.011591820046305656,-0.016951983794569973,-0.03369813412427902
5.344388008117676,-1.8620699644088747,8.903984069824219,0.03208160027861596,-0.04543635621666909,-0.064242884516716
5.315824508666992,-1.5196819305419922,8.739111900329592,0.03125189244747162,-0.024544173851609234,-0.07243859767913818
4.966100692749023,-1.4273576736450195,8.989922523498537,0.014830680564045906,-0.03600945696234704,-0.07553719729185106
5.037569046020508,-1.08877170085907,9.148324966430664,-0.01192248146981001,-0.07863561809062958,-0.05912157520651818
4.554738998413086,-1.5891101360321045,8.985608100891115,-0.0256570503115654,-0.1350962519645691,-0.06468335539102556
5.109541416168214,-1.9024441242218018,8.921899795532227,-0.00031086435774341226,-0.2103412300348282,-0.10791133344173431
5.463285923004151,-1.437436580657959,8.918108940124513,0.007899585179984571,-0.22247037291526794,-0.11152423918247223
4.810970306396484,-1.7258013486862185,8.614341735839844,0.003495940938591957,-0.2348846942186356,-0.12595728039741516
4.805658817291261,-1.4578658342361452,9.169254302978516,-0.006265946663916111,-0.3225064277648926,-0.13412259519100192
4.889346599578858,-1.8189979791641238,9.438352584838867,-0.051307857036590576,-0.4074846208095551,-0.14593791961669922
5.39304256439209,-1.6557732820510866,9.221909523010256,-0.08192966878414154,-0.5031490921974183,-0.1576044410467148
5.539174556732179,-0.9200786948204042,9.262691497802734,-0.11968789249658586,-0.5757410526275635,-0.1435174494981766
5.0615997314453125,-0.7328535318374634,9.627191543579102,-0.22946611046791077,-0.6844148635864258,-0.11383638530969621
4.7162981033325195,-1.3323968648910525,9.517584800720217,-0.31062701344490057,-0.9076137542724609,-0.0863577648997307
4.512026786804199,-0.6741755604743959,9.886602401733398,-0.4165796339511872,-1.1677775382995605,-0.051463060081005096
4.231652736663819,-1.057343363761902,9.470024108886719,-0.5499261617660522,-1.5218907594680788,-0.09404170513153076
4.496035099029542,-1.434329390525818,9.987891197204592,-0.54076486825943,-1.7843662500381472,-0.15204736590385437
3.691898822784424,-2.025569438934326,10.191280364990234,-0.5020549297332764,-2.1581933498382573,-0.24661719799041748
4.808338165283203,-2.0555834770202637,9.310785293579102,-0.31746000051498413,-2.519999265670777,-0.3331424295902253
5.010567665100098,-1.7071807384490967,9.336015701293945,-0.1844180375337601,-2.832003116607666,-0.414788693189621
5.305497646331788,-0.9179632663726807,10.159125328063967,-0.09625118970870972,-3.299996852874756,-0.3976310789585114
5.14781141281128,-1.4765748977661133,10.047615051269531,-0.016326995566487316,-3.7381234169006348,-0.3841314613819123
5.685357570648194,-3.2541279792785645,9.747218132019045,0.08024567365646362,-4.226548671722413,-0.3810333907604218
7.138510704040527,-3.4494614601135254,10.194171905517578,0.147557869553566,-4.622274398803711,-0.35742989182472235
9.297187805175781,-3.0549521446228027,11.742847442626953,0.11661390960216522,-4.849103927612305,-0.29351028800010687
12.530925750732422,-3.3015060424804688,13.071533203125,0.03951514512300491,-4.736711025238038,-0.32911717891693115
14.504536628723146,-5.284597396850586,11.810952186584474,0.22020897269248962,-4.53857183456421,-0.6452990174293519
20.621068954467777,-5.071671962738038,12.04118537902832,0.5077024102211,-4.2439165115356445,-0.8285304903984071
24.06936073303223,-5.788338661193848,8.36088752746582,0.7672489285469056,-3.8634383678436284,-1.1559643745422363
26.073446273803714,-5.485330104827882,3.9855570793151855,1.0523784160614014,-3.877580881118775,-1.573674201965332
27.285745620727543,-2.6262300014495854,0.2167155146598816,1.1879000663757324,-4.256495952606202,-1.877310395240784
26.929830551147464,-1.0425481796264648,0.10007321834564209,1.1589398384094238,-4.395938396453858,-2.1662888526916504
30.328165054321293,0.035306937992572784,0.6428695917129517,0.8941612839698793,-4.787529468536378,-2.4216861724853516
38.83127212524415,-1.5209097862243652,12.255648612976076,0.4359017014503479,-4.117462635040284,-2.3416872024536133
27.905445098876953,-0.5844772458076478,11.621480941772461,-0.1454861015081406,-3.001434326171875,-2.09788179397583
26.840320587158203,-0.28714182972908026,12.851795196533203,-0.9351600408554077,-2.3974797725677495,-1.8728108406066895
22.924737930297855,-0.9970554113388062,13.197850227355959,-1.6241083145141602,-1.600365400314331,-1.665103316307068
18.712415695190433,-2.419517993927002,12.395866394042969,-2.16913914680481,-0.8584028482437134,-1.4684985876083376
13.265823364257812,-5.607279300689698,10.361137390136719,-2.0446600914001465,-0.2859227359294892,-1.4235624074935915
7.808612346649171,-7.74947214126587,8.269773483276367,-1.2636197805404665,-0.11417435109615326,-1.4301925897598269
4.232634067535401,-7.516158103942871,7.499990463256836,-0.22395503520965576,-0.1876642107963562,-1.5051854848861697
2.50415587425232,-5.110692501068116,8.438843727111818,0.6167879700660707,-0.2474568784236908,-1.568850636482239
2.0937299728393555,-2.4930453300476074,9.546998023986818,0.8933036923408509,-0.07274843752384186,-1.425837516784668
0.7237131595611572,-0.9766287207603456,9.760063171386719,0.7834553718566895,0.314732700586319,-1.1753146648406982
-1.1468006372451784,-1.010352969169617,8.867344856262209,0.537227988243103,0.8091820478439331,-0.9311898350715638
-2.860449552536011,-1.773937463760376,8.266070365905763,0.3059461414813996,1.2255463600158691,-0.730997383594513
-3.8532083034515385,-2.3943347930908203,7.228093624114991,0.22428603470325473,1.5682554244995117,-0.5111677646636963
-4.986626625061035,-3.2163069248199467,5.870501041412354,0.3175788223743439,1.8029720783233643,-0.3106625974178315
-5.483030796051026,-3.345144748687744,5.291172981262207,0.42935350537300115,1.9355205297470095,-0.0902843028306961
-5.079307556152344,-3.068624496459961,5.446988105773926,0.4432488679885864,2.075677633285523,0.1758722960948944
-4.236713409423828,-2.8841674327850346,5.826101303100586,0.3822541534900666,2.3345775604248047,0.44890809059143066
-4.226688861846925,-2.569897890090943,5.419639110565186,0.2841429114341736,2.685320138931275,0.694792628288269
-5.217743396759034,-2.0660510063171387,3.8775343894958496,0.17000640928745273,2.951326131820679,0.8968819379806519
-5.84940004348755,-1.3888996839523318,2.481904268264771,0.0062641273252666005,3.070437431335449,1.0701316595077517
-6.158803462982179,-1.0754994153976443,1.1416791677474978,-0.161479651927948,3.103179216384888,1.2095643281936648
-5.842385768890382,-0.9050982594490052,0.8501031398773193,-0.27357667684555054,3.066175222396851,1.281578540802002
-4.3658857345581055,-0.6574026942253114,1.5672434568405154,-0.3778262734413147,3.089902400970459,1.3306010961532595
-2.9612009525299077,-0.43448433279991155,2.310886144638062,-0.4373859763145447,3.207602739334107,1.3381145000457764
-1.302584171295166,-0.025982242077589035,3.01531195640564,-0.5303272604942323,3.407496452331543,1.3571486473083496
-0.3734306395053864,0.19632604718208313,2.7506406307220463,-0.6186345815658569,3.6320140361785893,1.3816463947296143
0.3438879549503327,0.48240861296653753,2.272219181060791,-0.6460317373275757,3.770491123199463,1.3738659620285036
1.7827044725418093,1.0990078449249268,2.327600240707398,-0.6803232431411743,3.842131853103638,1.3355939388275146
3.703816175460816,1.2006753683090212,2.3903744220733647,-0.6834162473678589,3.8849933147430424,1.214764475822449
5.933117389678956,0.7783075571060181,2.4582738876342773,-0.621347725391388,3.884723663330078,1.0555750131607058
7.968193531036378,0.7243348956108094,2.394917249679566,-0.5424989461898804,3.831420421600342,0.9324876666069032
9.512226104736328,0.8041887879371644,2.1196458339691167,-0.47402507066726685,3.7118623256683354,0.8216928243637085
11.816177368164062,0.18431116640567782,2.095293760299683,-0.41798236966133123,3.5417909622192383,0.7555222511291504
13.626737594604492,-0.016607344150543213,1.521594762802124,-0.31572824716567993,3.298634290695191,0.7689958810806274
14.965347290039062,0.06048945710062981,0.5672543644905091,-0.24079330265522006,2.9418504238128667,0.8133349418640137
16.275184631347656,-0.43513098359107977,0.406319260597229,-0.18244293332099915,2.4891574382781987,0.870760440826416
17.156995773315433,-1.3526625633239746,0.3544255495071411,-0.05342916771769524,2.060086250305176,0.9570728540420532
16.925323486328125,-1.4412033557891846,-0.5485789179801942,0.06942930072546007,1.6239123344421387,1.1529420614242556
16.070047378540043,-0.9142590761184692,-2.276167392730713,-0.019530253484845165,1.1317483186721804,1.505737543106079
11.882974624633789,-0.5123012065887451,-7.0914812088012695,-0.23024940490722656,0.45108959078788763,1.8850297927856445
93.28903198242188,11.515459060668945,26.872608184814453,-1.7954270839691162,-1.9734302759170534,2.129310846328736
2.6650531291961674,36.71752166748047,-5.491242408752441,1.4135711193084717,3.93270754814148,-0.47358375787734985
19.29830551147461,-4.185636043548585,18.47445297241211,-1.9733045101165771,2.1196823120117188,-0.5477824807167054
-9.801797866821289,-6.572256565093995,9.982399940490724,-0.04953793808817864,2.074178695678711,0.1213820055127144
-7.798647403717042,7.178574562072754,15.587651252746584,0.5051439404487611,0.6589765548706055,-0.25552570819854736
2.849860668182373,-8.549073219299318,12.35622787475586,0.6578558683395386,-0.0056233671493828305,-1.1508560180664062
5.2063612937927255,-11.444585800170898,9.572436332702638,0.5367949604988099,-0.345659226179123,-0.5452917814254761
7.353780746459961,3.9988574981689453,9.339598655700685,0.4841338694095612,-0.43097060918807983,-0.48131427168846136
6.89685869216919,-1.977236032485962,8.084347724914553,0.3188644051551819,-0.15849451720714572,-0.4867957532405854
7.375100135803223,2.1648089885711674,9.221928596496584,0.16699181497097018,0.12564069032669067,-0.33502951264381414
6.731342792510987,0.9383684396743774,8.963951110839844,0.13345713913440707,0.24851013720035556,-0.14388209581375122
5.600010871887207,-1.1622565984725954,8.92544174194336,0.14145044982433322,0.29833984375,-0.04743194207549096
4.896727085113526,-3.075725317001343,8.772940635681154,0.20087873935699463,0.3181731998920441,-0.13337288796901706
4.643680572509766,-0.6052272319793701,9.619729042053224,0.18792359530925754,0.26143383979797363,-0.1701520532369614
4.870907783508301,0.59478896856308,9.789779663085938,0.05230620130896569,0.2174174338579178,-0.08763673901557922
5.008761882781983,-0.08649666607379913,9.610844612121584,-0.02527604252099991,0.182303860783577,0.02725280448794365
4.833733558654785,-0.5793243646621704,9.459535598754883,-0.01904929056763649,0.12253204733133317,0.065975658595562
4.637850761413574,-0.8817903995513916,9.594451904296875,-0.025635693222284317,0.05875788256525994,0.054319798946380615
4.831183910369874,-1.091604828834534,9.366456985473633,-0.030844025313854218,0.004755266942083836,0.035863365978002555
5.102962017059327,-0.5055811405181885,9.289746284484865,-0.050408393144607544,-0.014510587789118292,0.0386393666267395
5.174928665161133,-0.25157058238983154,9.40975856781006,-0.08503066003322601,-0.026146775111556057,0.07897763699293138
5.025386810302734,-0.5900454521179199,9.35519790649414,-0.105428546667099,-0.05378277227282525,0.10841540992259979
5.02006721496582,-0.8233190774917603,9.296008110046388,-0.10578677803277971,-0.08491953462362291,0.11292305588722229
5.060272216796875,-0.7883955240249634,9.257675170898438,-0.11727146804332733,-0.11619266122579576,0.10566708445549011
4.951805114746094,-0.8252787590026855,9.256580352783203,-0.12894420325756076,-0.1341465711593628,0.11267444491386414
4.870503902435304,-0.745358943939209,9.421345710754396,-0.15103121101856234,-0.16985788941383362,0.12180695682764055
4.7789368629455575,-0.8638179302215576,9.312005996704102,-0.16222508251667025,-0.20950512588024142,0.12142887711524963
4.547950744628906,-1.0542103052139284,9.41531276702881,-0.17564132809638977,-0.2705626785755158,0.10630223155021667
4.8364973068237305,-1.0202122926712038,9.45194721221924,-0.17224350571632385,-0.3245707452297211,0.09319043904542924
5.070492744445801,-1.1425896883010866,9.096696853637695,-0.16794630885124207,-0.3530223667621613,0.07594911754131317
5.2365431785583505,-0.924331784248352,9.110926628112795,-0.1693771481513977,-0.35497838258743286,0.07133785635232927
5.218843936920167,-0.6177126169204712,9.013460159301758,-0.17773716151714328,-0.3464120626449585,0.07921775430440904
5.046106338500977,-0.9622915387153627,8.938393592834474,-0.2021405249834061,-0.33605414628982544,0.08327874541282654
5.052220821380616,-0.8263291120529175,9.341829299926758,-0.21112133562564853,-0.35340023040771484,0.08621586114168169
5.042231082916261,-1.2563462257385254,9.182674407958984,-0.21518132090568542,-0.37534940242767334,0.07219701260328294
5.050955772399902,-1.5257394313812256,8.832850456237795,-0.2129899263381958,-0.3944284617900849,0.050763823091983795
5.212201595306397,-1.714444637298584,8.83590316772461,-0.20022282004356384,-0.4003457129001618,0.0265584122389555
5.324912548065186,-1.9418485164642334,8.768219947814943,-0.17146806418895724,-0.3947914242744446,-0.007613557856529952
5.233646869659425,-1.258151412010193,8.870269775390625,-0.14644710719585421,-0.39749214053154,-0.028401602059602737
5.384331226348878,-0.922662615776062,9.028766632080078,-0.15070554614067078,-0.38888213038444525,-0.033400461077690125
5.472712993621827,-1.2541630268096924,8.809218406677248,-0.13984002172946933,-0.38891446590423584,-0.0448538213968277
5.419771671295167,-0.8256813883781434,8.979171752929688,-0.12197189033031464,-0.40672710537910467,-0.028177957981824875
5.307380676269531,-0.9887306094169618,8.870121955871584,-0.1319433003664017,-0.44113573431968695,-0.02033020555973053
4.975726127624512,-0.8548429012298584,9.058086395263672,-0.1634141206741333,-0.5006850361824037,-0.03191331773996353
5.41284990310669,-1.1149756908416748,8.951019287109375,-0.20085743069648743,-0.5690192580223085,-0.03474513068795205
5.486837387084961,-1.2134959697723389,8.980688095092773,-0.2137967050075531,-0.6110970377922059,-0.02397175505757332
4.826384544372559,-1.9039630889892578,8.886525154113771,-0.19535502791404724,-0.6321721076965332,-0.07275966554880144
