AccX,AccY,AccZ,GyrX,GyrY,GyrZ
3.202011794201099e-05,-6.785432105971268e-06,7.484429806936532e-05,6.816831898959208e-08,-7.652796085722004e-08,-1.198041559291596e-07
4.149881362915039,-0.8459141254425049,9.695462226867678,0.004761661868542434,-0.011470624245703222,-0.014348728582262993
4.175515651702882,-0.8447237610816957,9.69830322265625,0.0036892576608806853,-0.011842353269457817,-0.011459411121904852
4.158823013305664,-0.8593176603317261,9.697229385375977,0.0024206792004406452,-0.013122730888426306,-0.01042644400149584
4.173868179321289,-0.8573909401893617,9.711445808410646,0.0009253517491742969,-0.013326887972652914,-0.01136283203959465
4.156177520751953,-0.8649315237998964,9.703518867492678,0.000738808885216713,-0.011172736063599586,-0.009565138258039953
4.154127597808839,-0.8847575187683105,9.711126327514648,0.00014946929877623916,-0.014085614122450353,-0.008514374494552612
4.165765285491944,-0.883714258670807,9.705353736877443,-0.0015490667428821325,-0.010794634930789472,-0.010903724469244482
4.155391693115234,-0.8861863017082215,9.673020362854006,0.0012557331938296556,-0.010282703675329687,-0.0102866031229496
4.148122310638429,-0.905138909816742,9.69469738006592,0.0015661952784284951,-0.011848908849060537,-0.010898115113377571
4.145787239074707,-0.885849118232727,9.698760986328125,0.0022182525135576725,-0.015000740997493269,-0.014442948624491692
4.168204307556152,-0.8847708106040956,9.712653160095217,0.0029885417316108946,-0.01280798390507698,-0.01329892873764038
4.162455081939698,-0.8604122400283813,9.693778038024904,0.0022770317737013106,-0.01391272246837616,-0.012376605533063413
4.187291622161866,-0.8820486068725586,9.69479751586914,0.004489350598305465,-0.010493689216673376,-0.012591838836669922
4.170707225799561,-0.8799666762351991,9.693488121032717,0.005812276154756546,-0.009016443975269796,-0.01457894779741764
4.167217731475831,-0.8586337566375732,9.710023880004883,0.006499970331788063,-0.008351500146090986,-0.012869064696133138
4.17104196548462,-0.8771156668663026,9.680088996887209,0.005685688927769661,-0.006899192463606597,-0.014499444514513016
4.142311096191406,-0.8787362575531006,9.682975769042969,0.006857846863567829,-0.007533877156674862,-0.01155413966625929
4.146479606628418,-0.8628864884376527,9.686708450317383,0.007851595059037209,-0.0087030241265893,-0.014184106141328812
4.124845981597901,-0.8947924375534058,9.687594413757326,0.00648951530456543,-0.009799993596971037,-0.013877659104764463
4.14007329940796,-0.8711122870445253,9.712425231933594,0.005276338197290897,-0.010384782217442991,-0.01484687626361847
4.148180961608887,-0.8703253865242006,9.722790718078615,0.005924672819674015,-0.01104830764234066,-0.014342886395752432
4.166778087615968,-0.8630678653717041,9.723752975463867,0.005525013897567988,-0.01053217239677906,-0.014111765660345556
4.177343368530273,-0.8544357419013978,9.70737075805664,0.003890832420438528,-0.011001066304743292,-0.011347635649144651
4.186810016632081,-0.867120623588562,9.67825698852539,0.0030003788415342574,-0.008044863119721413,-0.012146464549005033
4.178670406341554,-0.855181634426117,9.658453941345217,0.003444710746407509,-0.007784931920468807,-0.011931792832911016
4.1606340408325195,-0.8905286192893983,9.690244674682617,0.004614948760718108,-0.006219438277184963,-0.010388714261353018
4.146772861480714,-0.8796505331993104,9.715961456298828,0.0028107503894716506,-0.0067156217992305756,-0.011342886835336685
4.151064395904542,-0.8793726563453675,9.723016738891602,0.0023017465136945248,-0.006770386826246978,-0.010280771180987358
4.153417110443116,-0.8737330436706543,9.71109390258789,0.00403821049258113,-0.008467196486890318,-0.012270485982298851
4.139837265014648,-0.8930562734603882,9.69724750518799,0.004715880844742061,-0.007890144363045692,-0.011416987515985967
4.153925895690918,-0.8913000822067261,9.687623977661133,0.0048650200478732595,-0.00970030389726162,-0.013408448547124863
4.1798768043518075,-0.8564682006835938,9.714944839477539,0.004705164581537247,-0.009500634856522085,-0.013483550399541855
4.175730228424073,-0.8586353659629823,9.710690498352053,0.003099045716226101,-0.00867220014333725,-0.01308300066739321
4.165275096893311,-0.8653627634048462,9.66155529022217,0.004986946936696769,-0.005798238329589367,-0.011146652512252333
4.183890342712402,-0.8614168167114258,9.68118190765381,0.007071203086525203,-0.005357651039958,-0.011076327413320541
4.170047760009766,-0.8318599462509155,9.668731689453125,0.0062478529289364815,-0.0020881576929241423,-0.00974649004638195
4.155656814575195,-0.8846116065979004,9.698799133300781,0.005388361867517234,-0.001943215378560126,-0.00946134515106678
4.162990093231202,-0.8717430830001831,9.657937049865724,0.005698204040527344,-0.00499218748882413,-0.010477099567651749
4.175273895263672,-0.8672330379486084,9.684788703918459,0.007137157954275608,-0.003990740049630404,-0.010460411198437216
4.130956172943116,-0.8665648698806763,9.683099746704102,0.008134759962558746,-0.004833517130464316,-0.013979503884911537
4.150476932525636,-0.894689679145813,9.673690795898438,0.008071161806583405,-0.005915619432926178,-0.015596787445247175
4.145211696624757,-0.8519427180290223,9.674761772155763,0.009520406834781172,-0.00399585347622633,-0.0134044261649251
4.154658794403077,-0.8363335728645326,9.652692794799805,0.009248215705156326,-0.006494303699582816,-0.012910145334899427
4.179579734802246,-0.833570420742035,9.700585365295412,0.0065963282249867925,-0.004626112058758736,-0.01209282595664263
4.171042919158936,-0.8464705944061279,9.700847625732422,0.005765506066381931,-0.0038224104791879654,-0.012816247530281545
4.152647495269776,-0.855082929134369,9.723152160644531,0.005693539511412383,-0.00633187685161829,-0.010803957469761373
4.167291164398194,-0.8517158031463623,9.732915878295898,0.005016606766730548,-0.00431097112596035,-0.011415272951126099
4.144705295562745,-0.8351982831954956,9.695493698120117,0.005976701155304909,-0.005338675808161498,-0.011028625071048737
4.118720054626465,-0.8805477023124696,9.689152717590334,0.005093026440590621,-0.0063549219630658635,-0.011730670928955078
4.142902374267578,-0.8478668928146362,9.644792556762695,0.005439972039312125,-0.006764059886336327,-0.014190821908414366
4.1461148262023935,-0.8225101828575135,9.710534095764162,0.006640845909714699,-0.010212500579655172,-0.013986888341605665
4.138605117797852,-0.8488900661468506,9.734488487243654,0.0026721954345703125,-0.010356671176850797,-0.012982040643692017
4.172662734985352,-0.8315007090568544,9.719636917114258,0.0005424389382824302,-0.011912113055586815,-0.01417392771691084
4.16352653503418,-0.8389310836791992,9.70457649230957,0.0019590621814131737,-0.01202130410820246,-0.009286405518651009
4.176847934722901,-0.8434656262397767,9.697035789489748,0.0010372649412602186,-0.010881957598030569,-0.011244258843362333
4.168735027313233,-0.8668416738510132,9.668313980102539,0.0014483974082395437,-0.01119953952729702,-0.009240356273949148
4.180699348449707,-0.875300407409668,9.684762954711914,0.0019252789206802845,-0.008775221183896065,-0.008720467798411848
4.162287712097168,-0.8554658293724061,9.695196151733398,0.004926317371428013,-0.006837428081780673,-0.009704746305942535
4.156955718994141,-0.8431507349014282,9.709859848022461,0.006353508215397597,-0.0053182728588581085,-0.01156449131667614
4.165268898010254,-0.8766576647758485,9.697340965270998,0.0056736557744443425,-0.006284848786890507,-0.010904013179242613
4.137197017669679,-0.870668888092041,9.699521064758303,0.005265384912490845,-0.0047406964004039764,-0.01056306902319193
4.132791519165039,-0.8865121603012085,9.706266403198242,0.007597633171826602,-0.0046310145407915115,-0.012534509412944319
4.164664268493652,-0.8601609468460083,9.71082401275635,0.008761310018599035,-0.00333237973973155,-0.013764102011919022
4.154623985290527,-0.8281983733177186,9.698007583618164,0.007307787425816059,-0.00557392230257392,-0.013726631179451942
4.164780139923097,-0.841826319694519,9.7034387588501,0.00724895391613245,-0.0033568423241376877,-0.012493348680436613
4.15374517440796,-0.8395597338676454,9.71565914154053,0.006134709808975459,-0.00464983657002449,-0.01235210243612528
4.143000602722168,-0.8394854664802552,9.696526527404787,0.00446960935369134,-0.0034997500479221344,-0.012908633798360825
4.150598526000977,-0.8414185047149658,9.736276626586914,0.004318629391491413,-0.004099916201084853,-0.01304301992058754
4.164742469787598,-0.8347011804580688,9.73237419128418,0.004843579605221748,-0.00805848278105259,-0.009873650036752226
4.178945064544679,-0.8298468589782715,9.685510635375977,0.002476127585396171,-0.0037545799277722836,-0.009441037662327291
4.162308216094972,-0.8528902530670166,9.696551322937013,0.002516444306820631,-0.002617235062643886,-0.00783273857086897
4.16967535018921,-0.8365238904953003,9.69713020324707,0.004030482377856971,-0.003775594290345907,-0.007843847386538984
4.149556636810304,-0.8524127602577211,9.68848991394043,0.0021926630288362503,-0.0011594663374125957,-0.006451530847698451
4.15177059173584,-0.8556321859359741,9.722193717956545,0.0027025649324059486,0.002499549882486463,-0.007487282156944275
4.142631530761719,-0.8529523611068726,9.732131004333498,0.0026642465963959694,0.0022927701938897376,-0.005674558226019145
4.131159305572511,-0.8662771582603456,9.722503662109375,0.002387837041169405,-0.0004535758926067502,-0.0088431928306818
4.159680843353272,-0.8362267017364502,9.733255386352539,0.002391579328104854,-0.00019369904475752267,-0.008021464571356773
4.1572265625,-0.8201162219047547,9.713376998901367,0.0010989804286509752,-0.00030273609445430344,-0.004609047435224056
4.154446601867676,-0.8312832117080688,9.703845024108888,0.0015664920210838318,0.003135366598144174,-0.003103081835433841
4.130269527435304,-0.835995376110077,9.703636169433594,5.694407082046383e-05,0.0031091435812413692,-0.0036507418844848876
4.1244049072265625,-0.8319222927093506,9.714747428894045,-0.0014653520192950964,0.002276191022247076,-0.003316162852570415
4.102649211883546,-0.8482543826103212,9.727952003479006,-0.0014357311883941295,0.0032396153546869755,-0.003512119641527534
4.146118640899659,-0.8459428548812866,9.727217674255373,-0.0008998642442747951,0.0032519546803087,0.00046507685328833764
4.108462333679199,-0.8501368761062622,9.709721565246584,-0.004957155324518681,-0.00034822427551262086,-0.0008230089442804456
4.108871936798097,-0.8551722764968872,9.740194320678711,-0.0030805652495473628,-0.0006129836547188462,-0.001598588889464736
4.145043849945069,-0.8486945033073426,9.70662021636963,-0.0038808218669146304,-0.0011590651702135801,0.000551820790860802
4.118645668029785,-0.8522754907608032,9.695740699768068,-0.00501828407868743,-0.0022886311635375023,-0.0008426919812336564
4.159287452697754,-0.8677226901054383,9.68575954437256,-0.00411040335893631,0.0011728660902008416,-0.0018393308855593204
4.1572771072387695,-0.8405025005340576,9.706627845764162,-0.001951499842107296,0.004301845096051693,9.83322479441995e-06
4.112720489501953,-0.8896322250366211,9.704124450683594,0.00027407240122556686,0.006619898136705161,0.0010086474940180779
4.062978744506836,-0.8938219547271729,9.689799308776857,0.0010850160615518691,0.005040857940912247,-0.002005917951464653
4.08304500579834,-0.8799029588699341,9.711411476135256,0.00281878630630672,0.002347840927541256,-0.0036267612595111136
4.121408939361573,-0.8433289527893066,9.73058605194092,0.002377483993768692,0.0018583645578473806,-0.0058353287167847165
4.111871719360352,-0.8290668725967407,9.71404552459717,0.0006063767359592022,-0.0002497549867257476,-0.0023526067379862074
4.111704349517823,-0.8604848980903627,9.715911865234375,0.00021619324979837987,-0.0011736848391592503,-0.0019082187209278345
4.098514080047608,-0.8543938994407655,9.721586227416992,-0.0009455535910092295,-0.0005489795003086329,-0.0031474244315177207
4.083603858947754,-0.8503603935241699,9.706762313842773,0.0006032671080902219,-0.0005928159225732088,-0.0031240077223628764
4.066239356994629,-0.8449287414550781,9.746775627136232,-0.0029559051617980003,-0.0046346145682036885,-0.004871767945587635
4.127209186553956,-0.8446328639984131,9.70994281768799,-0.0029345345683395863,-0.007096016313880683,-0.006301785353571177
4.117971420288086,-0.8093503713607788,9.744686126708984,-0.001994262216612697,-0.007629432715475559,-0.003679990535601974
4.133410453796387,-0.8375470638275146,9.717802047729492,-0.0053474921733140945,-0.004955656826496124,-0.004360288847237826
4.123460292816163,-0.8453605771064759,9.708793640136719,-0.006169152446091175,-0.006283888127654792,-0.001733096782118082
4.112232208251953,-0.8641664385795594,9.701224327087404,-0.00393034564331174,-0.0063557252287864685,-0.003588499967008829
4.121846675872804,-0.8733548521995546,9.718272209167482,-0.0038900538347661495,-0.005498938728123904,-0.004033769480884075
4.089495182037354,-0.88194078207016,9.697316169738771,-0.0016151373274624348,-0.0055188024416565895,-0.004342300351709128
4.099593162536621,-0.846893310546875,9.701096534729006,-0.0017894612392410638,-0.00426478311419487,-0.004992558155208827
4.097795486450195,-0.9142051935195923,9.681982040405273,-0.0010825771605595948,-0.004631456919014454,-0.006239830516278744
4.130702018737793,-0.8356387615203857,9.742536544799805,0.00046647374983876944,-0.004129038657993079,-0.004581688903272152
4.1160173416137695,-0.8190830945968628,9.739750862121584,-0.003961807116866112,-0.003435476217418909,-0.002850405173376203
4.156877040863038,-0.84153151512146,9.69137191772461,-0.004832067526876926,-0.0016406759386882188,0.0011306272353976965
4.202776908874512,-0.7492588758468628,9.636798858642578,0.0008368207491002978,0.009081613272428513,0.003514622338116169
4.1779937744140625,-0.7409653067588807,9.659822463989258,0.005001370329409839,0.025573909282684326,0.008643566630780699
4.181152820587159,-0.8165982961654663,9.620467185974123,0.004405648447573185,0.038312748074531555,0.014244389720261099
4.242131233215332,-0.8773236274719238,9.589179992675781,0.010223400779068472,0.05789570510387421,0.018419725820422176
4.287255764007569,-0.8133651614189149,9.701979637145998,0.017100535333156586,0.07718049734830858,0.026517061516642574
4.396373748779297,-0.8558892607688905,9.726655960083008,0.025165371596813202,0.0991254970431328,0.04009133577346802
4.434264183044434,-0.705350697040558,9.728743553161623,0.03362366557121277,0.13026264309883118,0.059113230556249625
4.437674045562745,-0.5805691480636597,9.677591323852539,0.03631756454706192,0.1676565855741501,0.0851953774690628
3.9656541347503667,-1.0291446447372439,9.40111827850342,0.04449893534183502,0.19567181169986728,0.10191797465085985
3.346528291702271,-1.5806442499160769,9.785365104675295,0.054194219410419464,0.1697606593370438,0.06513302028179169
3.977586269378662,-1.0478928089141846,9.811276435852053,0.07279132306575775,0.14361417293548584,0.020285347476601604
4.090929508209229,-0.6838562488555908,9.831749916076662,0.06641098111867906,0.14881497621536255,0.026410399004817012
4.046986103057862,-0.859112024307251,9.849768638610842,0.06202786043286324,0.14916753768920898,0.03552498668432236
3.8529553413391113,-0.9295740723609925,10.007556915283203,0.06698546558618547,0.14026129245758057,0.032078776508569724
3.743866443634033,-0.9176135659217836,10.028810501098633,0.06893726438283922,0.11036463826894762,0.01803550124168396
3.7598023414611816,-1.1741875410079958,9.923749923706055,0.07229477912187578,0.08961403369903564,0.001148775569163263
3.708269357681275,-0.76100754737854,9.971988677978516,0.07454153150320054,0.07211707532405853,-0.02062569186091423
3.808010339736939,-0.8005133271217347,10.004475593566896,0.056037984788417816,0.026366816833615307,-0.04773815721273422
4.053638935089112,-0.6490848064422607,9.94641971588135,0.05626171454787255,0.01312797423452139,-0.05293481796979904
3.9663865566253667,-0.6567206382751465,9.94498920440674,0.045023117214441306,0.021603479981422424,-0.03303483501076699
3.8428838253021245,-0.8106977939605713,9.87659549713135,0.04130877181887627,0.017789162695407867,-0.027971696108579636
3.8124573230743413,-0.6691223382949829,9.847253799438477,0.03304244577884674,0.0060053844936192044,-0.023387659341096878
3.8460218906402592,-0.6405463218688965,9.804601669311523,0.021841643378138546,0.000834912236314267,-0.019375484436750412
3.848395347595215,-0.6583403944969178,9.812185287475586,0.006321921478956939,-0.0038874996826052666,-0.009937082417309286
3.858484029769898,-0.8234817981719971,9.762022018432617,0.0002869450545404107,-0.007748730480670929,-0.007731499150395393
3.7617359161376953,-1.0600359439849854,9.70601558685303,0.009716205298900604,-0.011934486217796804,-0.015410318970680237
3.829222917556763,-0.8787623643875122,9.706119537353516,0.016932249069213867,-0.016224734485149384,-0.028441438451409343
3.602734088897705,-0.8322023749351503,9.538661003112795,0.017167979851365093,-0.020997948944568634,-0.03260850533843041
3.78450345993042,-0.9688917398452759,9.730247497558594,0.017189186066389084,-0.03466323390603066,-0.044886399060487754
4.06374454498291,-0.8492242097854614,9.657962799072266,0.02788437530398369,-0.022825492545962337,-0.0436372235417366
3.5355975627899174,-0.9913227558135986,9.630507469177248,0.02798169665038586,-0.02689786441624165,-0.04796246439218521
3.8566994667053223,-0.9664096832275391,9.726635932922365,0.04244842007756234,-0.04323852062225342,-0.07201055437326433
3.969602108001709,-0.6821370124816895,9.873513221740724,0.04872479662299157,-0.04152991622686386,-0.07703571021556854
4.051642894744874,-0.520731270313263,9.800260543823242,0.03734367713332177,-0.03682703524827957,-0.05929020419716836
3.755019187927246,-0.3625493049621582,9.887006759643555,0.004736756905913353,-0.051509082317352295,-0.03811537846922875
3.9561619758605957,-0.36411458253860474,10.049668312072756,-0.039568517357110984,-0.07897232472896576,-0.01818640343844891
3.554030418395996,-0.7606451511383057,9.651914596557617,-0.06805682927370073,-0.099558025598526,-0.012728804722428322
3.5769710540771484,-0.589789628982544,9.863561630249023,-0.09220890700817108,-0.14108811318874362,-0.02768867090344429
3.9033141136169434,-0.6870990991592407,9.925557136535646,-0.12216435372829437,-0.16940432786941528,-0.0255057979375124
3.4424555301666264,-1.2164430618286133,9.538257598876953,-0.12647180259227755,-0.17922493815422058,-0.04517785087227822
3.4033751487731934,-0.9892469048500062,9.89483165740967,-0.12762489914894104,-0.2218941003084183,-0.09351304918527605
4.244789123535156,-0.7746744155883789,9.820250511169435,-0.11952976137399675,-0.23879969120025635,-0.10301340371370317
3.9291701316833496,-0.9272231459617616,9.57505989074707,-0.0923617109656334,-0.23316289484500888,-0.10151581466197968
3.5812325477600098,-0.8655608892440796,10.017479896545412,-0.06699366122484209,-0.2688472270965576,-0.12084121257066728
3.882562875747681,-1.0493292808532715,9.933884620666506,-0.05102548003196716,-0.3141405880451203,-0.15364675223827365
4.010219573974609,-0.6833127737045288,9.93208122253418,-0.04417123645544052,-0.3521451056003571,-0.1783757209777832
4.046058654785156,-0.36387497186660767,9.835175514221193,-0.05993430688977242,-0.3893592059612275,-0.1691066324710846
3.9656369686126713,-0.35574772953987127,10.08211421966553,-0.07831106334924699,-0.4591871500015259,-0.15100644528865817
3.657178163528443,-1.1093690395355225,9.95916748046875,-0.06335730105638505,-0.5272475481033325,-0.16628190875053406
3.4563243389129643,-1.1383554935455322,10.085022926330568,-0.029929192736744884,-0.6269556283950806,-0.23488743603229525
4.147549629211426,-0.5238129496574403,10.181553840637209,-0.015570552088320257,-0.7425617575645448,-0.261009156703949
3.909607410430908,-0.7992732524871826,10.045950889587404,-0.01177453063428402,-0.8482859730720521,-0.24106764793395996
3.3570871353149414,-1.125014066696167,10.241045951843263,0.009658276103436949,-1.0139951705932617,-0.24190667271614075
3.5970838069915776,-1.047960162162781,10.411509513854982,0.02489612251520157,-1.2411674261093142,-0.2126280665397644
3.3834009170532227,-0.4510892629623413,10.453968048095703,0.02265608869493008,-1.5085326433181765,-0.15753304958343506
3.497118711471558,-0.1222708895802498,10.663471221923828,-0.0335327871143818,-1.7910139560699463,-0.12155298143625261
3.4819929599761967,-0.11763227730989458,10.57714366912842,-0.0875687673687935,-2.073742389678955,-0.1044028252363205
3.624367952346802,0.345975399017334,10.724894523620607,-0.12111211568117143,-2.3917641639709473,-0.1091573014855385
4.114811897277832,0.09094084799289703,10.34890365600586,-0.18108853697776794,-2.651764392852783,-0.13478149473667148
4.237886428833008,-0.704369306564331,10.441621780395508,-0.2141913026571274,-2.8915205001831055,-0.17223052680492404
4.240355014801026,-0.8289220333099365,10.341868400573732,-0.18921726942062378,-3.1660578250885014,-0.20229147374629977
3.595583438873291,-1.6949481964111328,9.334858894348146,0.019733315333724025,-3.533447742462158,-0.27106776833534246
4.170862674713136,-2.6431403160095215,9.097248077392578,0.4391428232192993,-4.106470108032227,-0.41555646061897283
5.329732418060304,-2.501115322113037,9.940017700195312,0.7381933927536011,-4.680863857269288,-0.49197202920913696
7.245742321014405,-2.4047694206237793,11.496021270751953,0.8715465664863588,-5.160239219665527,-0.49522697925567627
10.471426963806154,-3.714291572570801,13.711751937866211,0.8633021712303163,-5.2813520431518555,-0.43777832388877874
13.590567588806154,-5.736809730529785,14.148670196533203,1.0702643394470215,-5.147724151611328,-0.5769324898719789
17.958438873291016,-6.356341838836671,15.229244232177734,1.7754392623901367,-4.937337398529054,-0.9294002056121826
27.624273300170902,-2.3713555335998535,15.744763374328615,2.2044560909271245,-4.516781806945801,-1.189591884613037
30.45840072631836,-1.5012660026550293,9.92356586456299,2.2480909824371342,-4.124451637268066,-1.528581738471985
32.67945098876953,-2.9038202762603764,5.329693794250488,2.795366525650025,-4.053665637969972,-2.016476631164551
34.52133560180665,-0.9423301815986634,6.983127117156983,3.664210796356201,-3.776624441146851,-2.0841002464294434
36.06535339355469,10.804571151733398,10.216365814208984,2.9961407184600835,-3.602069854736328,-2.035743236541748
43.451499938964844,7.174674510955811,23.262033462524418,0.7535250782966615,-2.558183193206787,-1.910163998603821
29.25668525695801,2.408374309539795,18.63470268249512,-0.938300371170044,-1.2657034397125244,-1.36009418964386
23.14336395263672,-2.2382822036743164,14.380489349365234,-2.0337882041931152,-1.0125726461410525,-0.8807786703109741
17.664825439453125,-8.64508056640625,11.788403511047365,-1.8446782827377322,-0.910727858543396,-0.49773603677749634
12.429065704345703,-11.855481147766115,9.84251117706299,-0.5110568404197694,-1.0568277835845947,-0.33329561352729803
10.974738121032717,-9.521652221679688,11.350918769836428,1.0427318811416628,-1.1695572137832644,-0.27036845684051514
9.963488578796388,-3.798803091049195,14.508161544799805,1.7015869617462158,-0.9010385870933534,-0.07033835351467133
7.750446319580078,0.40450200438499456,15.97049331665039,1.415314555168152,-0.24081382155418396,0.16561612486839294
3.1406252384185795,1.0683856010437012,13.797570228576662,0.7608886957168579,0.5725279450416566,0.23678871989250183
-1.8273093700408936,-0.06407150626182556,9.303139686584474,0.3635990917682648,1.0870505571365359,0.14936202764511108
-6.187978267669679,-1.417368531227112,4.976533889770508,0.4148078858852387,1.1556525230407715,-0.02779815904796124
-8.197710037231445,-1.4089622497558594,3.552104711532593,0.6299911737442017,0.9873710274696351,-0.16003261506557467
-7.7723388671875,-0.6849762201309204,5.645453929901124,0.5701167583465576,0.9453942179679872,-0.12904861569404602
-6.403822898864746,-1.41703200340271,8.181493759155273,0.33112761378288275,1.315972447395325,0.03822142630815506
-7.419034004211426,-3.331075668334961,7.553863525390625,0.25320556759834295,1.9730770587921143,0.24731068313121798
-10.462145805358888,-2.771474123001099,3.7772293090820312,0.27625763416290283,2.4072639942169194,0.40451607108116155
-12.347187042236328,-1.1862598657608034,0.3226886689662934,0.07406661659479143,2.412123680114746,0.5287107825279237
-12.112561225891115,-0.6493417024612427,-0.5264089107513428,-0.31302446126937866,2.2264389991760254,0.6554757952690126
-10.137423515319826,-1.7227185964584353,1.070157766342163,-0.6241347789764404,2.1706073284149174,0.7947148084640503
-8.286989212036133,-2.74734377861023,2.592377185821533,-0.6912527084350586,2.4183895587921147,0.9557747244834901
-7.7991347312927255,-2.185349941253662,2.016592025756836,-0.645034909248352,2.771302938461304,1.1067824363708496
-7.585574150085449,-1.041893720626831,0.6777482628822328,-0.7074600458145142,3.015450954437256,1.2678505182266238
-6.74962043762207,-0.9738224148750306,-0.26727446913719183,-0.811428427696228,3.154969453811646,1.424079179763794
-5.452918529510499,-1.011322259902954,-0.40392848849296575,-0.8145273923873901,3.255388975143433,1.5792390108108523
-4.070932865142823,-0.1785658299922943,-0.36272960901260376,-0.7811384201049805,3.36009955406189,1.7286064624786377
-2.748663187026978,1.4970859289169314,-0.3830574452877045,-0.8028354644775391,3.433502197265625,1.8268033266067507
-1.2753748893737793,3.6602697372436523,-0.3898750245571137,-0.9065225124359131,3.4529745578765874,1.8108835220336914
1.0838621854782107,5.109246253967285,0.7365522980690004,-1.0368001461029053,3.4043700695037846,1.589607119560242
5.216641902923585,5.913867950439453,3.664924144744873,-1.1326059103012087,3.4968395233154297,1.2150968313217165
8.402862548828125,5.598913192749023,4.592846870422363,-1.0417906045913699,3.814438104629517,0.6919329166412354
10.23529052734375,4.906836986541749,3.5789151191711426,-0.7790901064872743,4.020515441894531,0.14359171688556674
12.257493019104006,4.142753124237061,2.852416515350342,-0.5357548594474794,3.9762730598449707,-0.22597429156303406
14.021696090698242,2.6405923366546635,2.514444351196289,-0.3020327091217041,3.815679788589478,-0.35005903244018555
15.543047904968263,1.4795602560043337,2.083330392837525,-0.06079534441232681,3.538788318634033,-0.22755627334117892
16.595260620117188,1.2631720304489138,1.0481933355331423,0.12707631289958957,3.108696937561035,0.09304324537515642
16.875900268554688,0.9130473732948304,-0.21605533361434937,0.24277639389038086,2.502982378005982,0.5058513283729554
15.403843879699709,0.9234710931777954,-2.7660446166992188,0.42752364277839666,1.7577152252197266,0.9042758345603944
12.25010871887207,1.6498497724533083,-5.341695785522461,0.6045886874198915,0.7580503821372987,1.197056531906128
10.307760238647461,1.0271981954574587,-6.157020568847656,0.8467035293579102,-0.35413399338722235,1.397798776626587
11.036376953125,2.5893006324768066,-3.343050479888916,1.1480964422225954,-1.3134088516235352,1.5580999851226807
120.0985107421875,36.3270606994629,73.98906707763673,-4.073058128356934,-3.3599388599395756,2.552030086517334
-7.129683017730714,3.9579405784606934,-24.883234024047855,-1.0822396278381348,5.22707462310791,0.29016938805580145
14.00381374359131,-12.030985832214357,17.612806320190433,-0.41658639907836914,2.5959198474884038,1.1264967918395996
-13.830639839172365,-12.298010826110842,8.646995544433594,0.009308655746281149,1.9132475852966309,0.8229845762252808
-7.0098328590393075,-2.5812313556671147,14.729517936706545,0.050452049821615226,0.3698422312736511,-0.06163251772522927
0.6184917092323304,-6.583904266357422,12.5606164932251,0.15947289764881137,-0.4101588428020478,-0.8444147109985352
4.469210147857667,-0.3751298189163208,10.661818504333498,0.16149918735027316,-0.5447330474853516,-0.6729446053504945
9.365297317504883,6.790692329406738,9.199525833129883,0.009896061383187773,-0.4061046242713928,-0.3103542923927307
9.273004531860352,0.5195174217224121,7.436644077301026,-0.12546469271183017,0.0380142405629158,0.020606962963938717
6.672409534454347,-1.424565076828003,8.12161159515381,-0.05547184124588967,0.4329728782176972,0.15113958716392517
4.795725345611573,-1.9847404956817627,9.209405899047852,0.03455638885498047,0.5938760638237001,0.11682437360286713
3.4743595123291016,-1.9015239477157595,9.79446792602539,0.09096579253673553,0.5466163754463197,0.04623306170105935
4.07923460006714,-0.46006065607070923,10.276936531066896,0.07277298718690874,0.4773356318473816,0.04447733238339425
4.121899604797363,0.2164070159196854,10.074722290039062,-0.004933455027639866,0.40271198749542236,0.11152570694684984
4.007262229919434,-0.1015976071357727,10.081361770629883,-0.07335180044174194,0.3372806608676911,0.15959811210632324
3.736762523651123,-1.262953281402588,10.042577743530273,-0.08548219501972198,0.26748612523078924,0.15934078395366671
3.0841438770294194,-1.6071913242340088,10.137266159057617,-0.0699920877814293,0.13854271173477173,0.09533732384443284
3.424966812133789,-1.4203805923461914,10.116896629333498,-0.05608256533741952,0.024774426594376567,0.029059838503599167
4.107413768768311,-0.8316419124603271,9.972002029418945,-0.060391247272491455,-0.03556348755955697,0.01951209083199501
4.314516544342042,-0.8686327934265137,9.713815689086914,-0.07339841872453691,-0.05242118984460831,0.03559671342372894
4.688584804534913,-0.7425937652587891,9.652240753173828,-0.08695232123136522,-0.041940100491046906,0.053708229213953025
4.435591697692871,-0.8321961164474487,9.70349979400635,-0.10009921342134477,-0.019653556868433956,0.09436643123626709
4.111177444458008,-1.026482343673706,9.83995246887207,-0.11823838204145433,-0.03345942497253418,0.11120911687612535
3.953950643539429,-0.9560991525650024,9.902625083923342,-0.13852176070213318,-0.06691043823957445,0.10809520632028581
3.8368794918060307,-1.1396589279174805,9.708411216735842,-0.14334198832511902,-0.1006092354655266,0.09696491062641144
3.8741955757141113,-0.8598657250404359,9.934659004211428,-0.16443002223968506,-0.15034273266792297,0.09161842614412309
3.973875045776367,-1.2608375549316406,9.842030525207521,-0.16072767972946167,-0.18976788222789767,0.07632900774478912
4.020009994506836,-1.6386336088180544,9.607218742370607,-0.14599283039569858,-0.20872455835342407,0.05850524455308914
4.05683183670044,-1.5124393701553347,9.484999656677248,-0.11344169825315477,-0.2354862093925476,0.033733848482370384
4.191359043121339,-1.374423384666443,9.534544944763185,-0.11587225645780565,-0.24774725735187533,0.006117003969848156
4.436515331268311,-0.933080017566681,9.594227790832521,-0.11180780082941057,-0.2491309642791748,-0.0011160209542140367
4.417387962341309,-1.3423023223876953,9.396172523498537,-0.11031568795442583,-0.2246449589729309,-0.002767757046967745
4.61280632019043,-1.3244082927703857,9.36679458618164,-0.09990619122982025,-0.19381533563137057,-0.0034166681580245495
4.557633399963379,-1.6028294563293457,9.0811767578125,-0.08048544824123383,-0.15489262342453003,-0.0004927446716465057
4.478166580200195,-1.7323050498962402,9.156515121459961,-0.04364988580346108,-0.12954002618789673,-0.016350882127881054
4.569677352905273,-1.288959264755249,9.359177589416506,-0.038486715406179435,-0.10275258123874664,-0.014317184686660767
4.362669944763184,-1.175845265388489,9.313969612121584,-0.04223775118589401,-0.08513145893812181,-0.0038900640793144703
3.9380590915679936,-1.5821300745010378,9.135838508605959,-0.041935548186302185,-0.09284237027168274,-0.019411722198128704
4.0026001930236825,-1.6708716154098513,9.543716430664062,-0.044276114553213126,-0.13813278079032898,-0.040264461189508445
4.016010284423828,-1.4552518129348757,9.626113891601562,-0.032463755458593375,-0.18502700328826904,-0.07701481878757477
3.99611759185791,-1.3989527225494385,9.554939270019531,-0.03808699175715447,-0.2225775420665741,-0.10536993294954301
3.846217155456543,-1.44492769241333,9.580206871032717,-0.04908647760748864,-0.2834742963314057,-0.1374720335006714
4.262753486633301,-1.2168927192687988,9.717226028442383,-0.06252257525920868,-0.3324092328548432,-0.15782779455184937
4.34437370300293,-0.963104248046875,9.56330680847168,-0.05873773619532586,-0.35765302181243896,-0.18240255117416382
4.223152160644531,-1.1715404987335205,9.540342330932617,-0.06206449493765832,-0.3818102478981018,-0.20168329775333407
4.591287612915039,-0.6366345882415771,9.722957611083984,-0.07538042217493059,-0.42169001698493963,-0.19031083583831787
4.5571608543396005,-0.9459192752838135,9.516536712646484,-0.0899980366230011,-0.44039002060890203,-0.15077632665634155
4.55495548248291,-1.1270995140075684,9.373857498168945,-0.07722833752632141,-0.4780217111110688,-0.1363068372011185
4.801993370056152,-0.9078353047370912,9.462042808532717,-0.07326395064592363,-0.5122817754745483,-0.1274126321077347
4.747808456420898,-1.0269094705581667,9.348480224609375,-0.06674824655056,-0.5367602109909058,-0.13194747269153598
4.50831413269043,-1.0161306858062744,9.524337768554688,-0.07075752317905426,-0.5915662646293641,-0.14265871047973633
4.197861671447754,-1.1121795177459717,9.71037483215332,-0.0993834212422371,-0.6968923807144165,-0.15984994173049927
3.879899501800537,-1.1594074964523318,9.667365074157717,-0.11390945315361023,-0.8555342555046083,-0.18732982873916626
3.4744732379913335,-1.773266315460205,9.291839599609375,-0.08503036201000214,-1.0588903427124023,-0.23906020820140841
4.039301872253418,-1.7728526592254639,9.296455383300781,0.008225317113101484,-1.321418285369873,-0.29608687758445745
4.982941627502441,-0.7669458985328675,9.535861015319826,-0.005572314374148846,-1.4686163663864138,-0.30669513344764715
4.547059059143066,-1.4186491966247559,9.54712772369385,-0.06006616726517678,-1.55777907371521,-0.30333915352821356
4.04017448425293,-1.2570583820343018,9.445153236389162,-0.005668272264301777,-1.7783513069152832,-0.3595536053180695
4.821685791015625,-2.0254321098327637,10.325162887573242,0.02980988472700119,-1.9397832155227663,-0.39529484510421753
4.445727348327637,-0.7030538320541382,10.000309944152834,0.07935526221990587,-2.2144765853881836,-0.40558427572250366
5.206786632537843,-1.571056842803955,9.946760177612305,0.09071160852909088,-2.3750827312469487,-0.4693034887313843
4.558845520019531,-1.7861067056655886,9.780613899230959,0.15758164227008822,-2.6306579113006596,-0.5181460380554199
4.21446418762207,-1.7490104436874392,8.91499137878418,0.29836580157279974,-2.9890499114990234,-0.6082627177238465
4.617522239685059,-1.5298312902450564,8.680760383605959,0.4286963641643525,-3.440690040588379,-0.7080831527709961
5.167882442474366,-1.1263978481292725,8.68221664428711,0.570430099964142,-3.9561424255371094,-0.7922798991203309
5.425323963165284,-0.8209801316261293,8.626537322998047,0.6536158323287964,-4.518394470214844,-0.8096372485160829
6.944909572601319,-0.01330636441707611,9.177409172058107,0.6847119927406312,-5.061453819274902,-0.7221862673759462
8.381052970886232,0.22200508415699008,9.774950981140138,0.6577654480934144,-5.585284233093262,-0.5483204126358032
10.103365898132326,0.4069920480251313,10.669387817382812,0.5419358611106874,-5.743501663208008,-0.30552652478218084
13.135061264038086,-0.9415738582611084,11.758527755737305,0.42307746410369873,-5.587674140930176,-0.11360373347997667
15.038175582885742,-2.607218503952027,11.151817321777344,0.4691134989261628,-5.164510726928711,-0.11471690982580186
20.07305145263672,-2.209514617919922,12.223612785339357,0.4431660473346711,-4.65549373626709,-0.21466851234436035
22.30072021484375,-0.059292808175086975,10.647370338439943,-0.5170438885688783,-4.125710487365723,0.04766066744923592
22.399864196777344,-0.6535897254943848,8.252825736999513,-1.627482056617737,-3.703755140304566,0.009069152176380157
21.081579208374027,-2.5185232162475586,0.6012194156646729,-2.0564565658569336,-3.541441679000855,-0.4698721170425415
21.92038345336914,-3.48627781867981,-2.943974494934082,-1.5854895114898682,-3.92844033241272,-1.2820192575454714
21.126108169555668,-0.8079967498779297,-2.812482595443726,-0.8142083287239076,-4.3177490234375,-2.223329305648804
20.033466339111328,0.40521940588951116,-3.009070158004761,-0.32907685637474066,-4.7303833961486825,-3.0731725692749023
26.788021087646484,1.4137049913406374,-1.042041301727295,0.16122062504291537,-5.53965950012207,-3.966027975082398
31.190704345703125,0.7201171517372132,9.762557029724123,0.06466847658157349,-5.055778980255128,-4.246216297149659
24.607254028320312,0.9924259185791016,8.165442466735842,-0.35269129276275635,-4.196287631988526,-4.304404258728027
23.51927947998047,-0.7420586943626405,9.62530517578125,-0.7349464297294618,-3.563372373580933,-4.278368949890137
18.651519775390625,-3.256858110427857,8.696889877319336,-0.8518092036247255,-2.880159854888916,-4.078559398651124
15.017861366271974,-5.699763298034668,7.939216136932374,-0.5815404057502748,-2.4703164100646973,-3.791057586669922
11.414104461669922,-7.543122291564941,7.590303897857667,0.04538305103778839,-2.1797106266021733,-3.4656248092651367
8.584798812866211,-7.963213920593262,7.562032699584961,0.7779937386512757,-2.0085332393646245,-3.1098341941833496
6.232430458068848,-7.451064586639405,7.982439517974854,1.4264141321182253,-1.835463047027588,-2.7238142490386967
4.067304611206055,-6.56218147277832,8.479166030883789,1.8355587720870974,-1.646242380142212,-2.2529044151306152
2.628866672515869,-5.645068645477296,9.228612899780273,2.016411781311035,-1.398623585700989,-1.752223014831543
2.0492441654205327,-4.569892883300781,10.889091491699219,1.9415626525878906,-1.0059895515441895,-1.2079526185989382
2.5008542537689213,-3.1834397315979004,12.90193843841553,1.542694330215454,-0.30903044342994695,-0.5850642919540405
2.5247285366058354,-2.681569337844849,14.450154304504396,0.9598369598388672,0.6534104943275453,0.03457921370863915
3.191536188125611,-2.7918226718902592,15.683884620666506,0.3698712289333344,1.7191352844238281,0.5862414240837098
2.3553104400634766,-3.3751373291015625,14.612287521362305,-0.032064799219369895,2.8463556766510014,1.0298817157745361
-1.2142879962921143,-4.493545055389405,11.09884548187256,-0.05329611897468567,3.705053567886353,1.2813127040863037
-4.849645614624023,-3.7218348979949956,7.244270324707031,0.11935413628816606,4.0284833908081055,1.4052445888519287
-6.824800491333008,-2.1904067993164062,4.342947006225586,0.24635766446590426,3.9396557807922363,1.5248011350631716
-7.118927955627441,-0.8168271183967591,3.170865058898926,0.19313502311706543,3.6128358840942383,1.7067822217941286
-5.423769950866699,0.026378296315670013,4.205307483673097,0.012864428572356703,3.310128688812256,1.8751300573349001
-2.815160989761353,0.33719950914382935,6.086266040802003,-0.23412147164344788,3.3082916736602788,1.9967840909957888
-1.5736809968948366,-0.032956257462501526,7.247025012969972,-0.422515869140625,3.5901520252227788,2.045743465423584
-1.5255520343780518,0.14177528023719788,7.419121742248535,-0.5126856565475464,3.925826072692871,2.0188224315643315
-1.4033927917480469,0.6721374392509462,7.096643447875977,-0.5829270482063295,4.228479385375977,1.9359298944473269
-1.0643042325973513,0.8390671014785767,6.803742408752441,-0.6779937744140625,4.443453311920167,1.8110767602920534
0.14419019222259521,0.8567768335342407,7.173223018646241,-0.7962248921394349,4.627195358276367,1.6823331117630007
1.6192231178283691,0.5731492042541504,7.83274793624878,-0.8961958885192871,4.851113319396973,1.5678428411483767
2.598341941833496,0.5827744007110596,7.966464042663574,-0.9452563524246216,5.109117984771729,1.467681884765625
2.868548154830933,0.7231449484825135,7.567182540893555,-0.9954289793968202,5.294249534606934,1.3764886856079102
3.2936165332794194,0.8156955242156982,7.40077018737793,-1.0842797756195068,5.337905406951905,1.293196678161621
4.676094055175781,0.9334367513656616,8.139820098876953,-1.2098447084426882,5.298913478851319,1.2561216354370117
6.300872325897218,0.8088178038597108,9.23476791381836,-1.329843282699585,5.291975498199464,1.2399702072143555
7.990317821502686,0.6695072054862977,10.140985488891602,-1.3847947120666504,5.347808361053468,1.211496710777283
9.25087642669678,0.9817702770233154,10.387407302856445,-1.3870792388916016,5.388359546661378,1.136841058731079
10.408987045288086,1.5621376037597656,10.39207649230957,-1.4144099950790407,5.360245227813722,1.0082616806030273
11.367428779602053,2.3784236907958984,10.148518562316896,-1.4712439775466921,5.225396156311035,0.8410567641258241
12.375905036926271,3.555072784423828,9.962979316711428,-1.5935384035110476,4.9689130783081055,0.5993170738220215
14.039921760559084,4.602555751800538,10.314282417297365,-1.806469202041626,4.658161640167237,0.29192644357681274
15.734101295471193,5.635022640228272,11.502541542053224,-2.0936815738677983,4.361854076385499,-0.05994307994842529
17.462987899780277,6.762938022613526,13.200214385986328,-2.446709632873535,4.152593135833741,-0.46649646759033203
19.125141143798828,8.234081268310547,13.638947486877443,-2.9146971702575684,4.078354358673097,-0.9541530013084413
20.016109466552734,9.523645401000977,12.145436286926271,-3.4647686481475835,3.981898307800293,-1.4661210775375368
19.39636993408203,10.189531326293945,9.798535346984865,-3.930539131164551,3.7503042221069336,-2.0209777355194096
18.407886505126953,11.424326896667482,7.786414623260499,-4.215043067932129,3.3665134906768803,-2.6325721740722656
18.6468505859375,13.487158775329592,7.0704240798950195,-4.513995647430421,2.9404921531677246,-3.2059717178344727
20.03424835205078,14.035227775573732,6.884647846221925,-4.8075928688049325,2.6509203910827637,-3.6567542552948002
20.337154388427734,13.192893981933594,5.337792873382569,-4.839293956756593,2.504395723342896,-3.9615793228149414
18.585157394409183,11.70706081390381,2.409264087677002,-4.502471923828125,2.29150938987732,-4.116560935974121
16.849319458007812,8.924324035644531,-0.24332305788993835,-3.7955090999603276,1.8673796653747559,-4.149977684020996
15.988374710083008,6.707369327545167,-1.9062029123306277,-2.852169990539551,1.292392134666443,-4.070018768310547
15.682330131530763,5.846110820770265,-2.8881208896636967,-2.0580041408538823,0.6978206038475038,-3.849771499633789
14.095660209655763,-1.409996747970581,-2.4526460170745854,-1.3112142086029053,0.12194163352251054,-3.4424915313720703
16.733400344848636,-8.77468490600586,-5.3042449951171875,3.1408388614654545,-0.7398731708526611,-3.482217788696289
16.742433547973636,0.13762202858924866,12.63798236846924,3.999141216278076,-0.46555510163307195,-3.259481430053711
20.035743713378906,-19.681594848632812,25.495635986328125,4.04853630065918,0.2411443293094635,-1.723260283470154
1.2651302814483643,-0.5672671794891357,10.994851112365724,1.2794073820114138,0.6225680112838745,-0.3020565211772919
0.1506936699151993,3.211422681808472,10.087778091430664,1.4028118848800661,-0.7103157043457031,-0.5783629417419434
9.838424682617188,15.348521232604982,17.886978149414062,0.8056448101997377,-0.28479325771331787,-0.6126847863197328
6.046971797943116,3.02410888671875,10.684455871582031,0.5260691046714784,0.03402608260512353,-0.4159807562828064
3.9270751476287846,2.422861814498902,11.452764511108398,0.44886595010757446,-0.08708741515874864,-0.17234793305397034
2.9238817691802983,2.5618438720703125,10.617305755615234,0.19735413789749146,-0.10753414779901506,-0.17860282957553866
4.232263088226319,0.2882672250270844,9.709519386291506,0.13553021848201754,-0.18560415506362915,-0.19552950561046603
5.589911937713624,0.03198426961898804,9.884538650512695,0.08802680671215057,-0.045962341129779816,-0.12529300153255465
4.398113250732422,-0.38193637132644653,9.758886337280273,0.07894737273454668,0.06427368521690369,-0.09118083864450456
4.135709762573242,-1.6048351526260378,9.571125030517578,0.07485526055097581,0.0741599053144455,-0.08861413598060608
4.024656295776367,-2.133059501647949,9.96473503112793,0.10243108868598938,0.03491823747754098,-0.0965517908334732
4.480898857116699,-0.7513018250465394,9.956448554992678,0.11518967151641846,0.03348614275455475,-0.07211708277463914
4.274933815002441,-0.8667011260986328,9.842731475830078,0.09091296046972276,0.014554698020219803,-0.080759234726429
3.9515867233276367,-1.0660111904144287,9.704322814941406,0.07679600268602373,-0.016660571098327637,-0.07302482426166534
4.516413211822511,-0.7513301372528076,9.997886657714844,0.05857322737574578,-0.026387173682451248,-0.057325895875692374
4.374598503112793,-0.7330374717712402,9.958689689636232,0.03916732221841812,-0.012062400579452515,-0.03316355869174004
4.25867795944214,-0.791233003139496,9.909596443176271,0.0196117926388979,-0.017009370028972626,-0.02457181550562382
4.248069763183594,-0.616786301136017,9.878114700317383,-0.001105072908103466,-0.014273435808718206,-0.0045863282866776
4.09828805923462,-0.35339289903640747,9.932352066040039,-0.03371259570121765,-0.02315190248191357,0.013312067836523056
4.198423862457276,-0.37715128064155584,9.882897377014162,-0.0644916668534279,-0.03584153577685357,0.030711010098457336
4.154572486877441,-0.5104594826698304,9.82705593109131,-0.09211266040802002,-0.04748496040701867,0.04329070448875427
4.198477745056152,-0.7630345821380615,9.746294021606445,-0.10985720902681352,-0.05049203336238861,0.051945120096206665
4.148514270782472,-0.8113945722579956,9.704714775085451,-0.115711510181427,-0.05466682836413384,0.05383086949586868
3.9725289344787598,-0.9508335590362549,9.628687858581545,-0.1238733157515526,-0.06632693856954576,0.05312541872262955
3.9292433261871342,-1.5025492906570437,9.48753070831299,-0.12185255438089372,-0.08709448575973511,0.0421985574066639
4.009826183319093,-1.3409409523010254,9.547513961791992,-0.10554791241884233,-0.10621125996112823,0.02685796469449997
4.18327522277832,-1.2181211709976199,9.525824546813967,-0.08977723866701127,-0.11205272376537323,0.012950281612575056
4.1670594215393075,-1.3887668848037722,9.505398750305178,-0.06638464331626892,-0.10358321666717529,-0.00291776959784329
4.122538089752198,-1.1618722677230837,9.464813232421875,-0.04106872901320458,-0.09995605051517487,-0.02041258849203587
4.093523025512695,-1.2791647911071777,9.565135002136232,-0.021315315738320354,-0.10420152544975281,-0.03862921893596649
4.120391845703125,-1.4004013538360596,9.522356986999513,-0.009501383639872076,-0.10869379341602325,-0.05046849325299264
3.8016109466552734,-1.4386537075042725,9.42896366119385,0.006890742573887111,-0.12458825856447221,-0.06623391807079315
3.8765482902526855,-1.3222831487655642,9.669779777526857,0.00896850135177374,-0.16768857836723328,-0.09572540968656541
4.269279003143311,-1.0202441215515137,9.606089591979982,0.02940422482788563,-0.18003734946250916,-0.12078656256198883
4.037761688232422,-1.1516609191894531,9.634939193725586,0.0628274753689766,-0.17405611276626587,-0.14377342164516452
4.1356353759765625,-1.4649057388305664,9.535423278808594,0.08161429315805437,-0.18186296522617343,-0.1792902648448944
4.312016963958741,-1.0951018333435059,9.700176239013672,0.09539169073104858,-0.1733755320310593,-0.1974044144153595
4.183190822601319,-0.8551764488220215,9.733829498291016,0.08889344334602356,-0.14621545374393466,-0.15348829329013827
4.197842597961426,-0.6276857256889344,9.928995132446289,0.03758272156119347,-0.20281320810317993,-0.14782877266407016
4.417618274688722,-0.8508920073509217,9.794606208801271,0.017472857609391216,-0.23123447597026828,-0.13344824314117432
4.290900230407715,-0.4711352586746216,9.798746109008789,-0.0019153589382767677,-0.2600859105587006,-0.1295945942401886
4.45078992843628,-0.48391926288604736,9.866655349731445,-0.03885432332754135,-0.29681053757667547,-0.12241093069314958
4.279268741607667,-0.41483259201049805,9.835733413696289,-0.0864318311214447,-0.3333390057086945,-0.12161587178707123
4.481013298034668,-0.5228433609008789,9.699450492858888,-0.15196865797042847,-0.36895817518234253,-0.1065192148089409
4.402864456176758,-0.24804924428462985,9.824588775634766,-0.21518199145793918,-0.4141378402709961,-0.07655427604913713
4.257075309753418,-0.8213486075401307,9.633817672729492,-0.22682040929794312,-0.44262328743934637,-0.07857421785593034
4.020820140838624,-1.3504635095596316,9.701731681823732,-0.18774487078189853,-0.5087223052978516,-0.13156650960445407
4.32292127609253,-1.2897454500198366,9.68933963775635,-0.19806171953678134,-0.60000878572464,-0.17248597741127014
4.045059680938722,-1.104942798614502,9.747873306274414,-0.24504908919334412,-0.7300179600715638,-0.21289905905723572
3.7152442932128906,-0.9574352502822876,9.873498916625977,-0.2693687677383423,-0.8797802329063417,-0.20203714072704318
3.5838565826416016,-1.1221699714660645,9.950413703918459,-0.27520152926445013,-1.1059448719024658,-0.17788644134998324
3.4698488712310795,-0.6089212298393251,10.049797058105469,-0.33624830842018133,-1.375484108924866,-0.17478841543197632
3.6649608612060547,-0.40934908390045166,10.058170318603516,-0.409401148557663,-1.6336350440979004,-0.18420185148715976
3.7363967895507812,0.08226662874221802,10.201813697814943,-0.5114081501960756,-1.9045305252075195,-0.18000859022140503
3.6541049480438237,0.19475384056568149,10.157583236694336,-0.6270894408226014,-2.1775383949279785,-0.13755328953266147
3.736144304275513,0.3233621120452881,10.126190185546875,-0.7227094769477845,-2.5215713977813725,-0.13703784346580505
3.455053567886353,-0.1309681534767151,10.066731452941896,-0.7919018268585205,-2.8922712802886967,-0.12865778803825378
3.693169116973877,0.09899000823497772,10.153532028198242,-0.8765291571617128,-3.3461837768554688,-0.08138525485992432
3.0084104537963867,-0.03583461046218872,9.937666893005373,-0.931382417678833,-3.9350140094757085,-0.08313144743442535
3.244846820831299,-0.12989334762096408,10.507247924804688,-0.9958257079124452,-4.668701648712159,-0.04171881824731827
3.69140625,1.07481050491333,11.094841957092287,-1.1285877227783203,-5.514800548553468,0.0859588235616684
4.921417713165284,0.3476940393447876,12.069741249084474,-1.3614550828933718,-6.514100074768066,0.3597135543823242
4.960082530975343,-0.2732246518135071,13.59267807006836,-1.7831995487213135,-7.531480312347413,0.6597509384155273
8.930381774902344,-3.9071788787841797,17.482564926147464,-2.2511234283447266,-8.713384628295898,1.174671769142151
11.374750137329102,-1.5570123195648193,19.214918136596683,-2.8527493476867676,-9.351305961608888,1.2494564056396484
18.770292282104496,-2.512978792190552,19.292747497558594,-3.6947712898254395,-9.182227134704592,0.8631539940834047
25.434278488159183,-6.703036785125733,21.094390869140625,-4.116418361663819,-8.72880744934082,0.3364724218845368
23.031881332397464,-8.213529586791992,17.453287124633793,-4.455436706542969,-8.244943618774414,-0.046783525496721275
28.3410816192627,-6.052285194396973,19.627819061279297,-5.44117021560669,-7.743465423583984,0.1354944556951523
27.189632415771484,-2.5275528430938725,20.890613555908203,-7.607856273651124,-6.031201362609863,0.6749532222747803
21.137334823608402,-3.491015195846558,19.712047576904297,-10.065068244934084,-4.178806304931641,0.9543300271034242
15.345094680786133,-9.692084312438967,13.11848545074463,-8.698781013488771,-1.7836483716964724,-0.7855907678604126
43.002105712890625,-16.420455932617188,30.286849975585938,-5.729575634002686,1.1987850666046143,-2.393778562545777
18.750988006591797,-16.393575668334964,20.881858825683594,-2.818464756011963,4.698173999786378,-2.431893587112427
9.471272468566896,-6.538997650146484,10.822079658508303,-1.330646276473999,5.605624675750733,-2.2887959480285645
6.388013362884522,-0.34101033210754395,4.957004070281983,-0.7445486187934877,5.835504055023194,-2.436333179473877
3.713387250900269,3.3156430721282963,2.015850067138672,-0.9579886794090272,5.679383277893066,-2.442301988601685
2.7846245765686035,4.908120155334473,0.587329626083374,-1.5370568037033083,5.394565582275391,-2.2270069122314453
2.0029222965240483,3.3719336986541752,0.6252450346946717,-1.9602346420288086,5.132079601287843,-1.9535937309265137
1.1299850940704346,0.9448266625404359,1.2403634786605837,-1.8509513139724734,4.948122501373292,-1.6664276123046875
0.502459466457367,0.5960723757743837,2.3240580558776855,-1.3811274766922,4.866678237915039,-1.2551130056381228
-0.5453307628631592,2.2276117801666264,2.6974549293518066,-0.8700566887855531,4.927457809448242,-0.9002280235290527
-1.4707047939300537,4.439017295837402,2.481817960739136,-0.6937195062637329,4.963238239288331,-0.5298968553543091
-1.938754200935364,5.066979885101319,2.0340166091918945,-0.7829461097717285,4.9093017578125,-0.17365951836109164
-1.6071381568908691,4.472428798675538,1.6801631450653076,-0.7624876499176025,4.889597415924073,0.09576231241226196
-1.2030537128448486,4.703425407409668,2.1857900619506836,-0.5846511721611024,4.876256942749023,0.2654118537902832
-0.9359940886497499,5.330835342407227,1.901731252670288,-0.4157460331916809,4.934775829315186,0.3226838707923889
-0.583694577217102,6.040792465209961,1.7264078855514529,-0.3400983214378357,4.953614234924316,0.22209860384464267
0.5987491607666016,6.109821796417237,2.0627098083496094,-0.38454657793045044,4.955265522003175,0.008411936461925507
1.99520480632782,5.674708366394043,1.9579095840454102,-0.4009434878826142,5.049664497375488,-0.29564136266708374
2.637092113494873,5.0477662086486825,0.845516562461853,-0.40311139822006226,5.121102809906007,-0.6449130773544312
3.4517054557800293,4.091093063354492,-0.3304658532142639,-0.3905181288719177,5.056825637817383,-0.9255078434944154
4.779043197631836,4.096868515014648,-0.7856202721595765,-0.4047248363494873,4.9055752754211435,-1.063218355178833
6.7471280097961435,4.470749855041504,-0.9102966785430908,-0.5384483337402344,4.741823673248292,-1.0790768861770632
8.73402500152588,3.775065183639527,-0.8644186854362489,-0.6551921367645264,4.552729129791261,-1.0494279861450195
10.334497451782227,2.9383432865142827,-0.6354523301124574,-0.5725588798522949,4.241944313049316,-1.0306171178817751
13.706016540527344,3.2779994010925293,0.4340250492095947,-0.44665578007698065,3.8673129081726074,-1.002836346626282
17.417293548583984,3.352162122726441,1.007904052734375,-0.35964375734329224,3.458259820938111,-0.9286966919898988
19.322031021118168,2.73657774925232,0.4073900580406189,-0.21578545868396762,2.9831390380859375,-0.7917203307151796
19.528743743896484,1.8038986921310427,-0.1880443245172501,0.011642797850072386,2.3898756504058842,-0.6064369678497314
19.647212982177734,1.3729069232940674,-0.013950958847999573,0.2680163681507111,1.7763519287109375,-0.3477990925312043
19.29108428955078,1.3670016527175906,0.4649454355239868,0.4617183804512024,1.2216080427169802,-0.027114355936646465
18.343484878540043,1.2568863630294802,1.0764193534851074,0.5808938145637513,0.7711111307144165,0.2846952378749848
16.63742256164551,1.0864108800888064,1.193120002746582,0.6797938346862793,0.4125734567642212,0.47522482275962835
14.916898727416992,1.5072004795074463,0.9281713366508485,0.7443121671676636,0.0728609785437584,0.521979570388794
13.723274230957031,2.2467863559722905,0.29118025302886963,0.7108865380287172,-0.2928866147994995,0.49723678827285767
12.001714706420898,2.369266271591187,-2.769853115081787,0.6651179790496826,-0.7148784995079042,0.35880279541015625
52.036346435546875,9.004002571105959,6.335565090179444,-1.3390620946884157,-2.9368622303009038,0.8415844440460205
30.910776138305668,30.474777221679688,27.929174423217777,-1.9744874238967898,-1.1906218528747559,0.21110700070858004
13.244354248046875,-9.863163948059084,14.551383018493654,-0.5593568086624146,1.480547070503235,-0.1757883578538895
-4.728862762451172,-14.236905097961428,6.096144199371339,-0.397524893283844,0.0641165003180504,0.3625395894050598
-0.22781145572662354,2.708528995513916,15.185989379882812,-0.058580990880727775,-0.2547611296176911,0.2407795488834381
0.868762731552124,-2.9849112033844,10.928670883178711,-0.005643553566187621,-0.38384783267974854,-0.762117087841034
6.48905897140503,-12.407678604125977,8.089300155639648,0.29990154504776,-0.13810290396213534,-0.9490026831626893
7.8326215744018555,5.718570709228516,9.629923820495607,0.4357238709926606,-0.06523413956165314,-0.9450591206550599
7.774463176727296,4.540868759155273,8.931607246398928,0.27971521019935613,0.15013547241687777,-0.7026240825653076
7.707878589630128,2.8980171680450444,9.347463607788086,0.10895663499832153,0.3792288005352021,-0.24041670560836792
4.72895622253418,1.2696874141693115,10.000520706176758,-0.023768436163663864,0.4223472177982331,0.08595300465822221
4.003498077392578,-2.45620608329773,10.070571899414062,-0.013374521397054197,0.30003565549850464,0.06577201932668687
3.8110420703887944,-2.9922938346862793,10.015993118286133,0.058828502893447876,0.1947685182094574,-0.08247397094964982
3.6901464462280273,0.5237962007522583,10.388491630554201,0.08962716907262804,0.048289865255355835,-0.1463568061590195
4.524381637573242,1.5342167615890505,10.31587314605713,-0.036665428429842,-0.08454935252666473,-0.024840034544467926
4.301891326904297,0.9434207677841187,10.136075973510742,-0.14799541234970093,-0.183575376868248,0.12344056367874146
4.0316176414489755,-0.34230345487594604,10.135000228881836,-0.2002324610948563,-0.2724263966083527,0.16197621822357178
3.9321885108947754,-0.6387328505516053,10.127044677734375,-0.21496690809726718,-0.3693057894706726,0.1232704743742943
4.215024948120117,-0.4526777565479279,9.88718032836914,-0.22477710247039795,-0.44825020432472235,0.08631759136915208
4.553651809692383,-0.139387845993042,9.8048095703125,-0.2496398389339447,-0.5013468861579896,0.07284851372241974
4.709806919097901,-0.27745771408081055,9.682607650756836,-0.2779721915721894,-0.5354861617088319,0.08125673234462738
4.5838422775268555,-0.8361135721206665,9.437731742858888,-0.2934761643409729,-0.5462128520011903,0.08226466178894043
4.879694938659668,-0.8023355007171631,9.447566986083984,-0.2816367745399475,-0.553031623363495,0.06526408344507219
4.906839370727539,-0.5823053121566772,9.519616127014162,-0.29314246773719793,-0.5423572063446045,0.07583714276552202
4.777059078216554,-0.880409836769104,9.348285675048828,-0.28445935249328613,-0.5485718250274658,0.06023703888058663
5.064228534698487,-1.0241079330444336,9.408361434936523,-0.27659642696380615,-0.5398221611976625,0.048305511474609375
4.666110038757324,-0.8539178371429443,9.235116958618164,-0.27686840295791626,-0.562452256679535,0.06863113492727281
4.894247055053711,-0.6220662593841553,9.398122787475586,-0.2894908487796784,-0.5973221063613892,0.07051206380128862
4.750910758972168,-0.9800522327423096,9.472885131835938,-0.30499619245529175,-0.6153692007064819,0.08110303431749345
4.742141246795655,-1.0670926570892334,9.3690881729126,-0.25836801528930664,-0.6574043631553651,0.07896408438682556
4.674064636230469,-1.044114589691162,9.260702133178711,-0.2600708901882172,-0.6902891397476196,0.07625840604305267
4.892202377319336,-1.3204708099365234,9.097355842590334,-0.2101939618587494,-0.7443818449974061,0.04324325919151306
5.131710052490234,-1.438862204551697,8.915944099426271,-0.18628405034542087,-0.7426931262016297,0.02088657021522522
5.472406864166261,-1.2243554592132568,8.684357643127443,-0.14605243504047397,-0.7322518825531006,0.004207700025290252
5.419217586517335,-1.517197847366333,8.464001655578615,-0.10862084478139879,-0.6877390146255493,-0.030769243836402893
5.50280523300171,-1.2605571746826172,8.628571510314943,-0.08674302697181702,-0.6367698311805726,-0.04739474505186081
5.378046989440918,-1.078409552574158,8.71638298034668,-0.04285791143774987,-0.6159836649894715,-0.0737859457731247
5.578992366790772,-0.9814361333847046,8.843485832214357,-0.036227229982614524,-0.5910612344741821,-0.06995134800672533
5.550286769866944,-1.2374690771102907,8.474382400512695,-0.014900301583111288,-0.5688270330429077,-0.07609845697879791
5.544499874114991,-1.0538229942321777,8.660589218139648,0.0127573823556304,-0.5737302303314209,-0.08351232856512071
5.275783538818359,-1.2412098646163943,8.63847064971924,0.03586570918560028,-0.5669955015182495,-0.10551930218935014
5.132297515869141,-1.324409008026123,8.793721199035646,0.06095822528004647,-0.6045640707015991,-0.1418520659208298
5.395692825317383,-1.228278636932373,8.746076583862305,0.09694524854421617,-0.6549675464630127,-0.1702040135860443
5.410882472991944,-1.4465172290802002,8.538268089294435,0.1307101845741272,-0.6925678849220277,-0.21039611101150513
5.2257585525512695,-0.9739061594009399,8.604835510253906,0.16477362811565402,-0.75491601228714,-0.23794236779212952
5.210146427154542,-0.8477882742881776,8.953218460083008,0.15859484672546387,-0.8402701020240785,-0.2637827396392822
5.306618213653565,-0.8548214435577393,8.967010498046875,0.16402690112590793,-0.9650412797927856,-0.27989768981933594
5.3859314918518075,-0.34592318534851074,9.228004455566406,0.1316684037446976,-1.074892282485962,-0.28934374451637274
5.610507965087891,-0.3863489925861359,9.210220336914062,0.09224353730678558,-1.2137622833251953,-0.28555831313133245
5.898240566253663,-0.2970145344734192,9.32916259765625,0.023122930899262432,-1.3734054565429688,-0.2634890973567963
5.748743057250977,-0.4160548448562622,9.006710052490234,-0.006181541364639998,-1.549926519393921,-0.2563017010688782
5.471423149108887,-0.872217357158661,9.04244899749756,-0.016146270558238033,-1.7621331214904785,-0.2612495124340058
5.865476608276367,-1.043631434440613,9.43995475769043,0.11696226149797441,-1.9730542898178103,-0.3154715299606323
5.654547691345215,-0.22049768269062045,8.769521713256836,0.16880251467227939,-2.2740912437438965,-0.3554555475711823
5.890376567840577,-0.5085272789001465,8.46652126312256,0.23314142227172852,-2.5733497142791752,-0.3784864246845246
6.079017162322999,0.20857085287570956,8.677056312561037,0.28959107398986816,-2.8822214603424077,-0.3548785448074341
6.779579639434815,0.7895854711532593,9.387726783752443,0.2911984324455261,-3.1903510093688965,-0.198265478014946
7.503581523895265,1.6386117935180664,10.320864677429201,0.15978527069091797,-3.5972425937652592,0.06341831386089325
10.235445976257326,0.5063178539276123,13.0290002822876,-0.22001348435878756,-4.019826889038086,0.4091213345527649
13.070068359375,0.3213979303836823,14.287578582763672,-0.7643232941627504,-4.0721588134765625,0.7169290184974672
14.830440521240234,-2.403392553329468,14.309863090515138,-0.9881975054740907,-3.973873853683472,0.7499593496322632
21.992794036865234,-2.618409872055054,15.954804420471193,-1.035170078277588,-3.5877640247344975,0.5906574726104736
25.830514907836918,-2.805648565292359,11.289264678955078,-1.3772526979446413,-3.3163394927978516,0.32771849632263184
27.730836868286136,-7.769474983215332,4.217755794525147,-0.6219712495803833,-3.233275651931763,-0.439142644405365
32.14104461669922,-9.24911117553711,5.116902828216554,0.8518976569175721,-3.226700067520142,-0.9226853847503662
29.27475166320801,-7.214216709136964,5.2351789474487305,2.035750389099121,-3.0184419155120854,-1.1139674186706543
39.78802108764649,-3.6724336147308354,15.854873657226562,2.5628244876861577,-3.0069127082824707,-1.3680534362792969
32.12261962890625,0.23058831691741943,21.618045806884766,2.163987159729004,-1.440035700798035,-1.3585929870605469
20.589824676513672,2.2508463859558105,14.992536544799805,1.0013506412506104,-0.777092695236206,-1.400431275367737
17.010181427001953,1.4880224466323855,13.01957893371582,-0.05686140432953835,-0.6997203826904297,-1.674448609352112
13.211893081665039,-0.7376741170883179,11.389697074890138,-0.8735489249229432,-0.7626148462295532,-1.9913990497589111
11.776513099670412,-4.446159839630128,11.296380043029787,-1.0662965774536133,-0.7440841794013978,-2.2879152297973633
9.580723762512209,-7.687152862548828,11.461116790771484,-0.5005937218666078,-0.5891916155815126,-2.4912729263305664
7.0826153755188,-7.663079261779785,11.775933265686037,0.30753201246261597,-0.3594713509082795,-2.508664608001709
4.621181011199952,-5.623648166656495,12.253970146179201,0.7663255333900453,-0.027453497052192688,-2.3672070503234863
2.582361459732056,-4.283882141113281,12.229332923889162,0.7193695306777954,0.40013435482978826,-2.1032605171203613
0.25442802906036377,-4.681666851043702,10.875871658325195,0.4897550940513611,0.8867443799972534,-1.7600346803665163
-2.8560357093811035,-5.807551860809327,8.09933853149414,0.478707641363144,1.3238880634307861,-1.4434317350387575
-5.2367353439331055,-5.298919200897218,6.787408351898194,0.45875915884971624,1.501512050628662,-1.0649492740631104
-6.0646376609802255,-4.447693824768066,6.004851818084718,0.2887658476829529,1.6319464445114138,-0.625708818435669
-6.145336627960206,-4.818356513977051,5.515505790710449,0.021641312167048458,1.8049536943435671,-0.1493319272994995
-7.0134077072143555,-5.0815091133117685,4.427024364471436,-0.0786980390548706,1.9494394063949587,0.2711939811706543
-7.8222198486328125,-4.3323163986206055,4.205679893493652,-0.210952490568161,1.958125948905945,0.6452985405921937
-7.354518890380859,-3.084908246994019,4.52077579498291,-0.5259435176849365,2.0507881641387944,1.0333914756774902
-6.874579906463624,-3.054251194000244,4.735558032989503,-0.8255703449249268,2.2165136337280273,1.3491042852401736
-7.177214622497559,-2.7811748981475835,3.550225257873535,-0.9472936987876893,2.437257766723633,1.6096554994583132
-8.133893966674805,-1.814910888671875,1.8285192251205447,-0.8936425447463989,2.49156928062439,1.733258128166199
-7.744832515716554,-0.33069190382957464,1.371319651603699,-0.855296552181244,2.419454574584961,1.741723418235779
-6.56720781326294,0.8471139669418335,2.1476025581359863,-0.8930052518844604,2.3811097145080566,1.6964133977890017
-4.865436077117921,1.1286296844482422,2.9835238456726074,-0.9436558485031128,2.5179708003997807,1.6308879852294922
-4.22565507888794,1.2503421306610107,2.5897912979125977,-0.851411521434784,2.7062625885009766,1.5254483222961426
-2.3830540180206303,2.26690673828125,3.254006862640381,-0.8009791970252992,2.8546276092529297,1.4235450029373171
0.11934399604797363,2.61510443687439,4.499842643737793,-0.837256669998169,3.089756965637207,1.3499227762222292
2.443051338195801,3.1086609363555913,4.947790145874023,-0.8582625389099121,3.407178163528443,1.3105618953704834
4.409529209136964,4.20756483078003,3.6630678176879883,-0.8921500444412231,3.663096189498902,1.2613028287887575
6.227087020874023,4.045103549957276,1.364976167678833,-0.8603523373603822,3.704848289489746,1.1268397569656374
8.619739532470703,3.6637647151947026,0.4578080177307129,-0.6521446704864502,3.5276050567626953,0.9495920538902284
11.312430381774904,4.560441493988038,0.07407567650079729,-0.4661896228790283,3.2935340404510502,0.7708181142807007
13.29635238647461,3.7607803344726562,-0.6328977346420288,-0.3606240153312683,3.021865606307984,0.5542222857475282
15.071182250976562,2.5045905113220215,-0.6551538705825806,-0.29077714681625366,2.6189277172088627,0.46372371912002563
17.140951156616214,1.1614573001861572,0.06199948489665985,-0.2678228318691254,2.233319520950318,0.5460811853408813
18.17181396484375,-0.33484372496604925,-0.13198725879192355,-0.2576198875904084,1.9268417358398438,0.8082298636436464
16.863658905029297,-0.5090924501419067,-2.3591802120208745,-0.35566273331642156,1.4861135482788086,1.2686986923217773
14.733636856079102,-0.862024188041687,-4.338690757751465,-0.688199818134308,0.8225480318069458,1.8711167573928835
12.694221496582031,-1.5476422309875488,-5.644437313079835,-1.0587557554244997,0.09595853835344316,2.5198850631713867
10.2545166015625,-0.8031772375106812,-5.667178630828858,-1.4750030040740967,-0.6817867159843446,3.0834765434265137
36.96332168579102,-3.585795640945435,-0.819244682788849,-0.7474108338356019,-0.9459935426712036,2.3665270805358887
78.8143997192383,32.01376724243165,49.6916847229004,1.0170816183090212,-0.2129717767238617,-1.6491435766220095
2.384825468063355,-10.160812377929688,-9.398095130920412,0.9274883866310121,4.212167263031007,-1.1874711513519287
0.7134168148040771,-20.0110034942627,15.14988422393799,0.6448675990104676,2.161713123321533,0.5730579495429994
-9.333684921264648,18.61879920959473,19.392126083374027,0.30752867460250854,1.3130823373794558,-0.07367976754903795
-0.3085171282291413,-9.630403518676758,11.020463943481445,0.3203281760215759,0.6760002970695497,-0.9929519891738892
4.755295753479004,-1.9417662620544434,11.507752418518068,0.24280080199241638,-0.3508957624435425,-0.5908718705177308
4.782031536102296,5.6301727294921875,11.429030418395998,0.1273142695426941,-0.4560558497905732,-0.3820587396621704
7.0395097732543945,-1.817847490310669,8.17864990234375,0.16411523520946505,-0.4404609799385071,-0.20747864246368408
8.277886390686037,0.6820642948150635,8.673867225646974,0.08812306821346283,-0.043314766138792045,-0.013155719265341759
6.971809387207031,-2.9712450504302983,8.079392433166506,0.1635902225971222,0.2885322570800781,0.029514664784073833
5.735345840454102,-3.389091968536377,8.741562843322756,0.3168578445911408,0.5171887874603271,-0.05926861986517907
4.923279285430909,-1.0613015890121462,9.213300704956055,0.35403120517730713,0.6116057038307191,-0.12080087512731554
4.8788862228393555,0.3802831172943115,9.72666645050049,0.24861966073513034,0.5945184230804443,-0.07409387081861497
4.180636405944824,0.4842979311943054,9.90101718902588,0.10038377344608307,0.5092383623123169,0.02754275314509869
3.930537700653076,-0.6199444532394409,9.89401149749756,0.028323693200945858,0.37765586376190186,0.06914735585451127
3.9174268245697026,-1.6414837837219238,9.75038242340088,0.039270263165235526,0.264396607875824,0.04374736547470093
4.003992557525636,-1.5833401679992676,9.849450111389162,0.07276701182127,0.15061092376708984,-0.02205358631908894
4.172090530395508,-1.1957923173904421,9.810887336730959,0.07539477199316026,0.0749187394976616,-0.05115066468715668
4.500054836273194,-1.0084724426269531,9.61262321472168,0.06346786022186279,0.032464120537042625,-0.05465112626552582
4.785151958465577,-0.5368307232856752,9.628870010375977,0.028378048911690715,0.006789115257561207,-0.014402469620108604
4.581238746643066,-0.7458287477493286,9.664143562316896,-0.01983088254928589,-0.012940182350575926,0.049470022320747375
4.470607757568359,-1.1531009674072266,9.60504150390625,-0.03178352862596512,-0.0486893504858017,0.05997913703322411
4.637434959411621,-1.262705445289612,9.543193817138672,-0.04208926111459732,-0.06409738212823869,0.05968572199344635
4.652820587158203,-1.0961813926696777,9.53144645690918,-0.04814241454005242,-0.07915453612804413,0.0698065459728241
4.621645927429199,-1.1746599674224854,9.486427307128906,-0.049005381762981415,-0.09401557594537736,0.07131625711917877
4.700500011444093,-1.1451035737991335,9.41813373565674,-0.05439985916018487,-0.09197381883859636,0.07193619012832642
4.773131370544434,-1.239013433456421,9.341727256774904,-0.05145471170544625,-0.07360540330410004,0.071997307240963
4.588035583496094,-1.0286868810653689,9.30642604827881,-0.038476794958114624,-0.06473892182111742,0.05940979346632958
4.556300640106202,-1.4291002750396729,9.38323497772217,-0.031195227056741714,-0.05865729972720147,0.0495477020740509
4.312744140625,-1.1560003757476807,9.469107627868654,-0.022342445328831676,-0.08705023676156999,0.034906499087810516
4.1717543601989755,-1.595433831214905,9.278427124023438,-0.028515499085187912,-0.11404839903116228,0.013331882655620575
4.408460140228272,-1.3473755121231081,9.2776575088501,-0.004921947605907917,-0.1444276720285416,-0.011747309006750585
4.591610908508301,-1.4527064561843874,9.085931777954102,0.004797610454261303,-0.14549474418163302,-0.012642135843634605
4.403385639190675,-1.5148725509643555,9.09291744232178,0.029944425448775295,-0.1625773757696152,-0.03586122393608093
4.217825889587402,-1.5289134979248047,9.172999382019045,0.039740271866321564,-0.18870542943477633,-0.06311488151550293
4.239574909210206,-1.1838629245758057,9.718290328979492,0.0338522531092167,-0.24654465913772583,-0.06840190291404724
4.447327136993409,-1.0496923923492432,9.415792465209961,0.04927172884345055,-0.2917177081108093,-0.08672279864549638
4.260263919830323,-1.4005941152572634,9.128245353698732,0.050250466912984855,-0.3137586414813996,-0.11157967150211334
4.400886535644531,-1.4576849937438965,9.511640548706055,0.0640995278954506,-0.3825454115867615,-0.15627627074718478
4.726032257080078,-1.3069403171539307,9.442359924316406,0.06937512755393982,-0.41221448779106146,-0.18221600353717807
4.176010608673097,-2.1005492210388184,9.080341339111328,0.1209666356444359,-0.4898183345794678,-0.271417647600174
4.32241153717041,-1.1655575037002566,9.752187728881836,0.1310216784477234,-0.5971258878707886,-0.34500846266746527
4.211509704589844,-0.9573395252227783,9.388697624206545,0.12363709509372711,-0.7221062779426576,-0.38592708110809326
4.23763132095337,-0.7249678373336792,9.653047561645508,0.1138182282447815,-0.8785194754600526,-0.3371438086032868
4.508478641510011,-0.4510245621204377,9.795508384704592,0.0805993527173996,-1.062761187553406,-0.27041345834732056
4.511855602264405,-0.42869138717651367,9.659502029418945,-0.0054520643316209325,-1.2208520174026491,-0.23567041754722595
4.203998088836671,-0.44361257553100586,9.936422348022461,-0.0806856080889702,-1.4379208087921143,-0.22898052632808688
4.3330583572387695,-0.9100862741470337,9.997968673706055,-0.1645333468914032,-1.6764889955520632,-0.2541856467723847
4.236225605010987,-2.1368026733398438,10.048081398010256,-0.07903033494949341,-1.8985253572463991,-0.29658424854278564
4.710724353790284,-1.0345267057418825,9.539190292358398,0.10597268491983415,-2.1265823841094975,-0.3103652596473694
5.574566841125488,-0.5066791176795961,9.767219543457031,0.09899137169122697,-2.3380284309387207,-0.34998407959938055
5.380377769470215,-0.9461874961853027,9.313588142395021,0.16467516124248507,-2.539155960083008,-0.35906273126602173
5.082905292510987,-1.0516015291213991,8.923550605773928,0.23148396611213684,-2.7981989383697514,-0.4013032913208008
5.330912113189698,-0.8018569946289062,8.600578308105469,0.3080030083656311,-3.131448268890381,-0.46922323107719427
5.93305778503418,-0.5628091096878052,8.543772697448732,0.37922093272209173,-3.461911678314209,-0.4682281315326691
6.403928756713867,-0.19326665997505188,9.012644767761232,0.47170794010162354,-3.758738279342652,-0.4307635128498078
7.597033500671387,0.49500471353530884,10.643832206726076,0.49651739001274114,-4.0398359298706055,-0.2503285706043244
9.110629081726076,-0.6438863873481752,11.332199096679688,0.4600881338119507,-4.254907608032227,-0.04518559947609902
11.94277572631836,0.12233427166938782,13.312624931335451,-0.03333931416273117,-4.368834972381593,0.22728565335273743
14.381516456604006,-0.4170704483985901,12.420965194702148,-0.7310055494308472,-4.22098207473755,0.40617105364799505
20.192798614501953,-1.416600584983826,13.621159553527834,-1.083208203315735,-3.960698127746582,0.3057431876659394
22.381450653076172,-0.5964199304580688,11.214971542358398,-1.7041642665863037,-3.595513343811035,0.11612396687269212
25.97799873352051,-3.352426528930664,5.852109909057617,-2.162962675094605,-3.4180617332458496,-0.3912090957164765
27.969104766845703,-6.267251014709473,2.1367082595825195,-1.5310204029083252,-3.6275475025177006,-1.0919457674026491
30.75201225280762,-4.040821075439453,5.501219272613526,-0.7711834311485292,-3.448336124420166,-1.55082905292511
30.487379074096683,-3.326167583465576,5.153524398803711,-0.24258811771869662,-3.4512817859649663,-2.0177950859069824
42.2787208557129,-3.4633822441101074,19.719739913940433,-0.16174115240573886,-2.898123264312744,-2.3006947040557866
31.370523452758793,-2.7701280117034917,19.68417549133301,-0.18156230449676514,-1.0521653890609743,-2.373160600662232
24.11607933044434,-2.37985897064209,15.460638046264648,-0.4242174923419953,-0.3198423385620117,-2.4848778247833256
18.352481842041016,-2.681497097015381,13.342532157897951,-0.5546267032623291,0.06896476447582245,-2.707614660263062
12.225475311279297,-3.495718002319336,10.515596389770508,-0.6906497478485107,-0.0066807721741497525,-2.855116367340088
8.61997699737549,-5.774331569671632,9.583406448364258,-0.4864803850650788,-0.2744811177253723,-2.9576005935668945
7.132503032684327,-7.487810611724854,10.79855728149414,0.05501705780625344,-0.46222299337387085,-2.9513671398162846
6.985671520233155,-7.337984085083008,13.0637903213501,0.5997720360755922,-0.3168486058712006,-2.669398307800293
5.414891242980957,-6.888949394226074,13.740615844726562,0.985222339630127,0.16141848266124728,-2.2547502517700195
2.0474281311035156,-6.47308111190796,13.090312004089357,1.1834775209426882,0.82024085521698,-1.8292627334594727
-1.8696904182434082,-5.80801820755005,11.621952056884766,1.238152265548706,1.350257754325867,-1.4003233909606934
-3.901434659957886,-4.780708312988281,10.219675064086914,1.1689794063568115,1.8026609420776367,-0.9539616703987123
-5.535866260528565,-3.1324775218963627,8.643354415893555,0.8780946135520936,2.180211067199707,-0.5117757916450502
-7.650481700897218,-3.179269790649414,5.952152729034425,0.5825971961021424,2.434032917022705,-0.0789354145526886
-9.53325080871582,-3.5419661998748784,3.464242935180664,0.4203886389732361,2.44387698173523,0.30959975719451904
-10.202918052673342,-3.2384579181671147,2.1338660717010502,0.3712675273418427,2.2893841266632085,0.6846556663513184
-9.847544670104982,-2.403420686721802,2.115247011184693,0.2642593085765839,2.1400532722473145,1.0342823266983034
-9.015085220336914,-1.888282060623169,2.2964975833892827,0.035729523748159416,2.161247730255127,1.3721923828125
-8.932068824768068,-1.8218369483947754,1.6695876121520996,-0.13686707615852356,2.2471497058868413,1.6463978290557861
-8.59190559387207,-1.5126849412918093,1.2027975320816042,-0.24693021178245544,2.3008313179016113,1.8363693952560427
-7.588905811309815,-0.7618590593338013,1.346426844596863,-0.3440210223197937,2.389489889144898,1.9520747661590576
-6.654696464538574,-0.2686456739902497,1.5254602432250977,-0.4461474716663361,2.5485572814941406,1.9945745468139648
-5.60655403137207,0.1568189561367035,1.5924445390701296,-0.537156343460083,2.747817754745484,1.9785699844360352
-4.091705322265625,0.6952222585678101,1.958639144897461,-0.615943431854248,2.9618115425109863,1.9391411542892458
-2.3972926139831543,1.44189989566803,1.9495605230331423,-0.7109411954879761,3.215034723281861,1.9003076553344727
-0.8450456857681274,2.1726357936859135,1.4712496995925906,-0.8015437722206117,3.4449410438537598,1.8433499336242676
0.8462371230125428,3.7531993389129643,1.5318807363510134,-0.9259179830551147,3.5881493091583256,1.721848487854004
4.005053043365479,5.043461799621582,2.1064684391021733,-1.1199074983596804,3.7357599735260014,1.5057086944580078
7.716820240020753,4.0998735427856445,1.8597658872604372,-1.1319944858551025,3.90811562538147,1.1735634803771973
10.455312728881836,2.426304340362549,0.5759789347648622,-0.7346089482307435,3.9619922637939453,0.7717887163162231
13.007031440734865,2.9532952308654785,-0.3550704419612885,-0.23929738998413086,3.809160470962525,0.43155133724212646
15.737773895263672,3.104618549346924,-1.0026401281356814,0.011448400095105171,3.545166492462158,0.21661712229251864
17.228038787841797,1.3040566444396973,-1.8087924718856814,0.2550457417964936,3.1601080894470215,0.11881089955568315
18.19094276428223,0.7915705442428589,-2.173169374465943,0.571880877017975,2.6554059982299805,0.15114232897758484
18.314056396484375,0.6888284087181092,-2.8201327323913574,0.7981954216957093,2.123969554901123,0.237185075879097
15.931838989257812,0.24595406651496887,-4.163904666900636,0.9506329894065858,1.5314518213272097,0.3587537407875061
12.590744972229006,-0.22941097617149353,-5.16330623626709,0.9490479230880737,0.8433709740638734,0.5962749719619751
18.837774276733402,7.390612125396729,-10.411978721618654,0.3056651651859284,-0.049181461334228516,1.111152172088623
99.93106842041017,31.508098602294922,61.10919952392578,-4.832289218902589,-1.7089319229125977,1.949285387992859
-1.971741318702698,8.217611312866211,-17.145841598510746,-0.563547194004059,4.7451748847961435,-0.11987140774726868
15.374312400817873,-16.106002807617188,17.64654350280762,-0.6857270598411561,3.009265422821045,1.058084845542908
-10.037633895874023,-1.0767022371292116,12.917684555053711,-0.2533234059810639,2.4574971199035645,0.48489904403686523
-5.467857360839844,-12.923026084899904,12.259288787841797,0.21489277482032776,1.6447004079818728,-0.1954144835472107
-1.3689332008361816,-5.9929609298706055,13.714564323425295,0.41234278678894043,0.7227592468261719,-0.4383774101734162
0.9499390721321107,1.874326825141907,12.213420867919922,0.3928401470184326,0.05963236466050149,-0.6390540599822998
4.7792019844055185,2.32876992225647,10.002655982971193,0.2159790545701981,-0.25503116846084595,-0.5089682340621948
7.4239773750305185,3.4283838272094727,9.183413505554201,0.019103217869997025,-0.2625433504581452,-0.17300978302955627
6.43386173248291,1.2859274148941042,8.829036712646484,-0.1411638855934143,-0.04132956266403198,0.10292606800794603
5.706975936889648,-1.4005062580108643,8.852510452270508,-0.14662086963653564,0.16724346578121188,0.13704350590705872
4.561038970947266,-1.7258738279342654,9.401071548461914,-0.09231617301702501,0.2723833918571472,0.06491322815418243
3.832556009292603,-0.3563463091850281,9.954862594604492,-0.0994252860546112,0.26174852252006536,0.027605481445789337
3.6527724266052246,0.6533855199813843,10.440754890441896,-0.17216944694519043,0.17142093181610107,0.08267860859632493
3.5547947883605957,0.34592413902282715,10.356106758117678,-0.2703932523727417,0.04963484779000283,0.17315161228179932
3.6839447021484375,-0.9147223234176636,9.998039245605469,-0.29060748219490057,-0.04575446993112564,0.1894560158252716
3.647041559219361,-1.2897658348083496,10.068753242492678,-0.26682454347610474,-0.13433809578418734,0.15050044655799866
3.7153167724609375,-1.158003807067871,10.194033622741701,-0.24557048082351685,-0.2264341115951538,0.0994725599884987
3.7660417556762695,-1.1640366315841677,10.017354965209961,-0.22656171023845675,-0.3143380284309387,0.07227245718240739
4.253734588623047,-1.017794132232666,9.830130577087404,-0.20779407024383545,-0.35051307082176214,0.06404180079698564
4.4772443771362305,-0.7842267751693726,9.685388565063477,-0.20479464530944824,-0.37822732329368597,0.038593605160713196
4.512197017669679,-1.0857136249542236,9.445290565490724,-0.18730564415454867,-0.3523034751415253,0.05061417073011398
4.61898136138916,-1.4815280437469482,9.516636848449709,-0.15401452779769897,-0.3276794850826264,0.04455379396677017
4.4178223609924325,-1.2355347871780398,9.581690788269045,-0.1275289207696915,-0.3194649815559387,0.03139268606901169
4.432653427124023,-1.4756230115890505,9.302030563354492,-0.11061120778322221,-0.29658591747283936,0.03602015599608422
4.483662128448487,-0.9307258129119873,9.561546325683594,-0.09413599222898485,-0.3028899729251862,0.012912347912788391
4.53936529159546,-0.8880996704101562,9.520696640014648,-0.09169094264507294,-0.2836782634258271,0.016868673264980316
4.390467643737793,-0.6532151103019715,9.422445297241211,-0.09193256497383118,-0.28028383851051336,0.014415713958442213
4.605320930480957,-1.005627512931824,9.401343345642092,-0.09491655230522156,-0.24379752576351169,0.02231752872467041
4.564089775085449,-0.964134693145752,9.39504909515381,-0.090359203517437,-0.23206774890422824,0.0368536114692688
4.183694362640382,-1.1076269149780273,9.427614212036133,-0.09217632561922075,-0.23392555117607117,0.04277026280760766
4.225808143615723,-1.2532413005828857,9.473104476928711,-0.09089039266109467,-0.26547917723655706,0.019322970882058147
4.374825477600098,-1.7341291904449463,9.148180961608888,-0.07044371217489244,-0.26411908864974976,-2.5294723400293155e-06
4.446132659912109,-1.5729473829269411,9.264737129211428,-0.029164407402276993,-0.2744455337524414,-0.042389962822198875
4.803108215332031,-1.339574217796326,9.233901977539062,-0.015326754190027716,-0.2496490478515625,-0.07413060218095781
4.7606778144836435,-0.9351896047592163,8.989160537719727,0.002370072295889259,-0.21987634897232056,-0.09552006423473358
4.330586910247804,-0.8845585584640503,9.493260383605959,-0.005025565158575774,-0.21814042329788208,-0.09067005664110185
4.347105026245117,-0.9396393299102783,9.46687412261963,-0.014018764719367027,-0.24205416440963745,-0.08716475218534471
3.9517197608947754,-1.4455870389938357,9.356709480285646,0.014566049911081793,-0.27857065200805664,-0.12796954810619357
4.561603069305421,-1.162229061126709,9.595564842224123,0.04977639019489288,-0.3378055393695832,-0.1799842864274979
4.507917404174805,-0.9422763586044312,9.481259346008303,0.07548225671052934,-0.3781168460845947,-0.1922268718481064
4.190601825714112,-1.2415857315063477,9.530859947204592,0.10349208116531372,-0.4535384774208069,-0.22047151625156405
4.031069755554199,-0.9791057705879213,9.852071762084961,0.11659399420022966,-0.5826646089553833,-0.23692877590656283
3.72605037689209,-1.0064277648925781,9.999530792236328,0.13639099895954135,-0.7653578519821167,-0.2268897294998169
3.584274053573609,-1.0562015771865847,10.27308464050293,0.1608271300792694,-1.0002976655960085,-0.21380653977394104
3.92866063117981,-0.6250713467597963,10.046725273132326,0.12316355109214783,-1.2369990348815918,-0.19661475718021396
3.848693370819092,-1.2442424297332764,9.922027587890625,0.10872007161378862,-1.4785008430480957,-0.19939963519573214
3.8181340694427495,-0.9134865999221802,9.77352523803711,0.10373488813638689,-1.7644016742706299,-0.19860342144966125
3.877112150192261,-0.28659433126449585,9.846248626708984,0.0703469291329384,-2.0739212036132812,-0.2024863511323929
4.6011857986450195,-0.0070390403270721436,9.789021492004396,-0.02485345117747784,-2.377290487289429,-0.23299559950828552
5.413910865783691,-0.3281555771827698,10.295770645141602,-0.1630833595991135,-2.5645856857299805,-0.27580800652503973
5.204170227050781,-1.9452930688858034,10.141490936279297,-0.005118948873132468,-2.6827874183654785,-0.3516499996185303
5.154848098754883,-0.5537710189819336,9.084229469299318,0.16260682046413424,-2.9655556678771973,-0.39922276139259344
4.889381885528565,-1.0651985406875613,8.679168701171875,0.27930355072021484,-3.272819995880127,-0.4967165887355805
5.400916576385499,-0.6133606433868408,9.282959938049318,0.44778594374656683,-3.7142810821533203,-0.5384072661399842
6.172939300537109,-0.8244495391845703,10.045181274414062,0.5951263308525087,-4.154901504516602,-0.4905228018760681
7.874956130981445,-1.0992659330368044,11.447386741638185,0.7040542364120483,-4.533074855804444,-0.35140448808670044
10.58236312866211,-0.7085558176040649,13.437200546264648,0.5752406120300293,-4.669533729553223,-0.19515328109264377
14.372590065002443,-1.455296277999878,13.77674674987793,0.18063779175281527,-4.602784156799316,-0.04130081459879876
19.62797355651856,-1.542068123817444,15.428865432739258,-0.2124212831258774,-4.420600891113281,0.019791051745414734
25.702747344970703,-0.7608481645584106,13.389495849609375,-0.7237489223480225,-3.9408576488494877,-0.11597518622875214
27.952930450439453,-4.550666809082031,7.561452865600586,-0.9219111800193788,-3.6707599163055424,-0.5205731391906738
29.596456527709964,-8.443899154663086,4.13902235031128,0.16503682732582092,-3.62667727470398,-1.082965612411499
31.042400360107422,-7.630609989166261,6.031558036804199,1.396214842796326,-3.4725451469421387,-1.2361664772033691
33.89038467407227,-3.3108859062194824,8.239620208740234,2.0085384845733647,-3.759507179260254,-1.30168354511261
39.170978546142585,-0.6745742559432983,22.00318145751953,1.5124439001083376,-2.6840980052948002,-1.112971544265747
23.95074462890625,1.172825574874878,16.74771499633789,0.5426090359687806,-1.4879732131958008,-0.827647626399994
18.550001144409183,0.24653902649879456,13.164884567260742,-0.411391168832779,-1.2183289527893066,-0.8396663665771484
13.271617889404297,-0.827745795249939,10.341096878051758,-1.0008554458618164,-1.2836114168167116,-0.9817733764648438
10.994354248046875,-2.8533711433410645,9.831737518310547,-1.2525489330291748,-1.4725697040557861,-1.1902524232864382
11.064494132995607,-5.587250709533691,11.676267623901367,-1.0056608915328982,-1.4284822940826416,-1.3678883314132693
9.418380737304688,-6.872221469879151,13.011066436767578,-0.35616198182106024,-1.0809454917907715,-1.376690149307251
6.7681622505188,-6.194832801818848,13.316812515258789,0.2981127798557282,-0.565546989440918,-1.2431207895278933
3.4816861152648926,-3.817288398742676,13.189323425292969,0.6470731496810913,-0.009041143581271172,-1.0715283155441286
-0.0013972669839859009,-2.2869882583618164,12.129134178161623,0.6190550923347474,0.5082905292510986,-0.8994895815849305
-3.4111731052398686,-1.235076904296875,10.150523185729982,0.42880442738533026,0.9402964115142822,-0.756069540977478
-5.181752681732179,-1.727890968322754,8.341819763183594,0.26733937859535223,1.2628750801086426,-0.6589335799217225
-5.300522804260254,-2.538959503173828,8.086266517639162,0.2215399891138077,1.5302001237869265,-0.5817798376083374
-4.929357528686523,-2.688572883605957,8.057622909545898,0.23715290427207947,1.8899930715560915,-0.41507595777511597
-5.921590805053711,-2.6874332427978516,7.027519226074219,0.3522761166095734,2.2539052963256836,-0.24954167008399963
-6.886562347412109,-2.0887842178344727,5.767913818359375,0.3489203751087189,2.5446672439575195,-0.0862192139029503
-7.577937126159668,-1.6981881856918337,4.0834317207336435,0.3002965450286865,2.738351821899414,0.01867693476378918
-8.287376403808594,-1.5361243486404421,2.4308335781097417,0.1563403755426407,2.8354744911193848,0.12793762981891635
-8.589198112487795,-0.9823798537254335,1.3364229202270508,-0.02688681520521641,2.8079028129577637,0.28146159648895264
-7.654636383056641,-1.0103751420974734,1.5718046426773074,-0.2521625757217407,2.7812287807464604,0.5067192316055298
-6.447672367095948,-1.5321199893951416,2.351391315460205,-0.3899519443511963,2.8727235794067383,0.7381457686424256
-4.853518486022949,-1.5579484701156618,3.3443067073822026,-0.43726736307144165,3.0991733074188237,0.9643149375915527
-3.9561758041381836,-0.8060852289199829,3.0293695926666264,-0.44695156812667847,3.4166548252105717,1.17173707485199
-3.5652852058410645,0.5659911632537842,2.1203801631927495,-0.5277324914932251,3.6406137943267827,1.3508150577545166
-2.7242052555084233,2.0006375312805176,1.2964434623718262,-0.7143560647964478,3.753176212310791,1.4658125638961794
-1.036490321159363,2.454468965530396,0.9492605328559877,-0.8770819306373597,3.814749240875244,1.4642149209976199
0.3653950393199921,2.563985824584961,0.8910857439041138,-0.8716840147972108,3.8149490356445312,1.3500542640686035
2.3991444110870366,3.301390409469605,1.8101544380187988,-0.7862173318862915,3.808440446853638,1.161963701248169
4.767178535461426,4.219537258148194,2.196329832077027,-0.7365705966949463,3.870105266571045,0.9012771248817445
6.824098587036133,4.703724384307862,1.7212044000625613,-0.6807557940483094,3.882812976837158,0.5935241580009462
9.132281303405763,5.3432512283325195,1.1042708158493044,-0.6405976414680482,3.7444615364074707,0.2388651967048645
12.823672294616701,5.127000331878663,1.645775556564331,-0.599730670452118,3.538167953491211,-0.13416831195354464
16.10732460021973,6.010374069213867,2.431304216384888,-0.5611898303031922,3.356706857681275,-0.4347761869430542
18.06222724914551,6.425145149230957,1.9136410951614382,-0.6209189295768739,3.205166816711426,-0.7409771084785463
18.120615005493168,5.15710210800171,-0.140655592083931,-0.628638744354248,2.915700197219849,-1.0081366300582888
15.731968879699709,4.050695419311523,-2.7623653411865234,-0.4955806434154511,2.3911895751953125,-1.1429978609085085
14.834562301635742,2.707465171813965,-4.031790256500245,-0.5095984339714051,1.6805220842361452,-1.03900146484375
11.614670753479006,-0.44427707791328436,-8.720513343811037,-0.5775076150894165,0.8512354493141175,-0.6728918552398682
4.632451534271241,-3.298500299453736,-13.621147155761719,-0.5606178641319276,-0.4477558732032776,-0.20541328191757202
89.31259155273438,27.430604934692386,51.836463928222656,-5.390667915344238,-4.101038455963136,1.3183205127716064
24.617900848388672,14.98654556274414,3.5508508682250977,-0.15141400694847107,5.369289398193359,-0.6766356825828553
9.456469535827638,-16.914308547973636,18.305591583251953,-0.3121685683727265,2.096555233001709,0.8486574292182923
-18.251659393310547,-7.128631591796875,9.107209205627443,0.1763851195573807,1.5188961029052734,0.6336698532104492
-1.4219439029693604,-4.2702298164367685,15.083913803100586,0.040640585124492645,0.0706581696867943,-0.20067059993743896
3.254578828811646,-12.59527587890625,10.386546134948732,0.2762753963470459,-0.3681843876838684,-0.6542686820030214
7.452883243560792,4.813750267028809,9.339588165283203,0.5151544213294984,-0.2808991074562073,-0.6826062798500062
8.953180313110352,4.71186637878418,7.770214557647706,0.3267103731632233,0.056197695434093475,-0.38374197483062744
7.657148838043214,2.0306990146636967,8.59487819671631,0.19055303931236267,0.4255194962024689,-0.06530076265335083
4.3399763107299805,0.8334354162216187,9.831194877624513,0.034396931529045105,0.5801922082901001,0.1274785548448563
2.765055894851685,-0.8167545795440674,10.529314994812013,-0.01369780767709017,0.4413132071495056,0.14880482852458957
3.3660819530487065,-1.12349534034729,10.332747459411623,-0.03697389364242554,0.2693347036838532,0.09304117411375047
4.178187847137452,-0.6717469096183778,9.928347587585451,-0.034364938735961914,0.1797362715005875,0.05003441125154495
4.235346317291261,0.7051894068717958,9.976783752441406,-0.09247586131095886,0.15294328331947327,0.09232730418443681
3.9775326251983647,-0.17682436108589172,10.127185821533203,-0.15548059344291687,0.10886339098215105,0.14353474974632263
3.602502584457398,-0.9201149940490723,10.126130104064943,-0.1813020408153534,0.03289048746228219,0.14819814264774325
3.7091863155364995,-1.209406852722168,9.99148178100586,-0.1477942615747452,-0.05307941883802414,0.08957404643297197
4.185405254364015,-0.6799603700637817,9.934500694274904,-0.13441081345081332,-0.08645867556333543,0.07281504571437836
4.323200702667237,-0.7955445051193237,9.690038681030273,-0.1314015239477158,-0.09385822713375092,0.07431418448686601
4.4947476387023935,-0.684273660182953,9.706345558166506,-0.12248386442661285,-0.07266112416982652,0.09228780120611192
4.396184444427491,-1.0520081520080566,9.625304222106935,-0.1140088140964508,-0.05885312333703042,0.09440584480762482
4.175549507141113,-1.0324580669403076,9.69857692718506,-0.09848430752754211,-0.04224259406328201,0.0936771258711815
4.246483325958253,-1.1401141881942751,9.705284118652344,-0.07979416102170946,-0.05306817591190338,0.07376988977193834
4.230289459228516,-0.5271682739257812,9.790834426879883,-0.0759299322962761,-0.048943981528282166,0.08893732726573944
3.9437246322631836,-0.7094074487686157,9.648810386657717,-0.11826341599226,-0.07824987173080444,0.10437680035829545
4.156996250152589,-1.0087524652481081,9.660346984863281,-0.12564657628536227,-0.0945139452815056,0.09840749204158783
4.308214664459229,-0.8524718880653382,9.538057327270508,-0.11957859247922899,-0.07657882571220398,0.09716226905584337
4.337101459503175,-1.1265066862106325,9.49566173553467,-0.09901901334524156,-0.05597951263189316,0.07880708575248718
4.464189529418945,-1.0556726455688477,9.490741729736328,-0.06917604804039001,-0.023298325017094616,0.06645844876766205
4.430172920227051,-0.9515417218208314,9.526061058044435,-0.056179411709308624,0.002238054294139147,0.06687923520803453
4.139926433563233,-0.857416033744812,9.588885307312013,-0.05335517600178719,0.01522953249514103,0.07405789941549303
3.789763927459717,-1.4155769348144531,9.279713630676271,-0.04739179462194443,0.018703663721680645,0.05375202372670174
3.7450308799743652,-1.3809053897857666,9.489500045776367,-0.016258083283901215,-0.004686071071773768,0.010303499177098274
4.135480403900147,-0.7639223933219911,9.668815612792969,-0.026749374344944957,-0.02174264751374722,-0.009897492825984955
4.143336772918702,-0.8250465393066406,9.508049964904787,-0.031008804216980938,-0.024774283170700073,-0.007127596531063319
4.0818190574646005,-0.523045539855957,9.44284439086914,-0.052937638014554984,-0.030194059014320374,0.0005404780386015773
3.6715772151947026,-0.6693782806396484,9.446042060852053,-0.06686007976531982,-0.04934133961796761,0.0051982467994093895
2.998440027236939,-0.794932782649994,9.693410873413086,-0.09998169541358948,-0.1349737048149109,0.0011785597307607534
2.9346656799316406,-1.2347545623779297,10.036205291748047,-0.13188569247722629,-0.2782040238380432,-0.030919803306460384
3.59896731376648,-0.9222358465194702,10.201666831970217,-0.12875144183635714,-0.387298583984375,-0.0728645771741867
3.4027588367462163,-1.0934488773345947,9.93332290649414,-0.11281036585569383,-0.47197163105010986,-0.11086999624967576
3.3528912067413335,-1.6512455940246582,9.996878623962404,-0.05494190379977227,-0.5872498154640199,-0.18287914991378784
4.253304958343507,-1.3807430267333984,10.094758987426758,0.008809194900095465,-0.7007704973220825,-0.26091244816780096
4.290628910064698,-0.9201876521110536,9.845003128051758,0.024385087192058563,-0.7427722811698915,-0.28688803315162664
4.291414260864258,-0.412986159324646,10.063597679138185,0.03181817755103112,-0.8457881212234497,-0.274724692106247
4.175048351287843,-0.8932614326477051,9.977183341979982,0.05353375896811486,-0.9784749150276185,-0.2501087784767151
3.606003761291504,-0.9506208300590516,9.863080978393555,0.07204801589250566,-1.1501684188842773,-0.24163134396076205
4.053636074066163,-0.17982518672943115,10.314974784851076,0.0322958566248417,-1.378971815109253,-0.22148573398590088
4.616913795471191,-0.08539524674415588,10.090599060058594,-0.04684867709875107,-1.6111580133438113,-0.16157805919647217
3.9813055992126465,0.9612019062042236,10.764124870300295,-0.2488214075565338,-1.8515772819519043,-0.08405593782663347
3.816098213195801,-0.42150360345840454,10.458346366882326,-0.2946587502956391,-2.143131732940674,-0.05533141270279885
4.239048004150391,-1.3303407430648806,10.582062721252443,-0.22828228771686557,-2.3349533081054688,-0.10350377857685089
4.294172763824464,0.032468438148498535,10.005011558532717,-0.18232439458370212,-2.662646770477295,-0.13074399530887607
4.422161579132081,-0.9113706350326538,9.571762084960938,-0.17691059410572055,-2.9367935657501225,-0.20977330207824707
4.3905043601989755,-0.9113192558288574,9.720408439636232,-0.026921702548861507,-3.307004928588867,-0.20697556436061862
4.137338161468507,-1.3178161382675173,10.012340545654297,0.175290048122406,-3.796090364456177,-0.25346323847770696
6.003652572631836,-2.694101333618164,10.578407287597656,0.4256506562232971,-4.309460163116456,-0.2514209747314453
8.379308700561523,-3.0429689884185795,12.764815330505373,0.5239596962928773,-4.6348614692688,-0.20761001110076904
11.33339595794678,-2.0772523880004883,14.68181037902832,0.3218162953853608,-4.666505813598633,-0.08997150510549547
14.568617820739748,-4.153181076049805,13.561963081359865,0.3476552069187165,-4.482007026672363,-0.24903982877731323
23.960407257080078,-4.448393821716309,12.831702232360842,0.8990320563316346,-4.348208427429199,-0.5508489012718202
29.729032516479496,-1.8740925788879395,8.504979133605959,1.3741117715835574,-3.9936711788177495,-0.8375972509384155
31.868675231933594,-1.6060830354690554,6.8544325828552255,1.8509296178817751,-3.5756869316101074,-1.128329157829285
29.760694503784183,-0.40230646729469305,5.625795841217042,2.6002366542816167,-3.2381768226623535,-1.4141185283660889
30.50900650024414,3.3287022113800053,8.375988960266115,2.5356924533844,-3.2389650344848633,-1.6103643178939822
39.21592712402344,2.8866214752197266,21.69668769836426,1.4835584163665771,-2.291964054107666,-1.5792018175125124
25.679264068603516,0.29919570684432983,17.217191696166996,0.45185452699661255,-1.0988832712173464,-1.3585376739501953
20.536022186279297,-1.7036926746368408,14.344004631042482,-0.2796145379543305,-0.7880946397781372,-1.3481669425964355
14.334634780883789,-3.747391700744629,11.328786849975586,-0.4798285961151123,-0.8105657696723939,-1.4819433689117432
10.422671318054201,-5.778430461883546,9.74073600769043,-0.2831020057201386,-1.1130393743515017,-1.616642951965332
9.998145103454592,-6.514607906341554,11.10296154022217,0.16119976341724399,-1.3549563884735107,-1.7396064996719363
9.995381355285646,-6.631110191345215,13.200558662414553,0.5553000569343568,-1.2647252082824707,-1.7125802040100098
8.064619064331055,-5.95838737487793,14.052961349487305,0.8456500172615052,-0.8870195150375366,-1.5591305494308474
4.769156455993652,-4.951876640319824,13.78782844543457,0.9231480360031128,-0.4365193247795105,-1.3645790815353396
1.5312184095382693,-4.260529041290284,12.840347290039062,0.8177695870399476,-0.06444235146045685,-1.1553183794021609
-1.3804205656051638,-3.966295957565308,11.015172958374023,0.6689574122428895,0.20234087109565735,-0.9487755298614502
-3.991280794143677,-4.4033966064453125,9.039772987365724,0.6491309404373169,0.33866038918495184,-0.7737576961517334
-5.446388721466065,-4.077314853668214,7.863563060760499,0.6687862277030946,0.3928382098674775,-0.5528396368026733
-5.98306941986084,-3.6952545642852788,7.6386213302612305,0.6453251242637635,0.4273976683616638,-0.2958498299121857
-5.769590377807617,-3.326898336410523,8.481266975402834,0.4930469691753388,0.5450879335403442,0.027416102588176727
-5.20449161529541,-3.4429988861083984,9.199663162231445,0.3067019879817963,0.8540996313095093,0.36070618033409124
-5.322466850280762,-3.2405517101287846,9.086117744445803,0.14805248379707336,1.2898228168487549,0.6572559475898744
-6.758648872375488,-2.786642074584961,7.453171730041504,-0.02423770166933537,1.6836156845092773,0.8940129876136781
-7.109665393829347,-2.4339225292205815,6.368465423583984,-0.13390953838825229,1.9291718006134033,1.0592858791351318
-7.3704543113708505,-2.152202367782593,5.395010471343995,-0.21964226663112643,2.177921772003174,1.175453066825867
-7.592061996459961,-1.1682504415512087,4.374345779418945,-0.33346149325370794,2.394644975662232,1.2372045516967773
-7.833885192871094,-0.6763702034950257,3.310464859008789,-0.5299397706985474,2.5487201213836674,1.2653124332427979
-7.197967529296875,-0.6204016208648682,3.1425073146820073,-0.7493754625320435,2.662331819534302,1.2713321447372439
-5.1507630348205575,-0.7490993142127992,4.329521656036378,-0.9622960090637207,2.8481023311614995,1.2923767566680908
-3.275536060333252,-0.9484211802482606,4.741446018218995,-1.1251966953277588,3.239647388458252,1.3971151113510134
-3.273324966430664,-0.16908049583435059,3.287939310073853,-1.2238513231277468,3.596160888671875,1.5154978036880495
-2.6268200874328613,1.2160437107086182,1.7174495458602907,-1.4024749994277956,3.756281852722168,1.635606050491333
-0.8397504687309266,2.2372379302978516,1.4447923898696902,-1.5976200103759766,3.7682731151580815,1.696732521057129
2.231927633285523,2.92246675491333,2.203549385070801,-1.7301434278488161,3.8162047863006596,1.6950247287750244
5.420196533203125,3.237098932266236,2.3934826850891113,-1.7015728950500488,3.931473016738892,1.6130592823028564
8.393930435180664,3.405738353729248,2.206675291061402,-1.5235301256179812,3.9917616844177246,1.4839887619018555
10.934514045715334,3.931001424789429,1.278472900390625,-1.2564172744750977,3.9449532032012944,1.316946029663086
13.098477363586428,4.5289044380188,0.36575889587402344,-0.9934118390083314,3.745059728622437,1.1216683387756348
15.061056137084961,4.930918216705323,-0.7063580155372621,-0.8060562014579774,3.416524887084961,0.9419022202491761
17.054443359375,3.8453328609466557,-1.9716306924819949,-0.638918697834015,2.955702781677246,0.8493137359619141
19.221508026123047,2.147885084152222,-2.826173543930054,-0.3814687728881836,2.3860104084014897,0.9609174728393555
20.213582992553714,2.1120297908782963,-4.831477165222168,-0.14480850100517273,1.7320303916931152,1.3218520879745486
19.086168289184574,2.3936057090759277,-7.5158400535583505,-0.12667204439640048,0.8579741716384888,1.821369767189026
18.133617401123047,1.3817460536956787,-8.214788436889648,-0.11230239272117615,-0.12309818714857103,2.342823743820191
18.49229240417481,0.9394656419754028,-8.376313209533693,0.09324617683887482,-0.8602138161659242,2.6936464309692383
97.26552581787111,24.010391235351562,66.13005828857423,0.5847728252410889,-0.2213256061077118,0.7273851037025453
-7.035761833190918,-1.8936545848846436,-22.85489273071289,0.644994854927063,4.444465160369874,-0.7179328203201294
5.73603105545044,-14.680366516113281,18.56303215026856,0.5863995552062988,3.109183549880982,0.6815605759620668
-17.1762866973877,-0.20313569903373718,12.653276443481445,0.4098958373069763,1.276335120201111,0.3723168969154358
-1.0451308488845827,3.750497817993164,16.783475875854496,0.26012429594993597,0.31501063704490667,-0.7554423809051514
-0.2007661759853363,-6.792999744415284,11.481386184692383,0.1825038492679596,-0.4509511291980744,-0.6324033737182617
4.188970565795898,6.284152984619141,12.143863677978516,0.05537909641861916,-0.780397891998291,-0.4788936972618103
8.563855171203615,-1.9749022722244265,7.951625347137452,0.07727929204702379,-0.615478515625,-0.3207829892635346
8.076993942260742,-1.1225138902664187,7.903353214263917,0.07143286615610124,-0.22170500457286837,-0.13376858830451965
6.557875633239746,0.5255664587020874,9.056617736816406,0.05702421814203262,0.12525127828121188,-0.08401073515415192
4.994997978210449,-0.3448260426521301,9.581869125366211,0.021279163658618927,0.2799730002880097,0.011417285539209844
4.20064640045166,-0.28218778967857366,9.757125854492188,-0.07547061145305634,0.29773798584938055,0.09676916897296906
3.4362366199493413,-0.030431240797042847,10.292682647705078,-0.18303561210632324,0.19481846690177917,0.14365603029727939
3.397554874420166,-0.8301143646240234,10.460591316223146,-0.29341784119606024,0.050069451332092285,0.1820577830076218
3.283963680267334,-1.368408203125,10.262476921081545,-0.30776402354240423,-0.11081482470035553,0.15031522512435913
3.695757150650025,-1.6251901388168337,10.063162803649904,-0.2944042384624482,-0.23834872245788574,0.10563483089208604
3.7859995365142827,-1.241711735725403,10.067994117736818,-0.2975848019123078,-0.35289725661277777,0.06529843807220459
3.9540503025054936,-1.2192384004592898,10.102551460266115,-0.3110994398593903,-0.45530349016189575,0.05066115781664849
4.293737411499023,-1.5342555046081543,9.697554588317873,-0.31713017821311956,-0.5202631950378418,0.06045366823673248
4.485883712768555,-0.9014397263526918,9.784595489501953,-0.3191875219345093,-0.5651565194129945,0.07398851215839386
4.638003349304199,-1.3063169717788699,9.66091060638428,-0.34260886907577515,-0.5892837047576904,0.08741583675146104
4.670788288116456,-1.0091586112976074,9.713153839111328,-0.34063896536827093,-0.6203937530517578,0.11637487262487413
4.46125364303589,-1.2750325202941895,9.538125991821289,-0.37029731273651123,-0.6390992999076844,0.14202363789081576
4.421401023864746,-1.246481537818909,9.610569953918459,-0.34745484590530396,-0.7123840451240541,0.13385224342346191
4.570486068725586,-1.6693346500396729,9.45543956756592,-0.34698292613029486,-0.7517783045768739,0.14638635516166687
4.4672136306762695,-1.5567245483398438,9.345279693603516,-0.32182869315147405,-0.8441677093505859,0.1082657352089882
4.075547695159913,-2.1435914039611816,9.001781463623047,-0.28533235192298895,-0.9207408428192139,0.08027386665344238
4.420630931854249,-1.7456771135330202,9.297329902648928,-0.26070618629455566,-1.0329085588455202,0.06195991486310959
3.9826939105987553,-1.8429669141769411,8.93194580078125,-0.20926380157470703,-1.1563570499420166,0.03218327090144158
4.758796215057374,-1.9280334711074831,9.1333703994751,-0.18802836537361145,-1.2517112493515017,0.006121471524238586
5.000601768493652,-2.081777572631836,8.80141353607178,-0.12485557049512865,-1.283168077468872,-0.020012546330690384
5.290997028350831,-1.4834984540939333,8.82786750793457,-0.1277355402708054,-1.2995569705963135,-0.056286986917257316
5.316271781921387,-2.0846421718597417,8.351338386535646,-0.15909300744533542,-1.2676154375076296,-0.06343606114387512
6.006486415863038,-1.8504650592803955,8.402527809143068,-0.13238643109798434,-1.2443206310272217,-0.08095554262399675
5.789849281311035,-2.2336292266845703,8.3677453994751,-0.1253960877656937,-1.1862361431121826,-0.07454706728458405
6.095592498779297,-1.9808590412139893,8.200017929077148,-0.07588275521993638,-1.124640703201294,-0.0780373439192772
6.396870136260987,-2.2468457221984863,8.003698348999023,-0.06522582471370697,-1.0319323539733887,-0.07949360460042955
6.273029327392578,-2.513378620147705,7.759269714355469,-0.01895340718328953,-0.9327571392059326,-0.12859527766704562
6.465380191802979,-2.368022680282593,7.808208942413331,0.011733521707355978,-0.8200794458389282,-0.17310425639152527
6.159643173217773,-2.447521686553955,7.825193405151367,0.03475039079785348,-0.744174599647522,-0.20263950526714328
6.447259902954102,-2.137642145156861,7.936471462249757,0.04802099987864495,-0.7030658125877381,-0.2237808108329773
6.42857313156128,-1.9345817565917969,8.01188373565674,0.07230331003665924,-0.6406564116477967,-0.24487784504890442
6.448419094085694,-2.0709495544433594,7.967195987701417,0.09802849590778351,-0.5867585539817811,-0.27439978718757635
6.55799674987793,-1.9837173223495486,8.005372047424318,0.13522738218307495,-0.5368487238883973,-0.30208712816238403
6.615568637847901,-2.1173653602600098,7.724699497222901,0.17006249725818637,-0.4872258603572846,-0.33899128437042236
6.590097904205323,-1.5462406873703005,7.891483783721925,0.19614490866661072,-0.46209064126014715,-0.33756721019744873
6.2742509841918945,-1.114382028579712,8.107431411743164,0.17861860990524292,-0.4622358977794648,-0.32783392071723944
5.958939552307129,-1.1491336822509766,8.5342493057251,0.15390250086784363,-0.49798604846000677,-0.31564146280288696
5.936100959777832,-1.9500107765197754,8.356697082519531,0.16217960417270663,-0.5650883316993714,-0.3450084924697876
6.60321855545044,-1.4811723232269287,8.00258541107178,0.19470703601837158,-0.6091038584709169,-0.3785446882247925
6.585490703582765,-1.27787446975708,7.9094343185424805,0.2061356455087662,-0.5988774299621582,-0.4060249328613281
6.741139888763429,-1.2685745954513552,7.7453017234802255,0.2247358411550522,-0.5961509943008423,-0.4307753145694733
6.391923427581788,-0.8277859687805176,8.195898056030273,0.2252122461795807,-0.6224924325942993,-0.4323317110538483
6.125105857849121,-1.609577536582947,8.502534866333008,0.25037857890129095,-0.6944994926452637,-0.4425134360790253
5.839547634124757,-1.8593976497650146,8.217360496520998,0.320357084274292,-0.8082789778709413,-0.47230747342109686
6.385571956634522,-1.4158344268798828,8.220208168029787,0.35083699226379395,-0.9122390151023866,-0.5135518312454224
6.591343879699707,-1.4233566522598269,8.027571678161623,0.3907392621040344,-0.9926315546035767,-0.5421780943870546
6.7343339920043945,-1.3212780952453613,7.926919460296632,0.40937525033950806,-1.07047975063324,-0.5574287176132202
6.337931156158448,-1.5370751619338991,8.071215629577638,0.4489726424217224,-1.1681350469589236,-0.5940731167793275
6.238830089569093,-1.8547812700271609,8.225042343139648,0.5319576263427734,-1.3213359117507937,-0.6177281141281128
6.343205451965332,-1.3477530479431152,8.269033432006836,0.6086739897727967,-1.535389065742493,-0.661927342414856
6.376324653625488,-1.36873197555542,8.409177780151367,0.6847496628761293,-1.794226884841919,-0.7042524218559266
6.31037712097168,-1.03718900680542,8.39931869506836,0.7730481028556825,-2.1238198280334473,-0.748701810836792
6.475340366363526,-0.4290422797203064,8.270764350891115,0.8500036597251893,-2.5297694206237793,-0.7763400673866273
6.433983325958253,-0.12432114779949188,8.668479919433594,0.8545583486557007,-2.978178024291992,-0.7716293931007386
6.9934539794921875,0.498407781124115,8.290245056152344,0.8601479530334473,-3.462404012680054,-0.7484444379806519
9.486836433410646,0.9890332221984863,9.181826591491701,0.794257402420044,-3.965908765792847,-0.544386923313141
8.383668899536133,1.6470143795013428,9.771107673645021,0.6672282218933105,-4.406992435455323,-0.22777900099754333
11.176966667175295,2.124882221221924,10.683982849121094,0.4368764460086823,-4.506453037261964,0.0131048783659935
13.373301506042482,1.5379259586334229,10.592894554138185,0.15229347348213196,-4.1652283668518075,0.12394395470619202
16.31474876403809,0.0026249438524246216,10.40794086456299,-0.19856035709381104,-3.814234018325806,0.24922417104244235
22.406408309936527,2.407249927520752,10.689006805419922,-1.046119570732117,-3.380342960357666,0.6313543915748597
19.89813041687012,-0.2622106075286865,8.545394897460938,-1.9426075220108034,-2.980270147323609,0.7342456579208374
18.593568801879886,-0.3548051714897156,8.646698951721193,-2.616338968276978,-2.630171775817871,0.5574101805686952
15.127648353576662,-3.9578957557678223,0.2611891031265259,-2.7117958068847656,-2.70936131477356,0.08030635863542558
18.591615676879886,-3.503456354141236,-2.148663759231568,-1.7236218452453613,-3.0293886661529545,-0.7910335063934326
18.755165100097656,-4.216121673583984,-3.8453292846679688,-0.11764644086360931,-3.4621119499206543,-1.891569256782532
20.14772987365723,-2.37999701499939,-2.245283603668213,1.195077657699585,-3.8750140666961674,-2.718222141265869
23.69328880310059,0.45488628745079046,-0.8922395110130311,2.061136245727539,-4.391482830047608,-3.535706758499146
30.357267379760746,1.2140444517135622,9.519000053405763,2.0425093173980717,-4.142645835876465,-3.7515051364898686
23.63096427917481,1.9380694627761843,9.342661857604982,1.4724959135055544,-3.3124153614044194,-3.65228271484375
21.594213485717777,1.3857444524765017,9.677562713623047,0.6656677126884462,-2.917349338531494,-3.5151841640472417
17.928407669067386,-0.27097192406654363,9.466350555419922,-0.027607968077063564,-2.459782123565674,-3.3571295738220215
14.626754760742188,-2.4486093521118164,8.762922286987305,-0.5002612471580506,-2.189713478088379,-3.202949762344361
12.27055072784424,-5.490344524383546,8.834495544433594,-0.5281784534454346,-1.9962127208709717,-3.0306098461151127
10.724224090576172,-7.724124908447266,9.2318115234375,-0.11904114484786987,-1.790669083595276,-2.809647560119629
9.225258827209474,-9.034721374511719,10.147369384765625,0.5996822714805604,-1.419755220413208,-2.509303569793701
7.364551544189453,-8.761924743652344,11.1714563369751,1.346546769142151,-0.9476197957992554,-2.141241312026978
6.390602588653565,-7.367558002471925,12.810904502868654,1.747106194496155,-0.3820683062076569,-1.6072056293487549
5.463749408721925,-5.184892177581788,13.560742378234865,1.7425663471221924,0.3944415152072907,-0.9801952838897705
2.1566092967987065,-3.6858170032501225,12.891930580139162,1.3419477939605713,1.1793402433395388,-0.40660580992698675
-1.7763667106628418,-3.2538311481475835,11.025724411010742,0.8333040475845337,1.6508547067642214,0.0354771763086319
-4.162314414978027,-3.415414333343506,9.126240730285646,0.3711916208267212,1.8304226398468018,0.36615398526191717
-4.347383499145508,-3.383433103561402,8.326903343200685,0.045345962047576904,1.9403969049453738,0.6149774789810181
-3.86044716835022,-3.5802364349365234,7.965466976165772,-0.15537284314632419,2.096067428588867,0.8420939445495605
-3.560270309448242,-3.9188923835754395,7.8877224922180185,-0.22248940169811252,2.2676024436950684,1.059277415275574
-3.347583770751953,-3.6270546913146973,7.804131507873535,-0.19732001423835754,2.488008499145508,1.256789803504944
-3.228823184967041,-2.629178524017334,7.81374454498291,-0.17881962656974792,2.724108457565308,1.4086637496948242
-2.7366652488708496,-1.7237625122070312,8.086139678955078,-0.2628247141838074,2.9597589969635014,1.510402321815491
-2.026901006698609,-1.3124755620956423,8.344823837280273,-0.3994581699371338,3.2542755603790288,1.5307390689849854
-1.7199162244796755,-0.7060168385505677,8.14308834075928,-0.5233771204948426,3.5761582851409917,1.4536869525909424
-1.7423977851867676,-0.09486210346221924,7.641901493072511,-0.6857811212539673,3.8468787670135502,1.343407392501831
-1.506684184074402,0.22805757820606234,7.396326065063477,-0.8915404081344604,4.020338535308839,1.2166947126388552
-0.6188511848449707,0.26882883906364446,7.627677440643311,-1.1277505159378054,4.155242919921875,1.1088095903396609
0.38427555561065674,0.06699717044830322,7.958108901977539,-1.3182165622711182,4.329512596130371,1.0257815122604372
1.0702292919158936,-0.1950390636920929,8.24049186706543,-1.4466397762298584,4.503068447113038,0.9533427953720093
2.0079517364501953,-0.49672502279281616,8.62775993347168,-1.5351977348327637,4.664523601531983,0.9116331934928895
2.909074306488037,-0.5909201502799989,8.952851295471193,-1.5786453485488894,4.819347381591797,0.8905128836631776
3.58693790435791,-0.29818350076675415,9.328902244567873,-1.6470640897750857,4.94749402999878,0.9093093872070312
4.522200107574464,0.0690823346376419,9.896862983703615,-1.7776446342468262,5.0563673973083505,0.9674482345581055
5.550657272338867,0.483497679233551,10.446182250976562,-1.9385703802108767,5.149537086486816,1.04250168800354
6.497476100921632,1.1647121906280518,10.667032241821289,-2.1026937961578374,5.2108259201049805,1.0926836729049685
7.29747200012207,1.676068425178528,10.775856018066406,-2.2263593673706055,5.206475257873535,1.0802823305130007
8.224947929382326,2.441165685653687,11.32586669921875,-2.3068807125091557,5.138964653015137,0.9655585885047914
9.855855941772461,3.7391648292541504,12.462745666503906,-2.387673139572144,5.065585136413574,0.7530643939971924
11.642404556274414,5.480431079864503,13.624619483947756,-2.583786249160767,5.014340400695801,0.44910928606987005
13.009762763977053,7.770543098449707,13.941967964172365,-2.981439828872681,4.936030864715577,0.051818013191223145
14.208805084228516,9.472396850585938,13.496644973754883,-3.524702548980713,4.742532253265382,-0.46385645866394043
16.47232437133789,10.239809036254883,13.4435510635376,-4.0106401443481445,4.449675083160401,-1.054195046424866
17.86288642883301,10.497683525085451,12.873729705810547,-4.243468284606934,4.161612033843995,-1.721181869506836
18.29704093933106,11.421058654785156,11.85559940338135,-4.256085395812988,3.843186855316162,-2.412896871566773
19.449708938598636,13.287283897399904,10.845435142517092,-4.340184688568116,3.5151095390319824,-2.9645669460296635
20.334049224853516,14.548011779785156,9.159522056579592,-4.593001365661621,3.2018973827362065,-3.284578084945679
20.232452392578125,14.007538795471193,6.27742624282837,-4.750055789947511,2.8255414962768555,-3.355307817459107
19.64260292053223,12.513466835021974,3.4673626422882085,-4.574156284332276,2.357566118240357,-3.2475461959838867
19.51128196716309,10.29369640350342,1.627094864845276,-4.0318007469177255,1.8622493743896484,-3.0585377216339116
19.07714653015137,8.797190666198732,-0.16905087232589722,-3.2868051528930664,1.3833166360855105,-2.824809789657593
17.678428649902344,8.310073852539062,-2.6742880344390874,-2.652956962585449,0.8624830842018129,-2.478853702545166
17.554449081420902,-6.697234153747559,-6.33354139328003,-0.5852771997451782,0.022586587816476822,-2.091105699539185
19.29219245910645,3.9190149307250977,-9.96644401550293,3.2320961952209473,-0.9005323052406312,-2.412220001220703
18.59839630126953,13.827786445617678,0.3228135108947754,4.579498767852784,-1.1849164962768555,-2.430968761444092
20.710033416748047,-6.5367188453674325,24.56134796142578,5.468945503234863,-0.0593998245894909,-2.4553580284118652
11.028974533081055,-3.081510543823242,26.231277465820312,2.730965375900269,0.6451703906059266,-0.9286895990371704
-6.080667972564698,-3.7812795639038086,5.251183032989503,1.511937141418457,-0.22997467219829562,-0.6479501724243164
10.342523574829102,9.14126205444336,17.020221710205078,1.5591214895248415,-1.0506880283355713,-0.8479409217834473
9.487224578857422,16.265977859497074,15.028867721557617,0.6733317375183105,0.06030328944325448,-0.4175608158111572
