AccX,AccY,AccZ,GyrX,GyrY,GyrZ
0.00011694933346007019,-3.6911813367623836e-05,0.0002725352242123336,-1.5890261551021467e-08,-2.0120823762681542e-07,-2.3029197393498182e-07
4.125655174255371,-1.3201810121536257,9.65537738800049,-0.0022441809996962547,-0.006469792220741511,-0.008581971749663353
4.1283936500549325,-1.330517649650574,9.654281616210938,-0.00012863849406130612,-0.0089679304510355,-0.009585137479007246
4.120999336242676,-1.3255870342254639,9.657527923583984,-0.0006047575152479113,-0.008336558938026428,-0.008341007865965368
4.13941764831543,-1.3125536441802979,9.661318778991701,-0.0017390039283782244,-0.010906261391937734,-0.009611831046640875
4.139206409454347,-1.307051658630371,9.633012771606445,-0.003422051435336471,-0.012525400146842003,-0.007522090803831817
4.139749050140382,-1.315228581428528,9.648360252380373,-0.002598353661596775,-0.010853834450244904,-0.007733750622719527
4.142514228820801,-1.3128461837768555,9.644701957702638,-0.001134135643951595,-0.011075187474489212,-0.008504363708198072
4.133611679077148,-1.3150720596313477,9.652703285217287,-0.0012739413650706413,-0.01034175232052803,-0.008806869387626648
4.140006542205811,-1.2919862270355225,9.64173984527588,-0.0009076573769561947,-0.0103908721357584,-0.0084516191855073
4.142638683319093,-1.3154734373092654,9.631044387817383,-0.001451289630495012,-0.011196506209671499,-0.008918242529034615
4.127289772033691,-1.3405954837799072,9.625258445739748,0.0008001987589523196,-0.00797137897461653,-0.007218776270747185
4.116504192352296,-1.3341147899627686,9.621953964233398,-0.0007606245344504714,-0.008123039267957212,-0.009130568243563177
4.143479347229004,-1.3424420356750488,9.667344093322756,-0.001304202014580369,-0.010708394460380079,-0.010396735742688179
4.155825138092042,-1.3333520889282227,9.67821788787842,0.00019508686091285202,-0.009841698221862318,-0.011025108397006989
4.120850086212159,-1.357679843902588,9.65894889831543,0.0019636952783912425,-0.008122945204377174,-0.011517214588820936
4.0959625244140625,-1.3409372568130495,9.663577079772951,0.003559089964255691,-0.01023164577782154,-0.011857656762003899
4.14613151550293,-1.3022489547729492,9.635441780090334,0.001286384533159435,-0.011666243895888329,-0.012483275495469572
4.141940593719483,-1.2599147558212282,9.649107933044435,-0.0009385812445543708,-0.013310705311596395,-0.012406894937157631
4.151611804962159,-1.309047341346741,9.641638755798342,0.0006499338196590543,-0.01402112375944853,-0.010041359812021255
4.129081249237061,-1.3288218975067139,9.649467468261719,-0.0031182488892227416,-0.013895837590098381,-0.01091119647026062
4.142240047454835,-1.364748239517212,9.646410942077638,-0.0016062338836491108,-0.013365692459046842,-0.010706435889005661
4.137982845306397,-1.3385325670242312,9.650469779968263,0.0005331174470484257,-0.015588656067848206,-0.010946516878902914
4.131773471832276,-1.3244010210037234,9.657148361206055,0.0006730156601406635,-0.015920404344797134,-0.013083505444228651
4.146819591522218,-1.3082691431045534,9.634676933288576,-0.0006448242929764093,-0.015757184475660324,-0.014339981600642204
4.136418819427491,-1.3340520858764648,9.654403686523438,0.0015330077148973942,-0.01527927350252867,-0.012970386072993279
4.141822338104249,-1.3097007274627686,9.659775733947756,0.001651764032430947,-0.014565031044185163,-0.012303948402404785
4.136399745941163,-1.3073045015335085,9.627843856811523,0.0011430790182203054,-0.013012451119720938,-0.011169901117682457
4.128569602966309,-1.3138504028320312,9.652782440185547,0.0011046159779652955,-0.01191532239317894,-0.012181650847196579
4.118145465850831,-1.3308094739913943,9.634357452392578,0.004495050758123398,-0.012063506059348585,-0.013108659535646439
4.107323169708253,-1.3244953155517578,9.63976573944092,0.001904312404803932,-0.014674629084765913,-0.014341441914439201
4.158642768859863,-1.2778099775314333,9.657485008239748,0.001683296752162278,-0.016371291130781174,-0.014736357145011427
4.144107341766358,-1.2737451791763308,9.678491592407227,-0.0005931977648288012,-0.016041105613112453,-0.012538493610918524
4.1268815994262695,-1.3313326835632324,9.632765769958498,-0.0008935899240896106,-0.01754674129188061,-0.012187710031867027
4.145597934722901,-1.3101353645324707,9.654368400573732,-0.002163093769922853,-0.017670238390564922,-0.012152621522545815
4.132761001586914,-1.3336546421051025,9.66304111480713,-0.0014640858862549067,-0.017643468454480175,-0.012786760926246643
4.145647048950195,-1.343372941017151,9.673502922058107,-0.0011086390586569907,-0.01877458766102791,-0.012974170967936516
4.164041042327882,-1.3065123558044434,9.640451431274414,-0.00027142983162775636,-0.017945272848010067,-0.012733148410916328
4.13727903366089,-1.3310410976409912,9.639071464538576,-0.00013999850489199162,-0.014491833746433258,-0.014725050888955595
4.177406787872315,-1.3062551021575928,9.674593925476076,0.00241011125035584,-0.012582546100020409,-0.013847521506249906
4.131560802459718,-1.3170158863067627,9.625704765319826,0.002663277788087726,-0.015001818537712097,-0.013839077204465866
4.146823883056641,-1.3353285789489746,9.63121223449707,0.003930103033781052,-0.012973266653716566,-0.014418743550777435
4.159778594970703,-1.3126291036605837,9.65018081665039,0.0038061279337853198,-0.012155695818364622,-0.013947201892733574
4.133504390716554,-1.3150190114974978,9.661796569824219,0.0031115892343223095,-0.011620127595961096,-0.015925195068120956
4.145229339599609,-1.3130359649658203,9.65567398071289,0.001993818441405893,-0.01252993755042553,-0.015232903882861137
4.148686408996582,-1.2982709407806396,9.678117752075195,0.0016205984866246583,-0.012928154319524765,-0.012987581081688406
4.172866344451905,-1.3058803081512451,9.67982578277588,0.00034809362841770053,-0.011186420917510986,-0.012263174168765547
4.139592647552491,-1.2997615337371826,9.640578269958498,0.0018042196752503516,-0.012076813727617264,-0.01254341844469309
4.163984775543214,-1.2938849925994873,9.670443534851076,-0.000380687793949619,-0.01272803358733654,-0.013110553845763206
4.137789726257324,-1.3142991065979004,9.639218330383303,-0.0003195095632690937,-0.01327371597290039,-0.010364339686930181
4.139191150665284,-1.3249433040618896,9.64350986480713,-0.0017230934463441372,-0.014467179775238037,-0.010755519382655622
4.140162944793702,-1.3242713212966921,9.658514022827148,-0.0018381323898211124,-0.015357138589024544,-0.011627617292106153
4.14845085144043,-1.2992894649505615,9.629406929016115,0.0005995684769004583,-0.017105052247643474,-0.011425218544900419
4.153206825256348,-1.3141207695007324,9.6283655166626,-0.000503355811815709,-0.016268298029899597,-0.013525105081498625
4.156984329223633,-1.3286199569702148,9.667983055114748,-1.4222896425053477e-05,-0.01646769419312477,-0.012251839973032476
4.164518833160401,-1.3277224302291872,9.638481140136719,0.0025558224879205227,-0.014840579591691496,-0.014088897034525871
4.162143707275391,-1.2892005443572998,9.62226676940918,0.0026779875624924902,-0.013137517496943474,-0.013718200847506523
4.155595779418945,-1.313650727272034,9.65126132965088,0.0019450293621048333,-0.011258240789175034,-0.012713053263723852
4.148053646087647,-1.3290444612503054,9.636301994323732,0.0028324185404926543,-0.012225638143718244,-0.01331772655248642
4.158731460571289,-1.315032958984375,9.657755851745607,0.002353663789108396,-0.011598169803619385,-0.013446287252008917
4.129429817199707,-1.3275171518325808,9.643943786621094,0.003010297426953912,-0.012657398357987404,-0.016108956187963486
4.149585247039796,-1.3131446838378906,9.64585590362549,0.0021824482828378677,-0.014516321010887625,-0.014500629156827927
4.144481658935547,-1.2969230413436892,9.65676498413086,0.002965877996757627,-0.014479476027190687,-0.015012172982096672
4.155003547668457,-1.2954546213150027,9.661425590515138,0.0022210776805877686,-0.014040625654160978,-0.014805236831307411
4.135940074920655,-1.3161346912384033,9.656803131103516,0.0022286646999418736,-0.015466461889445783,-0.014369369484484197
4.150435447692871,-1.3066564798355105,9.66238784790039,0.0014179303543642165,-0.015229236334562302,-0.014180260710418226
4.147404193878175,-1.3093115091323855,9.664609909057617,0.0006358800455927849,-0.01697700470685959,-0.0157079640775919
4.122706413269043,-1.3449478149414062,9.616953849792482,0.0016224617138504982,-0.017532898113131527,-0.01587948575615883
4.131422519683839,-1.337820291519165,9.627430915832521,0.0023073980119079356,-0.018493201583623886,-0.017292898148298264
4.15604066848755,-1.3045854568481445,9.630444526672365,0.003681045258417726,-0.017047427594661713,-0.0207702498883009
4.181318283081055,-1.293757438659668,9.655308723449709,0.006487446837127209,-0.017219141125679016,-0.01883223839104176
4.184329032897949,-1.2647088766098025,9.641982078552248,0.0025563002564013004,-0.01543476711958647,-0.016415804624557495
4.206779479980469,-1.2777185440063477,9.635944366455078,0.0034466958604753017,-0.015375985763967039,-0.014481750316917898
4.172785758972168,-1.2997946739196777,9.639442443847656,0.0016786274500191212,-0.013551483862102033,-0.013216327875852585
4.158703804016113,-1.3034991025924685,9.624008178710938,0.001108905882574618,-0.014604316093027593,-0.013160932809114456
4.142902374267578,-1.3059998750686648,9.632606506347656,0.0025600891094654803,-0.012259053066372871,-0.014360372908413412
4.131810188293457,-1.3433656692504883,9.638212203979492,0.004288225434720516,-0.0150195574387908,-0.015069219283759596
4.137076377868652,-1.3009210824966433,9.685155868530273,0.002222128910943866,-0.017315708100795746,-0.015704153105616573
4.115895748138429,-1.3279839754104616,9.650471687316896,0.0010628246236592531,-0.021029062569141388,-0.017912501469254497
4.144775867462159,-1.2870614528656006,9.669776916503906,-0.00040192774031311274,-0.023037279024720195,-0.01895042508840561
4.169915199279785,-1.2957171201705935,9.653575897216797,-0.002731587737798691,-0.025757534429430965,-0.018939005210995678
4.182910919189453,-1.2602103948593142,9.627643585205078,-0.0030352089088410143,-0.02754965052008629,-0.01787299104034901
4.158564567565918,-1.2846282720565798,9.631204605102539,-0.0037937392480671406,-0.028489265590906143,-0.016002761200070385
4.184928417205811,-1.2821549177169802,9.621735572814943,-0.005575298797339202,-0.027568411082029343,-0.017148012295365337
4.163995742797852,-1.307659387588501,9.62336540222168,-0.0036393927875906233,-0.0265706367790699,-0.017490893602371216
4.166379928588867,-1.3447301387786865,9.668867111206055,-0.003818867495283485,-0.02873881161212921,-0.017484890297055248
4.178014278411866,-1.3223069906234743,9.629872322082521,-0.0015430389903485775,-0.029955904930830002,-0.021031429991126064
4.1880764961242685,-1.2870962619781494,9.630215644836428,-0.0023551976773887877,-0.0277550108730793,-0.0191411878913641
4.1989593505859375,-1.2721568346023562,9.631978034973146,-0.0010027822572737932,-0.02569021470844746,-0.019409125670790676
4.2101502418518075,-1.2974985837936404,9.621217727661133,-0.0012567106168717146,-0.023990513756871227,-0.017347436398267746
4.176823616027832,-1.3120861053466797,9.621875762939453,-0.0015918971039354801,-0.02282905951142311,-0.01650001294910908
4.1831326484680185,-1.3422071933746338,9.624003410339357,-0.00036520717549137777,-0.020963482558727264,-0.017634117975831035
4.147503376007081,-1.3554478883743288,9.6222620010376,0.0031599965877830982,-0.021774793043732647,-0.01941570080816746
4.185796260833741,-1.3685846328735352,9.713706970214844,0.003974618390202522,-0.02119786106050015,-0.02013779804110527
4.171375274658203,-1.2937583923339844,9.633349418640138,0.004274321720004082,-0.01960434764623642,-0.02041113562881947
4.188977718353272,-1.2864800691604616,9.639959335327148,0.004245031625032425,-0.02055107988417149,-0.0204785019159317
4.214311599731445,-1.286545991897583,9.643548011779787,0.0030204239301383495,-0.020503496751189235,-0.02088195271790028
4.232318878173828,-1.251802921295166,9.644554138183594,0.001166868372820318,-0.017841380089521408,-0.016937935724854473
4.223502635955811,-1.2782375812530518,9.645509719848633,-0.0015886635519564152,-0.017412707209587097,-0.014714882709085943
4.214580059051515,-1.2731176614761355,9.637187957763672,-0.0022131139412522316,-0.013802678324282171,-0.013481859117746353
4.181082248687745,-1.3354631662368777,9.648110389709474,-0.0009827940957620742,-0.011678926646709442,-0.010646728798747063
4.200128078460694,-1.3576381206512451,9.651963233947756,0.0033625562209635977,-0.011962952092289925,-0.014534275047481062
4.1926116943359375,-1.2966701984405518,9.637518882751467,0.002494640881195665,-0.006141772028058768,-0.013682164251804352
4.185408592224121,-1.3155516386032107,9.596970558166506,0.004355870187282562,-0.007862242870032789,-0.013174602761864662
4.185406684875488,-1.2958829402923584,9.615501403808594,0.00687723234295845,-0.006246837321668864,-0.0141283730044961
4.2242841720581055,-1.2584694623947146,9.629616737365724,0.005935790482908488,-0.006109606474637985,-0.014980276115238668
4.203940391540527,-1.282011389732361,9.625380516052248,0.0035738032311201096,-0.004386398941278458,-0.009535021148622038
4.204902172088624,-1.2939589023590088,9.65776252746582,0.00610984629020095,-0.004300530068576336,-0.009007415734231474
4.172331333160401,-1.2668886184692383,9.634273529052734,0.00025742777506820863,-0.00650115218013525,-0.009377438575029373
4.157981872558594,-1.3156982660293581,9.617061614990234,0.0008900928660295905,-0.006647211499512196,-0.009732698090374471
4.174652576446534,-1.3200037479400635,9.645709037780763,0.002106386469677091,-0.007449474651366473,-0.00929776206612587
4.141184329986573,-1.2992463111877441,9.64889907836914,0.002424496458843351,-0.008240951225161552,-0.010104705579578878
4.156742095947266,-1.302002787590027,9.629683494567873,0.0005053707864135504,-0.00990161579102278,-0.011962720192968847
4.191696643829347,-1.302873492240906,9.625378608703615,0.0013919221237301826,-0.01038580294698477,-0.012814559042453766
4.157885074615479,-1.2926969528198242,9.646041870117188,0.002328484784811735,-0.00995585136115551,-0.01246816758066416
4.180638313293457,-1.300077557563782,9.63284683227539,0.0015525956405326726,-0.011557236313819885,-0.01269852463155985
4.1667447090148935,-1.326078534126282,9.626901626586914,0.002420310862362385,-0.013194060884416105,-0.013840549625456335
4.19698190689087,-1.2966378927230837,9.644114494323732,0.0036131984088569884,-0.01335972175002098,-0.016051521524786953
4.211905479431152,-1.246809482574463,9.632513046264648,0.0024949943181127314,-0.011034441180527212,-0.015810072422027588
4.219817638397218,-1.270380973815918,9.612077713012695,-7.825793727533893e-05,-0.008694726973772049,-0.01318206172436476
4.208559513092042,-1.2774605751037598,9.627852439880373,0.001970187528058887,-0.007121682167053223,-0.011360034346580505
4.183921813964844,-1.2927283048629763,9.623380661010742,0.0008599003194831313,-0.0056744348257780075,-0.009322811849415304
4.177524089813233,-1.3124922513961794,9.64334011077881,0.0020717764273285866,-0.00779997743666172,-0.01103078667074442
4.178365707397461,-1.3209770917892458,9.629491806030273,0.0024334797635674477,-0.009148425422608854,-0.011352671310305595
4.179448127746582,-1.3113727569580078,9.627017974853516,0.004434389062225819,-0.00957829598337412,-0.013758015818893911
4.197389602661133,-1.2760944366455078,9.626806259155273,0.003811218310147524,-0.009650980122387411,-0.01171460747718811
4.192779541015625,-1.278015971183777,9.650904655456545,0.00142611563205719,-0.008322257548570633,-0.012315115891397001
4.194864273071289,-1.2941776514053347,9.646133422851562,4.556847852654755e-05,-0.00730286492034793,-0.010004175826907158
4.167354583740234,-1.3301903009414675,9.626733779907227,0.0006253450410440564,-0.00711909355595708,-0.01054495293647051
4.172892093658448,-1.329620361328125,9.624641418457031,0.004838364198803902,-0.010779668577015402,-0.011571433395147324
4.158643245697022,-1.3168314695358279,9.62966537475586,0.005047535989433528,-0.009683928452432157,-0.014829428866505623
4.178849220275879,-1.308186173439026,9.644733428955078,0.006008488591760398,-0.009828099980950356,-0.016452210023999218
4.1946759223938,-1.2524133920669558,9.66496467590332,0.007049218751490116,-0.008894645608961584,-0.017121380195021633
4.219327449798585,-1.2737702131271365,9.638132095336914,0.004374404903501273,-0.006246150471270084,-0.013347317464649679
4.2079267501831055,-1.2707388401031494,9.62020015716553,0.0051486422307789334,-0.006372255738824607,-0.01278921402990818
4.208331584930421,-1.266019940376282,9.631402969360352,0.003181516891345382,-0.004882903769612312,-0.011621429584920408
4.193886756896973,-1.2673567533493044,9.60889530181885,0.0023690643720328808,-0.0035541367251425986,-0.010380233637988569
4.188982963562012,-1.28706693649292,9.619591712951662,0.0020554191432893276,-0.0021143539343029265,-0.009685574099421501
4.151327133178711,-1.3251941204071045,9.645129203796388,0.0023888957221060996,-0.001697176485322416,-0.008902143687009811
4.202514171600343,-1.3122481107711794,9.622869491577148,0.006817813497036696,-0.001975124701857567,-0.010928048752248289
4.1787919998168945,-1.276444911956787,9.648954391479492,0.006729274056851864,-0.002828293247148395,-0.011872495524585249
4.157914161682129,-1.2803277969360352,9.657956123352053,0.007853333838284017,-0.0034331209026277065,-0.011447723023593427
4.219988346099854,-1.2704837322235107,9.641213417053224,0.007228808943182231,-0.0026231661904603247,-0.008483225479722023
4.220924854278565,-1.2529480457305908,9.633673667907717,0.004533485975116492,-0.0009682284435257316,-0.007732443977147342
4.1760830879211435,-1.2877026796340945,9.640425682067873,0.004022817593067885,-0.0001188619207823649,-0.007835837081074715
4.17071533203125,-1.3271638154983523,9.652199745178224,0.005882409866899253,-0.00022581018856726587,-0.006962494459003211
4.190162658691406,-1.266914248466492,9.640500068664553,0.006025965325534344,0.0034147831611335278,-0.008990974165499212
4.219286918640137,-1.2374742031097412,9.673349380493164,0.004337887279689312,0.004409301560372115,-0.005548612214624882
4.202474117279054,-1.2904596328735352,9.61373043060303,0.004168380517512561,0.009363913908600807,-0.0006403130246326327
4.2722368240356445,-1.2283117771148682,9.639787673950195,0.004576261155307293,0.014947989024221899,0.0036262767389416695
4.276090145111085,-1.236199736595154,9.627835273742678,0.00420796126127243,0.025763999670743942,0.009308370761573316
4.31852674484253,-1.3328227996826172,9.604039192199709,0.011783061549067497,0.0418444685637951,0.015002645552158356
4.23421335220337,-1.27549409866333,9.548338890075685,0.02199830487370491,0.06283728033304216,0.01958996988832951
4.204035758972168,-1.2344765663146973,9.619355201721193,0.02850087359547615,0.07273828238248826,0.023764006793498993
4.294604778289796,-1.1208025217056277,9.599721908569336,0.030283063650131226,0.08458197116851807,0.030482171103358272
3.9791290760040288,-1.3888914585113525,9.467296600341797,0.03736359998583794,0.09180174767971039,0.029901700094342235
3.9266707897186284,-1.436026215553284,9.652442932128906,0.04436863213777542,0.08403826504945756,0.01703259162604809
4.052410602569581,-1.3261803388595583,9.744161605834961,0.043153196573257446,0.07758688181638719,0.0076476456597447395
4.140668392181397,-1.267371416091919,9.640685081481935,0.04319940879940987,0.07156097143888475,0.008337920531630516
4.20162296295166,-1.1278421878814697,9.595335960388185,0.04295934736728668,0.07916840165853502,0.013911524787545204
4.323200702667237,-1.1502076387405398,9.573166847229006,0.04629294574260712,0.09444918483495714,0.029504558071494106
4.208605766296387,-1.3473255634307861,9.550617218017578,0.060188449919223785,0.11664883047342302,0.0401022732257843
4.150640487670898,-1.3479907512664795,9.636344909667969,0.0726955235004425,0.1290486454963684,0.042822029441595084
4.123302936553956,-1.4461669921875,9.639516830444336,0.0865681916475296,0.13912980258464816,0.04208917170763016
4.1062636375427255,-1.3994367122650146,9.726984024047852,0.10329272598028184,0.14360526204109192,0.038200609385967255
4.139148712158203,-1.3033273220062256,9.747107505798342,0.11592860519886017,0.14618177711963656,0.036259137094020844
4.057018756866456,-1.2235742807388308,9.833276748657227,0.12220288813114166,0.1496553122997284,0.035989288240671165
4.0976834297180185,-0.9828496575355531,9.871984481811523,0.11729255318641663,0.14441980421543124,0.04364897310733795
3.936962127685547,-1.001268267631531,9.831082344055178,0.10559578984975816,0.1366344690322876,0.05271696299314499
3.476919651031494,-1.3406714200973513,9.83958625793457,0.08491966873407365,0.11433331668376923,0.04103789851069451
3.2861266136169434,-1.5667158365249636,9.802129745483398,0.07203090190887451,0.0726616233587265,0.004150104243308307
3.501467704772949,-1.3708765506744385,9.831377029418945,0.06271878629922868,0.031846784055233,-0.02978840656578541
3.823603630065918,-1.0796780586242676,9.911675453186037,0.048650886863470084,-0.0003413125523366034,-0.03838454186916351
3.9853272438049316,-1.0970258712768555,9.838388442993164,0.04544168338179589,-0.010763002559542656,-0.03795344755053521
3.896256923675537,-1.2624843120574951,9.829487800598146,0.05234905332326889,-0.015683002769947052,-0.04252218827605248
3.905426025390625,-1.2526282072067263,9.843505859375,0.04965571314096451,-0.024076191708445552,-0.04514241963624954
3.887100458145142,-1.1564452648162842,9.852407455444336,0.03813093528151513,-0.03201171010732651,-0.04335960000753403
3.962950468063355,-1.1712839603424072,9.744099617004396,0.030912050977349285,-0.03624838590621948,-0.04507923498749734
3.9601259231567383,-1.1004067659378054,9.769846916198732,0.02738158963620663,-0.03553639724850655,-0.04474581778049469
3.9408705234527592,-1.008194923400879,9.706778526306154,0.019866479560732845,-0.037924475967884064,-0.04030871763825417
3.8083407878875737,-1.1522701978683474,9.701618194580078,0.003352975472807884,-0.04273613169789315,-0.03632086887955666
3.6992263793945312,-1.3648381233215332,9.641082763671875,0.001747241010889411,-0.05613240227103234,-0.04513656347990036
3.8454778194427495,-1.1354042291641238,9.695324897766115,-0.004311206750571728,-0.06318005919456482,-0.058015447109937675
4.040899276733398,-1.1235270500183105,9.661914825439453,-0.012699777260422707,-0.06256174296140672,-0.054664693772792816
4.024101257324219,-0.9563616514205933,9.75310802459717,-0.02360023558139801,-0.0626734420657158,-0.047609705477952964
4.0580291748046875,-0.9877281785011293,9.667006492614748,-0.03923574090003967,-0.05880756303668023,-0.03533065319061279
3.95125675201416,-1.169910550117493,9.680090904235842,-0.04660240933299065,-0.06051509454846383,-0.030680909752845764
3.995907783508301,-0.9428887963294984,9.828575134277344,-0.054802872240543365,-0.06530988961458208,-0.028900764882564545
3.9309983253479004,-1.0975255966186523,9.856595039367678,-0.07351792603731157,-0.07726338505744934,-0.0205574668943882
3.9373328685760502,-1.2367210388183594,9.803174018859865,-0.08282124996185303,-0.0929396376013756,-0.022991415113210678
3.9969286918640137,-1.1772711277008057,9.769037246704102,-0.08866849541664124,-0.10035482048988342,-0.024351796135306362
4.118614673614503,-1.1647911071777344,9.719255447387695,-0.0927746668457985,-0.09927234053611755,-0.02148230187594891
3.9403157234191895,-1.2374329566955566,9.580097198486328,-0.08944448828697205,-0.09741904586553575,-0.02223637886345387
3.9915044307708745,-1.0999910831451416,9.714147567749023,-0.09482120722532274,-0.10449747741222382,-0.028880236670374874
3.957488536834717,-1.2012276649475098,9.742650032043459,-0.10370619595050812,-0.11174093186855316,-0.029304662719368938
3.8884496688842773,-1.2299678325653076,9.738720893859865,-0.10295455157756805,-0.12319796532392503,-0.03734131157398224
3.8707182407379155,-1.3431185483932497,9.746561050415039,-0.101326160132885,-0.1383918821811676,-0.049350835382938385
3.677902460098267,-1.486629366874695,9.636344909667969,-0.09568239003419877,-0.15591901540756226,-0.06912969797849657
3.7333323955535893,-1.3568477630615234,9.687629699707031,-0.09133494645357133,-0.18829371035099032,-0.09394916892051697
4.086821079254151,-0.9941785335540771,9.887858390808107,-0.10548359155654907,-0.23310209810733798,-0.08932909369468689
4.027503490447999,-1.0104809999465945,9.909916877746584,-0.13386890292167664,-0.2769347727298737,-0.07725764065980913
4.040946483612061,-1.0470750331878662,9.767765045166016,-0.14780643582344055,-0.31525602936744695,-0.07374636828899384
4.047428607940675,-1.1970440149307253,9.739315032958984,-0.14668765664100647,-0.33878666162490845,-0.0772971883416176
4.274505138397218,-0.9462841749191284,9.663251876831055,-0.15294890105724337,-0.35446029901504517,-0.07712943106889726
4.097598075866699,-0.9844710230827333,9.649779319763185,-0.1775365918874741,-0.37199968099594116,-0.07622945308685303
4.188434600830078,-1.2299726009368896,9.753072738647461,-0.19580426812171936,-0.40043470263481146,-0.08280158042907715
3.9464843273162846,-1.7847821712493896,9.648874282836914,-0.1726263463497162,-0.43080759048461914,-0.10764414817094804
3.8060388565063477,-1.6633418798446657,9.711125373840334,-0.14424024522304538,-0.49283766746520996,-0.16165424883365634
3.9474623203277592,-1.2154312133789062,10.116327285766602,-0.1511615514755249,-0.5937172770500184,-0.17938695847988131
3.800008058547974,-0.9815627336502075,10.220601081848146,-0.18174789845943454,-0.7370257377624512,-0.15844522416591647
3.5153303146362305,-1.3718945980072021,10.092653274536133,-0.19124189019203186,-0.9108676910400391,-0.14752288162708285
3.4219284057617188,-1.5347061157226562,9.916112899780273,-0.18911725282669067,-1.1204355955123904,-0.15860474109649658
3.9534754753112793,-1.23238480091095,9.916880607604982,-0.21010184288024902,-1.2964793443679812,-0.16740213334560397
3.5384883880615234,-1.255927562713623,9.707163810729982,-0.2087502628564835,-1.478405237197876,-0.18515469133853915
4.2110595703125,-0.9546582102775575,10.191187858581545,-0.2284536808729172,-1.6760491132736208,-0.19296187162399292
4.00028133392334,-1.2496345043182373,9.850400924682617,-0.23635931313037875,-1.8356852531433105,-0.21050710976123813
4.184742450714112,-1.2534525394439697,10.250324249267578,-0.23138710856437683,-2.0695736408233647,-0.2526251375675202
4.432253837585449,-1.1254603862762451,10.181385040283203,-0.2329261600971222,-2.2707612514495854,-0.2597578167915344
4.396917343139648,-1.2998425960540771,10.191952705383303,-0.25523966550827026,-2.512179374694824,-0.2617726027965546
4.514670848846436,-1.6153583526611328,10.139759063720703,-0.2809807062149048,-2.7887361049652104,-0.2849247455596924
3.988585233688355,-2.2065708637237553,9.914222717285156,-0.2224569320678711,-3.1147925853729252,-0.3872863352298737
3.870107650756836,-2.0655484199523926,9.482534408569336,-0.060807421803474426,-3.6314632892608647,-0.5593305826187134
4.365643024444581,-2.506689786911011,9.36718273162842,0.15692399442195895,-4.327801227569581,-0.712212085723877
5.700954437255859,-2.4026870727539062,10.15551280975342,0.348793774843216,-5.088193893432617,-0.7814643979072572
7.461713790893555,-2.0257582664489746,11.384756088256836,0.35992869734764105,-5.620715141296387,-0.78436279296875
10.382379531860352,-2.7537760734558105,12.60879898071289,0.19881491363048556,-5.81341552734375,-0.7055945992469789
12.400790214538576,-4.26065731048584,13.134124755859375,0.24420300126075745,-5.709554672241211,-0.6822013258934022
16.271312713623047,-4.080862998962402,14.912585258483888,0.5360727906227113,-5.408535957336426,-0.6757712960243226
20.83000755310059,-4.158805370330811,15.620609283447266,0.8181432485580444,-4.870559215545655,-0.6544800400733949
24.963453292846683,-4.128093719482422,11.359494209289553,1.2469424009323122,-4.428118705749512,-0.6273811459541322
27.637796401977543,-7.796159267425538,6.063282489776612,1.874942183494568,-4.221343517303468,-0.9353047609329224
31.515871047973636,-6.469812870025636,6.558265686035156,2.8691008090972905,-4.0497283935546875,-1.317529082298279
29.038352966308594,-3.0944762229919434,4.316675662994386,3.3076875209808354,-3.6465630531311035,-1.443939208984375
36.06846618652344,3.7931478023529057,6.436887741088867,2.6384065151214604,-3.614072799682617,-1.3684731721878054
38.711753845214844,1.312157988548279,17.966058731079105,1.0640214681625368,-2.114970445632935,-1.2453761100769043
26.87857246398926,0.5920628309249878,14.106970787048342,-0.5297028422355653,-1.1063110828399658,-0.8280978798866273
22.32671356201172,-2.0884592533111577,11.669507026672365,-1.6522634029388428,-0.7167417407035829,-0.6968067288398744
16.236557006835938,-6.25040102005005,9.169581413269045,-1.9049013853073122,-0.6328741312026978,-0.6448158621788026
13.379670143127443,-9.200372695922852,8.310376167297365,-1.3236572742462158,-0.8609415292739868,-0.6981448531150819
12.365819931030273,-9.984180450439453,9.748659133911133,-0.19089314341545105,-0.9353577494621278,-0.7897661924362183
11.051790237426758,-7.125051975250245,11.94398593902588,0.7815207242965698,-0.6983781456947328,-0.7401334643363954
9.311302185058594,-2.9816322326660156,13.216700553894045,1.0916196107864382,-0.1603037714958191,-0.5511907935142518
6.0498247146606445,-0.2517334818840027,12.51549816131592,0.8157415986061097,0.582052767276764,-0.37305372953414917
1.6040875911712646,0.2877428233623505,10.251190185546875,0.4601648449897766,1.251435160636902,-0.3335203528404236
-2.514243841171265,-0.5460896492004395,6.606821537017823,0.331800639629364,1.572407126426697,-0.433482974767685
-6.635909080505371,-0.1985139548778534,2.633874654769898,0.4489127695560456,1.491389274597168,-0.5882908701896669
-7.521839618682862,0.5154373049736024,1.8328282833099365,0.45918238162994385,1.1948204040527344,-0.645258128643036
-6.0320587158203125,0.4082362651824951,3.548660516738892,0.2854161858558655,1.1259475946426394,-0.5152262449264526
-5.135457515716554,-1.324245095252991,4.9126296043396005,0.20134593546390536,1.4372622966766357,-0.3079652190208435
-6.319927692413331,-2.5271131992340092,4.622032165527344,0.33708217740058904,1.841515064239502,-0.13720746338367465
-7.072793483734132,-1.7968127727508545,3.5789499282836914,0.40867206454277044,2.1677343845367436,0.022284045815467834
-8.127693176269531,-0.7034326791763306,1.77689790725708,0.2756024301052094,2.4115238189697266,0.19543348252773288
-8.996847152709961,-0.1896142512559891,-0.06377316266298295,-0.00975428242236376,2.4924888610839844,0.3912040591239929
-9.060997009277344,-0.32272019982337957,-0.5430842638015747,-0.2794021964073181,2.437628507614136,0.570502519607544
-7.545818805694581,-0.6326498389244081,0.6384634375572206,-0.47062593698501587,2.4675331115722656,0.7583630681037904
-6.120944499969483,-1.0930192470550537,1.5565485954284668,-0.5319910049438477,2.680844068527222,0.9364936351776123
-5.313771724700929,-0.9965033531188965,1.6513050794601443,-0.5249818563461304,2.9468410015106206,1.1097830533981325
-4.611632823944093,-0.38966476917266846,1.0782146453857422,-0.5210814476013184,3.1850168704986577,1.2874877452850342
-4.268359661102296,0.1835307478904724,0.06646589189767839,-0.5152075290679932,3.3200387954711914,1.4334834814071657
-3.5656077861785893,1.3240890502929688,-0.1158001571893692,-0.5688151717185975,3.343128204345703,1.5520452260971072
-2.2628397941589355,2.4964153766632085,0.8087437152862549,-0.700646460056305,3.3622641563415527,1.621690034866333
-0.011937569826841354,3.524685621261597,2.060327768325806,-0.8864866495132446,3.461549043655396,1.62803316116333
1.9453207254409792,3.680291175842285,2.6275990009307866,-0.9993812441825868,3.59532904624939,1.54249906539917
3.765435218811035,3.496825456619263,2.709803581237793,-0.9395654797554017,3.693204402923584,1.3427017927169802
5.597346305847168,3.613668441772461,2.6154782772064213,-0.7626401782035829,3.721097946166992,1.0612561702728271
6.923723220825195,4.294929027557374,2.658795595169068,-0.5925053954124452,3.681680202484131,0.7501688599586488
9.152728080749513,4.9328370094299325,3.204033851623535,-0.5686478018760682,3.6002109050750737,0.42964136600494385
12.514638900756836,2.8046278953552246,3.9102840423583984,-0.520760178565979,3.5226061344146733,0.09287722408771515
14.41304111480713,0.503659725189209,3.9227590560913086,-0.20049051940441134,3.378861427307129,-0.15238747000694275
15.72688961029053,-0.165560856461525,3.7670750617980957,0.07845178991556169,3.1073670387268066,-0.23019210994243625
16.58817863464356,-1.3983509540557861,3.454750299453736,0.21529619395732882,2.750250101089478,-0.1380605399608612
16.210769653320312,-2.056729316711426,3.3204002380371094,0.32343971729278564,2.3062555789947514,0.1295962631702423
16.37669944763184,-2.3419480323791504,3.460591077804566,0.34485745429992676,1.8244479894638064,0.5247574448585511
16.107925415039062,-2.61550784111023,3.326049089431763,0.3688246011734009,1.376556992530823,0.9413763284683228
15.003767013549805,-1.5094664096832275,2.3713760375976562,0.3927266895771027,0.9205340743064881,1.2991511821746826
28.197284698486328,4.886131286621094,0.23116037249565125,-0.16885101795196533,0.3042764365673066,1.696598768234253
78.28181457519531,17.208070755004886,33.7973976135254,-2.44687557220459,0.5489338040351869,1.2198191881179812
1.6113330125808718,6.3889265060424805,-0.8387522101402284,-0.20311714708805087,2.2763118743896484,-0.3739663660526276
9.924442291259766,-9.744111061096193,14.361429214477539,0.05642026662826538,1.6184861660003662,0.527948558330536
-9.106970787048342,-9.57712173461914,7.69412660598755,0.033016394823789603,1.160912275314331,0.5774334073066713
-3.422927618026734,2.9714801311492924,12.515904426574709,0.07131869345903398,-0.011850358918309212,-0.031671226024627686
0.7713925242424012,-7.528654098510742,10.95452404022217,0.19574795663356784,-0.339569628238678,-0.7207558751106263
4.659628868103027,-5.720804691314698,10.178059577941896,0.14192435145378113,-0.609295129776001,-0.5134579539299012
4.8734130859375,4.28594732284546,10.368535041809084,0.09165988117456438,-0.6409099102020264,-0.5878190398216249
8.564940452575685,0.2695075273513794,9.091063499450685,-0.01889990270137787,-0.3776748478412629,-0.47199454903602606
8.311861991882326,1.2044130563735964,8.500045776367188,-0.06821949034929277,-0.07917670905590057,-0.16671885550022128
7.439844131469727,1.2628731727600098,8.78520393371582,-0.12344567477703094,0.20777460932731628,0.04308303818106652
6.103400230407715,-2.074502944946289,8.597924232482912,-0.1178640201687813,0.4403824806213379,0.16636149585247043
4.569646835327148,-3.4151816368103027,8.97085189819336,-0.013225072994828224,0.5400846600532533,0.14570321142673495
3.416508197784424,-3.003196477890015,9.716114044189453,0.09559274464845659,0.48394060134887695,0.046474572271108634
3.658566474914551,-1.0002415180206299,10.258469581604006,0.12285499274730682,0.36879420280456543,-0.004572174046188594
3.9372730255126953,-0.5489652752876283,10.156318664550781,0.07428408414125444,0.2649787664413452,0.005400880705565215
4.1078901290893555,-0.8930847644805908,9.858639717102053,0.01760518364608288,0.17799487709999084,0.023744266480207443
4.217967987060547,-1.3065104484558105,9.78391742706299,0.01891841180622578,0.10929083824157715,0.013192608021199705
4.27514410018921,-1.3854323625564577,9.709544181823732,0.032951995730400085,0.06509900093078613,-0.0019086744869127872
4.216049671173097,-1.379789113998413,9.559152603149414,0.04296083748340607,0.04185039922595025,-0.02097804844379425
4.197434425354004,-1.1329294443130495,9.718912124633789,0.043346133083105094,0.005636194720864296,-0.02870122715830803
4.344260215759277,-1.0573929548263552,9.777285575866701,0.0253349170088768,-0.022322302684187893,-0.021067392081022263
4.437735557556152,-1.3231576681137087,9.66542720794678,0.028868662193417553,-0.0790616348385811,-0.030453398823738098
4.42778205871582,-0.9109417200088501,9.643804550170898,0.01883973553776741,-0.05547279492020608,-0.0070909783244132996
4.387368679046632,-1.2147738933563232,9.598191261291506,0.001852993271313608,-0.08915121853351593,0.003817143850028515
4.336904048919679,-1.1957149505615234,9.580571174621584,-0.004582834430038929,-0.09034063667058946,-0.007285861298441887
4.353777408599854,-1.3552637100219727,9.48971176147461,0.0003079756279475987,-0.10808351635932922,-0.015858044847846035
4.545823574066163,-1.2333216667175293,9.426591873168945,0.00631295656785369,-0.1414722204208374,-0.045294288545846946
4.581036090850831,-0.7044901251792909,9.599080085754396,-0.0035154295619577174,-0.11224465072154999,-0.023131228983402252
4.2805328369140625,-1.0838645696640017,9.506989479064943,-0.03848693519830704,-0.13163803517818454,-0.006585326977074146
4.51036024093628,-1.4352490901947021,9.500729560852053,-0.04027286916971207,-0.1643860936164856,-0.013361006043851377
4.769017696380616,-0.9354496002197266,9.625871658325195,-0.04808177053928375,-0.14774186909198764,0.007560262456536293
4.154896259307862,-1.4036704301834109,9.22847080230713,-0.045632284134626395,-0.15299898386001587,0.018231872469186783
4.651854038238526,-1.1746852397918701,9.561605453491211,-0.0568390004336834,-0.1803588569164276,0.01135151367634535
4.7070512771606445,-0.9173169136047363,9.638255119323732,-0.06085129827260971,-0.17104649543762207,0.025749681517481807
4.278862953186035,-1.2613346576690674,9.535551071166992,-0.07907312363386156,-0.17916253209114075,0.035544048994779594
4.344140529632569,-1.4701671600341797,9.417246818542482,-0.06906607747077942,-0.2555509507656098,0.0047987313009798535
4.860753059387207,-0.8545539379119873,9.393832206726076,-0.08959305286407471,-0.24146766960620883,0.017378520220518112
4.649157524108887,-1.3747971057891846,9.266571044921875,-0.10694315284490587,-0.19356523454189303,0.03555973619222641
4.6306352615356445,-1.4365482330322266,9.240913391113281,-0.12284620106220245,-0.18419943749904635,0.0226878821849823
4.3000993728637695,-1.3262795209884646,9.131597518920898,-0.11691654473543169,-0.25991755723953247,-0.012236051261425018
5.114563941955566,-0.20144383609294894,9.82309341430664,-0.17755998671054843,-0.20195570588111877,0.03420286253094674
4.479470252990723,-1.2936205863952637,9.386267662048342,-0.1941426396369934,-0.21897006034851074,0.05764006450772286
4.479983806610108,-1.595322847366333,9.374969482421875,-0.2136944830417633,-0.25493732094764715,0.04093155264854431
3.935865879058838,-1.7262054681777956,9.242855072021484,-0.1805725544691086,-0.41004908084869385,-0.014807915315032005
4.877713203430176,-0.7650414109230043,9.854218482971193,-0.22935654222965243,-0.3734753131866455,-0.00071132235461846
3.9295794963836674,-1.7188618183135986,9.473896980285646,-0.21097883582115173,-0.45132875442504883,-0.007641071919351817
4.527207851409913,-1.4691272974014284,9.437876701354982,-0.2058108150959015,-0.5533969998359681,-0.030228883028030396
3.8048102855682377,-2.015232563018799,8.747411727905273,-0.16074034571647644,-0.7303718924522401,-0.0942041799426079
5.980118751525879,-0.10290061682462694,9.821609497070312,-0.21531672775745395,-0.6447346210479736,-0.06086323037743569
4.830801963806152,-1.055147647857666,9.083559989929201,-0.2305278927087784,-0.6341179013252259,-0.023044653236865997
3.863743305206299,-1.5188558101654053,8.279169082641602,-0.2585890293121338,-0.736508071422577,-0.013647915795445442
5.813683032989503,-1.2459533214569092,10.133350372314453,-0.21230970323085788,-0.8532291650772095,-0.05190717428922653
4.550328254699707,-2.2020337581634526,8.970005989074709,-0.18900792300701144,-0.7812511920928955,-0.08119287341833116
4.501412868499757,-2.205145120620728,8.888965606689453,-0.189855694770813,-0.8833400011062622,-0.14289079606533053
5.057182312011719,-1.7048242092132568,9.150469779968263,-0.15006001293659213,-0.9460920095443726,-0.19738595187664035
4.855483531951905,-1.9659128189086914,9.16159439086914,-0.08328450471162797,-0.9948533773422241,-0.1999826431274414
4.877947807312012,-1.9244045019149782,8.908687591552734,-0.04004493728280068,-1.0811278820037842,-0.23204250633716586
4.823058128356934,-1.8140344619750977,8.664281845092773,0.0322646088898182,-1.285537362098694,-0.29480528831481934
6.481997013092042,-0.4573962688446045,9.35262966156006,-0.012968880124390127,-1.233259916305542,-0.2546758353710175
5.139382362365723,-1.9212290048599245,9.063231468200685,-0.03850283101201058,-1.2716844081878662,-0.20879730582237244
3.7928025722503667,-2.62830662727356,9.129301071166992,0.043493878096342094,-1.5109236240386963,-0.3111542761325837
5.667102813720703,-1.8047704696655273,9.996164321899414,0.0886182263493538,-1.719320893287659,-0.3713894486427307
4.635078430175781,-1.9293186664581299,9.384634017944336,0.08653172850608826,-1.8607429265975954,-0.4007428288459778
4.905221939086914,-2.4086635112762456,9.72024154663086,0.20164452493190768,-2.267547607421875,-0.5768208503723145
4.997528553009034,-2.311970472335816,8.864800453186037,0.26262387633323675,-2.501631736755371,-0.6872083544731141
5.141269683837891,-1.590428113937378,8.721554756164553,0.29328054189682007,-2.8514013290405273,-0.8079676032066346
5.616044998168945,-1.5765897035598757,8.311968803405763,0.3737717270851135,-3.262978315353394,-0.8951801061630249
6.017780303955078,-1.2468111515045166,7.9328627586364755,0.42706984281539917,-3.741167306900025,-0.9345397353172303
6.329213619232179,-1.1414875984191895,8.042490005493164,0.43710187077522283,-4.198301315307617,-0.9488975405693055
7.26538896560669,-0.6702752709388734,7.763278007507324,0.40412470698356634,-4.725773334503175,-0.9078749418258667
7.939565181732179,0.47571539878845215,8.200504302978516,0.3011483848094941,-5.180574417114258,-0.8112841248512269
9.640838623046875,1.3370615243911745,8.846923828125,0.15228997170925143,-5.369572639465332,-0.70821213722229
10.87307643890381,0.5024391412734985,8.823496818542482,-0.014719872735440733,-5.495743751525879,-0.41726908087730413
12.63344955444336,0.6701013445854188,8.938046455383303,-0.18664363026618958,-5.124759674072266,-0.09912493079900743
13.98592758178711,-0.9404873847961426,9.145485877990724,-0.2153458297252655,-4.793358325958253,0.12680506706237793
17.93277359008789,-0.6005269885063172,9.624688148498537,-0.31245166063308716,-4.299771785736085,0.3376151621341706
23.24324989318848,0.10286298394203186,8.763280868530273,-1.0958973169326784,-3.454437255859375,0.7639017701148988
20.878065109252933,-0.9766514301300049,6.372862339019776,-2.0482945442199707,-2.530548095703125,0.9632387757301332
18.264242172241214,-3.1568870544433594,5.461099624633789,-2.7083401679992676,-1.892262101173401,0.7572089433670044
14.584915161132812,-7.042439937591554,-1.5337566137313845,-2.3674976825714116,-2.0493407249450684,-0.0104453694075346
17.072118759155277,-4.943857192993164,-5.330222606658936,-1.2420976161956787,-2.832256078720093,-1.018021821975708
21.008872985839844,-4.388177394866944,-5.738690376281738,0.09595849364995958,-3.5263578891754155,-2.0309343338012695
22.044597625732422,-4.1515398025512695,-4.454852104187012,1.1927790641784668,-3.939903020858765,-2.9158778190612793
28.011495590209964,-2.212696790695191,0.2865740358829499,1.980835556983948,-4.457045555114746,-3.704648017883301
31.355304718017578,2.024347543716431,8.929740905761719,1.550873398780823,-3.815436840057373,-3.879064321517945
24.846559524536136,3.42047119140625,6.854197025299073,0.23717094957828525,-3.0804021358489995,-3.813042163848877
22.41106986999512,1.451128125190735,6.961856365203858,-1.0347962379455566,-2.6803591251373295,-3.8507933616638184
18.213298797607422,-1.4988372325897217,5.658940792083741,-1.829125165939331,-2.48375153541565,-3.798761606216431
15.91474723815918,-4.871475696563722,5.133100986480714,-2.0073275566101074,-2.4884803295135502,-3.8252310752868652
12.816076278686523,-9.251235008239748,5.38355588912964,-1.509458661079407,-2.565700769424439,-3.7794389724731445
10.34576416015625,-11.845778465270998,6.189752578735352,-0.3053234815597534,-2.7363913059234624,-3.613213062286377
9.905824661254883,-11.3226318359375,8.189368247985842,1.0166956186294558,-2.7755255699157715,-3.333470344543457
8.95321559906006,-9.403282165527344,10.25503921508789,1.9285818338394167,-2.5032601356506348,-2.893023252487183
8.223304748535156,-6.6765594482421875,12.651901245117188,2.1824176311492924,-1.8971291780471804,-2.261075973510742
7.605555057525636,-4.542953968048097,14.872672080993654,1.8434616327285769,-0.9017181396484375,-1.458435654640198
5.811201095581055,-4.263501644134522,15.579679489135742,1.2466620206832888,0.3440806269645691,-0.5968555212020874
3.4342856407165527,-5.102420806884766,14.806700706481935,0.7712877988815308,1.5122483968734743,0.1469835638999939
0.04051294922828674,-5.365727424621582,12.744050979614258,0.5702572464942933,2.358005285263062,0.7046216726303101
-3.999021530151367,-5.025912284851074,9.264810562133789,0.6529716849327089,2.8264803886413574,1.06929886341095
-6.540810108184815,-3.7261989116668706,6.434827327728272,0.7984582781791688,2.8634414672851562,1.3057582378387451
-6.710994720458984,-1.7001683712005615,5.155129909515382,0.8045874238014222,2.708676338195801,1.506601691246033
-5.8948564529418945,0.04704535752534866,5.2377943992614755,0.5373693704605103,2.5704407691955566,1.7704814672470095
-5.212467670440675,0.6176086068153382,5.800964832305909,0.17029367387294772,2.5383849143981934,2.0005395412445073
-4.2324724197387695,0.4766700267791748,6.900769233703613,-0.12967407703399658,2.6287534236907963,2.1596305370330815
-3.284674644470215,-0.11836010217666626,7.714943408966065,-0.22935456037521362,2.8915665149688725,2.2256641387939453
-3.0895783901214604,-0.04471088945865631,8.053189277648928,-0.15576812624931335,3.2079625129699707,2.1838238239288335
-2.4011018276214604,1.027514934539795,8.036402702331545,-0.14171403646469116,3.5511310100555424,2.0778989791870117
-1.9465360641479492,1.964691162109375,7.630939960479737,-0.254832535982132,3.9045052528381348,1.9455156326293945
-1.868279576301575,2.315377712249756,6.859652519226074,-0.46993073821067816,4.204986572265625,1.794337868690491
-1.6101046800613406,2.0828299522399902,6.455158710479737,-0.6794102191925049,4.391301155090332,1.6383897066116335
-0.12392354756593706,1.6685771942138672,7.169259071350098,-0.8539334535598755,4.526992321014405,1.5109305381774902
1.628141164779663,1.0708550214767458,8.019755363464357,-0.9563263654708862,4.731611728668214,1.4179300069808962
2.415818214416504,1.03541898727417,8.133213996887209,-0.9941828846931459,4.96135139465332,1.3447026014328005
2.8947839736938477,1.3789021968841553,7.86766004562378,-1.0627044439315798,5.119249820709229,1.278395175933838
3.8685629367828374,1.2505147457122803,7.941749572753906,-1.1749382019042969,5.188928127288819,1.2240560054779053
5.23209047317505,0.38928607106208807,8.443880081176758,-1.2246103286743164,5.22625494003296,1.1731470823287966
6.732590198516847,-0.2690062820911408,9.252167701721193,-1.1858869791030886,5.263450622558594,1.154234051704407
7.913098812103272,-0.4404760003089905,9.926458358764648,-1.1139935255050661,5.32323980331421,1.179903507232666
8.62527084350586,0.16843333840370178,10.36787223815918,-1.0986747741699219,5.373380184173585,1.2296292781829834
8.875805854797365,1.345710277557373,10.734262466430664,-1.192911744117737,5.343706130981445,1.256422758102417
9.722914695739748,1.8925110101699831,11.320937156677248,-1.3466211557388308,5.226585388183594,1.166722893714905
11.58536148071289,1.7451331615447998,12.058845520019531,-1.4040614366531374,5.084878444671632,0.9468917846679688
13.069713592529297,1.9367008209228516,12.550608634948732,-1.3588765859603884,4.917035102844238,0.6391616463661195
14.628677368164062,2.9089250564575195,13.301527976989748,-1.3552000522613525,4.72180986404419,0.28302201628685003
16.452659606933594,4.593887805938722,14.39848041534424,-1.551518440246582,4.568651676177979,-0.05006355792284012
17.887620925903324,5.955963134765625,15.316880226135256,-1.971994757652283,4.5318341255188,-0.365161657333374
19.23143768310547,6.451389312744141,15.490983963012695,-2.4727234840393066,4.566689014434815,-0.6719201803207397
19.35842514038086,6.578102588653565,14.426699638366701,-2.856015682220459,4.579454898834229,-0.9526035189628602
18.049400329589844,6.888150215148926,12.34770393371582,-3.056400537490845,4.430072784423828,-1.256402373313904
17.06224822998047,7.521471500396729,10.766001701354982,-3.1085686683654785,4.095320701599121,-1.61196506023407
17.099760055541996,7.676290035247804,10.007638931274414,-3.066920757293701,3.7036116123199467,-1.9928996562957764
17.073244094848636,7.697898387908936,9.080763816833498,-2.893644332885742,3.3472545146942143,-2.353340864181519
16.551406860351562,8.110627174377443,7.460188865661621,-2.675939321517945,2.9831056594848633,-2.659873723983765
15.719818115234375,7.902542591094972,5.709763050079347,-2.460190057754517,2.6028625965118413,-2.975327968597412
14.946232795715334,8.130706787109375,4.843355178833008,-2.262989044189453,2.177228212356568,-3.340305805206299
16.530357360839844,9.52637577056885,4.283864498138429,-2.3948721885681152,1.8636087179183962,-3.598498106002808
17.05772209167481,8.294902801513672,2.766102552413941,-2.623029470443726,1.7300169467926025,-3.720011472702027
16.393383026123047,6.3077969551086435,0.565921425819397,-2.6101226806640625,1.5634140968322754,-3.7153232097625737
15.418264389038086,4.190117835998535,-1.4951207637786865,-2.271650791168213,1.2310434579849245,-3.5543746948242188
14.608168601989748,2.4016020298004155,-2.3162364959716797,-1.6451528072357178,0.7902231812477113,-3.2510302066802983
11.160956382751467,-11.495453834533693,-4.717084407806397,0.7903522849082948,-0.2404193878173828,-3.0365836620330815
6.795065879821777,9.403793334960938,2.717853546142578,2.537294149398804,-1.0789066553115847,-3.5202598571777344
4.961511611938477,-8.845027923583984,12.615804672241211,2.373897790908814,-0.8887631893157959,-2.772712945938111
-0.7326641678810121,-16.40408515930176,13.965389251708984,2.397334575653076,-1.489505171775818,-2.70490050315857
7.696235179901124,-21.94208526611328,10.745054244995117,1.7474703788757324,-2.0162007808685307,-1.421428918838501
14.567192077636719,-9.993653297424318,12.60232925415039,1.937030911445618,-1.784846901893616,-0.8516325950622559
16.6054859161377,6.154672145843507,16.036764144897464,1.6854928731918337,-1.2150890827178955,-0.5467689633369447
11.653332710266115,18.833003997802734,16.57040023803711,1.175807595252991,-0.34799420833587646,-0.3751877546310425
3.8227117061614995,6.342872142791749,12.46272087097168,0.4878764748573303,0.029167236760258678,-0.38526052236557007
3.359203338623047,-4.546106815338136,9.697860717773438,0.2910882830619812,-0.13911524415016174,-0.30165103077888494
5.0734758377075195,0.5349379181861879,10.668458938598633,0.14748817682266235,-0.15494762361049655,-0.1509392261505127
5.279016017913819,2.9775519371032715,10.636384010314943,0.07472494989633562,-0.006754821166396141,-0.18842759728431702
4.860310077667237,-1.9180840253829958,9.932392120361328,0.04517373070120812,0.022852730005979538,-0.14268030226230624
5.0845947265625,-0.8015078902244569,10.427999496459961,-0.004755606409162284,0.03248304501175881,-0.06274843215942383
5.228567123413086,-0.29624706506729126,10.506155967712404,-0.08466640114784241,0.075314499437809,0.0014495961368083954
4.986757278442383,-0.6634585857391357,10.596896171569826,-0.19139781594276428,0.07177563756704332,0.09852866083383562
4.905795097351074,-0.4929546117782593,10.584348678588867,-0.31572517752647405,0.089455246925354,0.17141143977642062
4.180352687835694,-1.3810802698135378,9.982845306396484,-0.39338308572769165,0.08102914690971375,0.22004543244838717
3.1847281455993652,-1.6185545921325684,10.012423515319826,-0.45940572023391724,-0.01979017071425915,0.2424241304397583
3.8093922138214116,-1.3635979890823366,10.103187561035156,-0.5298470854759217,-0.08146841824054718,0.23180556297302246
3.4900581836700444,-2.068772792816162,9.230453491210938,-0.5078638195991517,-0.11015687882900238,0.20161415636539462
3.3148245811462402,-2.4903542995452885,9.09402847290039,-0.4810671806335449,-0.15390092134475708,0.17336495220661166
4.111820697784425,-2.095515251159668,9.289407730102539,-0.4288790225982666,-0.14711944758892062,0.12713345885276794
4.065677642822266,-2.3359959125518803,9.167190551757812,-0.3587906658649445,-0.1427450180053711,0.10452626645565033
3.798679113388062,-2.6213536262512207,8.929363250732422,-0.26326939463615423,-0.15964236855506897,0.06324417144060136
3.6924912929534917,-2.7517044544219975,8.76277828216553,-0.1562560796737671,-0.1980275809764862,0.015858991071581844
3.716063976287842,-2.8430907726287846,8.751177787780763,-0.03764409944415093,-0.2383992075920105,-0.03835923597216607
3.9712049961090092,-2.948546648025513,8.856781959533693,0.058325231075286865,-0.24965195357799533,-0.0825435295701027
3.853290557861328,-2.923861503601074,8.905097007751467,0.14193320274353027,-0.2652017176151276,-0.10551883280277252
4.5936126708984375,-2.030418157577515,9.745368003845217,0.16864076256752014,-0.25769323110580444,-0.10827491432428361
4.513392925262452,-1.8560436964035036,9.67064952850342,0.15092729032039645,-0.20294079184532166,-0.09522826224565507
5.0786099433898935,-1.2275333404541016,10.447399139404297,0.07880362123250963,-0.16952097415924072,-0.056976981461048126
4.972095012664796,-1.0575854778289795,9.897842407226562,-0.02288990467786789,-0.0520947389304638,0.003985526040196419
4.361474990844727,-2.031042814254761,9.41318130493164,-0.03999461606144906,-0.026680612936615947,0.031040087342262268
4.322103500366211,-1.7433743476867676,9.451972007751467,-0.036087986081838615,-0.01080150343477726,0.034112360328435905
4.09938669204712,-2.075696706771851,9.404481887817383,-0.02871011570096016,-0.008127019740641119,0.030863536521792415
3.898658990859986,-2.0664832592010502,9.283998489379883,-0.02265322208404541,-0.016598509624600414,0.022330082952976227
3.7681846618652344,-2.2402575016021733,9.23392105102539,-0.018198475241661072,-0.05117093771696091,0.00969407055526972
4.040863513946534,-2.1146895885467534,9.409936904907227,-0.007050052285194397,-0.0824253633618355,-0.006307602860033512
3.985944032669068,-2.2480220794677734,9.316807746887209,0.005866196937859058,-0.09914989024400712,-0.020237604156136516
3.9571764469146733,-2.325666904449463,9.282397270202638,0.022562965750694275,-0.12375766783952714,-0.040180519223213196
4.0983428955078125,-2.31233549118042,9.3111572265625,0.04416285827755929,-0.14904274046421054,-0.05719263106584549
4.3418335914611825,-2.195889949798584,9.417723655700685,0.05598429962992669,-0.17640277743339539,-0.0659129247069359
4.380815029144288,-1.7936257123947146,9.50132465362549,0.05082266405224801,-0.16046783328056335,-0.06311167776584625
4.361820220947266,-1.8564893007278445,9.58332920074463,0.03555161505937576,-0.15062047541141513,-0.054076842963695526
4.47080135345459,-1.5293574333190918,9.614419937133789,0.010726341977715492,-0.1388688087463379,-0.04011258855462075
4.50537919998169,-1.6152219772338867,9.563121795654297,-0.008503420278429985,-0.1283906549215317,-0.028912562876939774
4.2604432106018075,-1.6642166376113894,9.423924446105959,-0.02506711333990097,-0.12682645022869113,-0.012399784289300443
4.128052234649659,-1.818148493766785,9.528585433959961,-0.034622464329004295,-0.1614360511302948,-0.012826048769056799
4.36415958404541,-1.7874587774276736,9.646767616271974,-0.052887700498104095,-0.18518167734146118,-0.011306946165859701
4.151139736175538,-1.8673803806304932,9.294529914855959,-0.041637152433395386,-0.20977215468883517,-0.022213410586118698
4.064670085906983,-2.304327249526978,9.348057746887209,0.022182509303092957,-0.2676436603069306,-0.07833663374185564
4.193158626556397,-2.5899529457092285,9.349218368530273,0.041339259594678886,-0.2878427505493164,-0.1215430572628975
4.609763145446777,-2.211766958236695,9.392782211303711,0.03244759514927865,-0.28171774744987493,-0.13204026222229004
4.456833839416504,-2.134820699691773,9.339144706726076,0.018576068803668026,-0.24282002449035645,-0.1368101388216019
4.224855899810792,-2.442709445953369,9.263268470764162,0.0014003999531269073,-0.22522287070751193,-0.1587021201848984
4.366223335266113,-1.7693181037902832,9.467592239379883,-0.017607452347874645,-0.2623675465583801,-0.166559174656868
4.311430454254151,-1.6940226554870605,9.537626266479492,-0.041771959513425834,-0.299704521894455,-0.16852053999900818
4.548047542572022,-1.3903959989547732,9.776124954223633,-0.0773322954773903,-0.37804943323135376,-0.17310027778148654
4.531375408172608,-1.3792378902435303,9.709877967834474,-0.12735421955585483,-0.42399197816848755,-0.1577383577823639
4.375017166137695,-1.3173038959503174,9.806320190429688,-0.20465263724327087,-0.4943064153194428,-0.15056830644607544
4.2334046363830575,-1.2337086200714111,9.827258110046388,-0.29472917318344116,-0.5948042869567871,-0.1326633542776108
4.223663330078125,-0.9308059215545654,9.806815147399904,-0.4001684486865998,-0.7136142253875732,-0.11811674386262895
3.724403619766236,-0.594178318977356,9.880545616149904,-0.5252669453620912,-0.8638570308685303,-0.0827796459197998
4.032779693603516,-0.7643218040466309,9.866329193115234,-0.6313353776931763,-1.0738712549209597,-0.022408917546272278
3.4289133548736577,-0.8843876123428345,9.79165554046631,-0.7532109618186952,-1.3170250654220583,-0.00020420551300048828
3.370801210403443,-1.2984540462493896,9.85344982147217,-0.8606182336807251,-1.6009467840194704,-0.006065944209694862
3.32883882522583,-1.8960444927215576,9.926631927490234,-0.8748884201049805,-1.928282141685486,-0.0361725576221943
3.147799491882324,-1.8289436101913454,9.8819055557251,-0.8599085807800293,-2.2977082729339604,-0.0805971771478653
3.3415453433990483,-2.091498374938965,9.643647193908693,-0.8934676647186279,-2.738666534423828,-0.14767979085445407
3.5981142520904545,-1.7166298627853396,9.695323944091797,-0.9292974472045898,-3.188885927200318,-0.16808655858039856
4.230772018432617,-1.5365554094314577,9.748451232910156,-0.9663258790969849,-3.7233393192291264,-0.20527352392673495
4.972270965576172,-1.5231163501739502,10.50476932525635,-1.0181380510330202,-4.224518775939941,-0.13107149302959445
4.251999378204347,-1.3957194089889529,10.666158676147461,-1.2023186683654785,-4.894857406616211,-0.029414633288979534
3.567232131958008,-1.5634891986846924,12.074172973632812,-1.547990083694458,-5.729250431060792,0.1459059715270996
4.622400283813477,-1.3554024696350098,14.54931163787842,-2.0943458080291752,-6.59658145904541,0.2681758403778076
8.049572944641115,-1.7799160480499268,15.571138381958008,-2.684140205383301,-7.336891651153565,0.312855064868927
9.702334403991701,-3.3335883617401127,15.052135467529297,-3.3396129608154297,-7.742096900939941,0.42157980799674993
14.688521385192873,-4.085819244384766,16.62249565124512,-4.03016471862793,-8.005463600158693,0.5324774980545044
16.94304656982422,-6.971966266632081,15.388319969177248,-4.4965786933898935,-7.941615104675293,0.3837948441505432
19.45370101928711,-7.812313079833984,16.854583740234375,-4.638821601867676,-7.650750637054444,0.055690690875053406
19.988634109497074,-9.562165260314943,13.06923580169678,-4.865028858184815,-7.27497434616089,-0.25452136993408203
26.80782699584961,-10.061393737792969,15.108261108398438,-5.4621381759643555,-6.437315464019776,-0.18263834714889526
22.775480270385746,-4.735557556152344,16.751846313476562,-7.062808990478516,-4.838573932647706,0.41987630724906927
26.01138496398926,-9.382264137268068,19.02140617370606,-8.351550102233888,-2.8411850929260254,0.6975156664848329
9.829592704772951,-6.144998073577882,8.55082893371582,-6.3612213134765625,-0.746462345123291,-1.1642307043075564
34.865440368652344,-13.507606506347656,21.53174591064453,-4.05914068222046,0.5923442840576172,-2.873438119888306
20.356920242309574,-11.973511695861818,19.21053695678711,-2.105821132659912,3.3341200351715092,-3.0084788799285893
8.800085067749023,-2.6463205814361577,7.48908805847168,-1.3581844568252566,4.042588233947754,-2.8086903095245366
9.497701644897461,-0.1969943642616272,4.666325569152832,-1.341858506202698,4.212224483489991,-3.002927303314209
7.0269975662231445,-1.1957377195358279,2.4015841484069824,-1.4803179502487185,4.0427350997924805,-3.014727354049683
6.563433170318604,-1.8073226213455202,2.274154901504517,-1.3678009510040283,3.8290755748748784,-2.948335409164429
5.0419769287109375,-1.7489662170410156,2.977132797241211,-1.0989446640014648,3.747153997421265,-2.6880054473876953
4.023476600646973,-0.32920441031456,4.111516952514648,-0.9395285844802856,3.7521209716796875,-2.3097069263458256
3.7872221469879155,1.2237203121185303,5.426678657531738,-0.9768353700637817,3.938001394271851,-1.8293001651763916
3.080602884292603,1.9968814849853516,6.258217811584473,-1.1275609731674197,4.271044731140137,-1.3268940448760986
2.4186153411865234,1.6709778308868408,5.95356321334839,-1.2210251092910769,4.688802719116211,-0.8910153508186341
0.31577783823013306,1.166316628456116,4.212945938110352,-0.9994202256202699,4.973178386688233,-0.4943750500679016
-1.5161278247833252,1.948362708091736,2.1484298706054688,-0.6124250292778016,4.992650032043457,-0.11737858504056932
-2.296356201171875,3.33622407913208,1.632296085357666,-0.3478370606899262,4.810787200927734,0.23979422450065613
-1.1991788148880007,4.400189876556397,2.661333322525025,-0.26841667294502264,4.690096855163574,0.555292308330536
-0.609117090702057,5.110097408294679,3.158878564834595,-0.24345597624778748,4.744549751281738,0.7022646069526673
-0.29460006952285767,5.574954032897949,3.153830766677857,-0.24328729510307312,4.880064487457276,0.7010389566421509
0.28077417612075806,5.7630414962768555,3.3217918872833256,-0.22830969095230103,4.989328861236573,0.5731957554817201
1.4136631488800049,5.494143009185792,3.092620372772217,-0.11307638883590698,5.1259732246398935,0.340165376663208
1.4429990053176882,5.79969358444214,2.086851835250855,0.013116324320435524,5.184730529785156,0.03580434992909432
2.0481138229370117,5.654211044311523,1.6267312765121462,0.041698798537254333,5.1553692817688,-0.26738113164901733
3.2985610961914062,4.72237491607666,1.7774746417999268,0.06749136745929718,5.136972904205323,-0.5096207261085511
4.2347683906555185,4.006958961486816,1.88600492477417,0.1362292468547821,5.148904323577882,-0.6816964149475098
5.7132534980773935,3.3512647151947026,1.4528080224990847,0.18473081290721896,5.122999668121339,-0.7619327306747437
7.22968626022339,2.9108064174652104,0.40559589862823486,0.20312851667404175,4.973618030548097,-0.7415518760681152
9.13530158996582,1.7795004844665527,-0.18708622455596924,0.22862690687179565,4.66343641281128,-0.6380780339241029
11.888176918029787,0.5303198099136353,-0.3488351106643677,0.32472068071365356,4.241535663604737,-0.45675140619277954
14.205892562866211,-0.3388422727584839,-0.8042927980422974,0.4646755158901215,3.7562258243560795,-0.19501513242721558
15.689619064331055,-1.1784735918045046,-2.03708553314209,0.6320932507514955,3.159433364868164,0.11198239773511888
16.597793579101562,-1.580352544784546,-3.0659821033477788,0.8433021306991577,2.4008209705352788,0.42961391806602484
17.906391143798828,-1.55398166179657,-2.96691107749939,1.0582264661788943,1.5814857482910156,0.6958866715431214
19.72569847106934,-0.9008064270019531,-1.8057390451431277,1.207121014595032,0.8665550351142884,0.850200891494751
22.17784881591797,-0.3808755576610566,0.0632985532283783,1.209878921508789,0.35754004120826727,0.8593587875366211
24.21775627136231,0.10651458054780961,2.0808162689208984,1.0805371999740603,0.08370433747768402,0.7395108938217163
22.06645011901856,1.2364234924316406,0.7879995703697206,0.8213262557983398,0.003533207112923265,0.5181921720504761
17.12509536743164,0.473801463842392,-1.8829050064086914,0.5001156330108643,-0.3393314480781555,0.2679182589054108
13.231049537658693,-2.277651786804199,-4.553326606750488,0.4006046354770661,-0.9607630968093872,0.17651601135730746
53.36326980590821,0.3531713783740998,10.099349021911623,-2.2680139541625977,-2.5779249668121342,1.652156472206116
42.75970840454102,24.019056320190433,31.40357208251953,-3.9068093299865723,0.7793802618980409,1.3236632347106934
6.042422294616699,-12.494359970092773,11.444617271423342,-0.49242788553237915,2.267326831817627,0.2729749977588654
-5.087177753448487,-23.695932388305668,7.183602809906007,0.08299225568771362,0.8144720196723939,0.5016063451766968
-3.3645644187927246,1.8167030811309814,12.400590896606445,0.17221567034721375,0.576673448085785,0.3182490170001984
-0.024946987628936768,-0.6031719446182251,13.283788681030273,0.004122816491872073,0.2552393674850464,-0.6587325930595399
3.248931169509888,-8.267438888549805,9.430335998535156,0.16033200919628146,0.0469670556485653,-0.7857328653335571
7.228580474853516,8.773730278015138,11.095483779907227,0.056971263140439994,-0.10490232706069946,-0.5431028008461
8.002599716186523,1.6618013381958008,9.524977684020998,-0.15733036398887634,-0.014257316477596762,-0.16508568823337558
6.4083313941955575,0.24384103715419772,9.058476448059084,-0.22017130255699158,0.10765189677476884,0.16036579012870789
5.336003780364991,-2.132064580917359,9.360950469970703,-0.21025046706199646,0.2355051338672638,0.2383522838354111
3.5980436801910405,-3.0778613090515137,9.68316173553467,-0.10060660541057587,0.24888195097446444,0.14915090799331665
4.11719560623169,-2.3525824546813965,9.866783142089844,-0.013765288516879082,0.24423556029796603,0.00747186178341508
4.127799987792969,-0.14755624532699585,10.07147216796875,-0.029701419174671173,0.22843174636363986,0.005611838772892952
4.076564788818359,0.3262634873390198,10.336427688598633,-0.13806641101837158,0.13817241787910461,0.10207010060548784
3.833837747573853,-0.6266381740570068,10.204628944396974,-0.21065191924571994,0.042355701327323914,0.16540788114070895
3.641683578491211,-1.3744164705276491,10.127016067504883,-0.24756748974323275,-0.03963036835193634,0.15720480680465698
3.7175438404083256,-1.4167301654815674,10.041351318359375,-0.24694404006004333,-0.11104673892259599,0.11122000217437744
4.004308700561523,-1.1105173826217654,10.013892173767092,-0.2556827366352082,-0.16079835593700412,0.09233863651752472
4.121622085571289,-1.1252712011337282,9.82978630065918,-0.2654292285442353,-0.20341631770133972,0.09488067775964738
4.456452369689941,-0.9354342222213745,9.751623153686523,-0.28511255979537964,-0.21181599795818332,0.10650935024023057
4.335723876953125,-1.0913203954696657,9.689926147460938,-0.29911491274833685,-0.18129172921180725,0.13538046181201938
4.149658679962159,-1.2122642993927002,9.732780456542969,-0.29921659827232366,-0.2114401310682297,0.10793545842170715
4.478652477264405,-1.5444366931915283,9.596490859985352,-0.2914457321166992,-0.19663245975971225,0.11833861470222473
4.388286113739015,-1.6339964866638184,9.443126678466797,-0.27055686712265015,-0.15639667212963107,0.12788973748683932
4.439667701721191,-1.6073957681655886,9.458249092102053,-0.2395754307508469,-0.1810886561870575,0.07627332955598833
4.667200565338136,-1.763392448425293,9.535589218139648,-0.21567128598690036,-0.11721832305192949,0.10572004318237305
4.022337913513184,-2.033257007598877,9.204756736755373,-0.17830063402652743,-0.1102030873298645,0.05514179542660714
4.608619689941406,-1.3917350769042969,9.577368736267092,-0.17729811370372775,-0.08771876990795135,0.07699812948703766
4.289477825164796,-1.6164125204086306,9.414535522460938,-0.16258850693702698,-0.06960354000329973,0.07686515152454376
4.511600494384766,-1.682654857635498,9.478471755981445,-0.1610284447669983,-0.08082915842533112,0.06421420723199846
4.535215377807617,-1.708308458328247,9.357895851135256,-0.14416821300983432,-0.01751738414168358,0.08326032012701036
4.504416465759277,-1.7585110664367676,9.32708263397217,-0.12286073714494707,0.011759689077734947,0.07897752523422241
4.243194103240968,-1.8032578229904177,9.24644660949707,-0.0939825400710106,-0.015266180038452148,0.049122337251901634
4.397299766540527,-1.983947992324829,9.314999580383303,-0.0797763839364052,0.07021655887365343,0.1020120233297348
4.284980773925781,-2.517207145690918,9.161600112915039,-0.019675541669130325,0.07242272049188615,0.04368467628955841
4.036114692687988,-2.130268812179566,9.190868377685547,0.04222917184233666,0.0836980789899826,0.0030963891185820103
4.625919342041016,-1.6525694131851199,9.359493255615234,0.06016845628619195,0.1397281289100647,0.007328074891120196
4.816567897796632,-1.633984088897705,9.431360244750977,0.08557388186454773,0.17410403490066528,0.009540592320263388
4.682445526123047,-1.336665391921997,9.446693420410156,0.09494061768054962,0.2281061559915543,0.03447730094194412
4.352632999420167,-1.5901957750320437,9.350577354431154,0.09594146162271501,0.24823930859565735,0.03959115594625473
4.349525451660156,-1.514448881149292,9.387170791625977,0.08675684034824371,0.2885469496250153,0.06334497034549713
3.389077663421631,-1.9290308952331543,9.174385070800781,0.0889016166329384,0.2583839595317841,0.036817505955696106
3.5132567882537846,-1.400823473930359,9.508657455444336,0.07577023655176164,0.22791361808776855,0.006642816122621299
3.0581488609313965,-1.124361872673035,9.736663818359375,0.02153999172151089,0.1634913682937622,-0.006624344736337662
2.841196775436402,-1.2697180509567263,10.06638813018799,-0.035776969045400626,0.0387970507144928,-0.02063318155705929
3.2746810913085938,-1.5227513313293457,10.003517150878906,-0.055902127176523216,-0.07772579044103624,-0.04763618856668472
3.216752529144287,-1.1501867771148682,9.67142963409424,-0.08399873226881029,-0.16096407175064087,-0.06514108926057817
3.0458054542541504,-1.5656404495239258,9.970583915710451,-0.10234612226486206,-0.2846913039684296,-0.09019795805215837
3.3936011791229252,-1.1593223810195925,10.270998954772951,-0.12181038409471513,-0.409882128238678,-0.10735205560922624
3.0046646595001225,-1.6112731695175173,10.107307434082031,-0.14190022647380832,-0.5277250409126283,-0.14926135540008545
3.35366702079773,-1.6995091438293457,10.24943256378174,-0.1800014823675156,-0.657534122467041,-0.20378564298152926
3.858972311019898,-1.7274515628814697,10.127169609069826,-0.21224705874919894,-0.7718726396560669,-0.2268768846988678
3.7762787342071538,-1.6809008121490479,10.053771018981935,-0.22141928970813754,-0.8868707418441772,-0.24867017567157748
4.107254981994629,-1.6458076238632204,10.213085174560547,-0.21134942770004272,-1.011216640472412,-0.24570189416408542
4.752737522125245,-1.035283088684082,10.51810932159424,-0.23656561970710754,-1.1027375459671023,-0.25400155782699585
4.471477508544922,-0.7789276838302612,10.058836936950685,-0.31136235594749456,-1.2337758541107178,-0.23582467436790466
3.5620677471160893,-0.029308095574378967,10.184733390808107,-0.4665263891220093,-1.4968274831771853,-0.18970921635627747
3.7216818332672124,-0.3980602025985718,10.854594230651857,-0.5988236069679261,-1.8352888822555544,-0.0683557391166687
1.7766356468200684,-1.3247355222702029,9.572179794311523,-0.6241071224212646,-2.2408711910247807,-0.06654264032840729
3.0949864387512207,-0.8006259799003602,10.496436119079592,-0.5939547419548036,-2.7752184867858887,-0.056773848831653595
3.217505216598511,0.19092640280723572,10.034739494323732,-0.5609242916107178,-3.2954785823822026,-0.15513476729393005
4.207550048828125,-0.6372325420379639,10.14844608306885,-0.6214025020599365,-3.823115825653076,-0.18392114341259005
3.588299989700318,-1.5863556861877441,10.30801773071289,-0.6668552160263062,-4.440794467926026,-0.31499284505844116
5.252426624298097,-5.118097782135011,12.19265365600586,-0.48018407821655273,-5.177815914154054,-0.48972359299659735
5.980931758880616,-6.17481565475464,12.090290069580078,-0.02104965411126614,-5.463631629943848,-0.3766448795795441
11.104219436645508,-3.784260511398316,15.59748649597168,-0.2300088107585907,-5.5673675537109375,-0.2527200877666474
11.876252174377443,-8.388179779052734,14.000187873840334,-0.21837167441844943,-5.356687545776367,-0.37627211213111883
21.655580520629886,-7.999551773071289,15.979412078857422,0.2370028793811798,-5.198878765106202,-0.6542416214942933
26.37468719482422,-6.271868705749512,10.988015174865724,0.2150980532169342,-4.830035686492921,-1.016528606414795
31.204839706420902,-5.957192420959473,10.42983150482178,-0.14523571729660034,-4.526179313659668,-1.315073370933533
32.1876564025879,-8.139451026916506,10.412083625793459,0.03393881395459176,-4.136286735534668,-1.5882447957992556
24.704429626464844,-4.5625624656677255,6.232268333435059,0.3013851940631867,-3.8591628074645996,-1.780700445175171
40.463592529296875,-4.919538021087647,17.092037200927734,0.006819767877459526,-3.6271545886993413,-2.1450018882751465
29.48843765258789,-5.88346815109253,18.437320709228516,0.1317296326160431,-1.9680578708648682,-2.1573374271392827
22.755817413330078,-2.4498574733734135,15.702681541442873,-0.43939617276191717,-1.3380482196807861,-1.982739329338074
19.857173919677734,-2.2961428165435795,15.044552803039553,-1.099787950515747,-0.7621189951896669,-1.8967379331588747
13.212342262268068,-3.920317888259888,12.056857109069826,-1.4466402530670166,-0.45863315463066107,-1.8115766048431396
10.648840904235842,-6.220611572265625,11.47987461090088,-1.3732460737228396,-0.3933285772800446,-1.736680269241333
8.533926010131836,-7.416251182556152,11.418362617492678,-0.780376970767975,-0.320598304271698,-1.6476105451583865
5.157491207122804,-6.41019105911255,11.302038192749023,0.07117883116006853,-0.15492185950279236,-1.6278712749481201
3.297771453857422,-4.21185302734375,11.067588806152344,0.5439581274986268,0.08222801983356476,-1.5449422597885134
0.3522018790245056,-1.7749123573303223,9.838471412658693,0.6231374740600586,0.4164031744003296,-1.3850380182266238
-3.000192165374756,-1.3869454860687256,7.911931037902832,0.5051836371421815,0.7152100801467896,-1.263181805610657
-5.442878246307374,-1.440161943435669,6.2020463943481445,0.3943450450897217,0.8851159214973451,-1.120279669761658
-6.551156520843507,-1.7423161268234255,5.64020872116089,0.2796640992164612,0.9917200207710267,-0.9335799217224121
-6.56136178970337,-2.190536260604859,5.730846405029297,0.17634567618370056,1.1622495651245117,-0.6393763422966005
-6.204155445098878,-2.5990149974823002,5.9181976318359375,0.11296429485082628,1.4652652740478516,-0.2581732571125031
-7.195796012878418,-2.691081762313843,5.016723155975343,0.15317837893962863,1.7981657981872559,0.07823485136032104
-7.6341004371643075,-1.9680945873260498,4.425713539123535,0.10329331457614899,2.0431139469146733,0.3957548141479492
-7.753172397613526,-0.9496054053306581,3.6594855785369877,-0.05717197805643082,2.303515911102295,0.6871255040168763
-8.050719261169435,-0.7318148016929628,2.702886819839478,-0.23648072779178622,2.54658842086792,0.9118941426277162
-8.681669235229492,-0.36087062954902654,1.3598273992538454,-0.3344489336013794,2.675822496414185,1.0576921701431277
-8.264244079589844,0.2525797486305237,0.8908445835113525,-0.4158870577812195,2.7122566699981694,1.1358578205108643
-7.727593898773194,0.8713226914405824,0.915953814983368,-0.5070029497146606,2.7563581466674805,1.1769281625747683
-6.207545280456543,1.00437331199646,1.8434892892837527,-0.598853588104248,2.8625915050506596,1.1702682971954346
-4.48990535736084,1.1629762649536133,2.661076068878174,-0.6563702821731567,3.0884659290313725,1.1605211496353152
-2.6515362262725835,1.0905494689941406,2.865029573440552,-0.6779576539993286,3.37403416633606,1.1572003364562988
-1.7636091709136963,1.385409474372864,1.8927787542343142,-0.6341896057128906,3.5916032791137695,1.1599935293197634
-0.4386512041091919,2.8751025199890137,1.3582370281219482,-0.6545423269271851,3.643901586532593,1.1586225032806396
1.959841847419739,3.3623569011688237,1.6171666383743288,-0.78039687871933,3.606274127960205,1.1236255168914795
4.997170448303223,2.7049305438995366,2.632571220397949,-0.791582763195038,3.567841053009033,1.0222562551498415
7.867635250091554,2.0718488693237305,3.598090171813965,-0.6197762489318848,3.558537006378174,0.887024223804474
10.01894760131836,2.9533677101135254,3.81173038482666,-0.4322638511657715,3.5208203792572026,0.7590763568878174
12.709203720092773,2.6422629356384277,3.2771716117858887,-0.34201186895370483,3.4183251857757573,0.5938315987586976
15.243049621582031,1.043308973312378,1.940640926361084,-0.11124091595411302,3.2051453590393066,0.41312620043754583
16.791847229003906,0.9804544448852539,0.47319674491882324,0.16285620629787448,2.8215405941009526,0.3494943380355835
18.333288192749027,1.246878504753113,-0.7354601621627808,0.29176145792007446,2.324560880661011,0.4352744221687317
19.086549758911136,1.457428812980652,-0.7358952164649964,0.3373759984970093,1.766517519950867,0.5863837599754335
19.80485343933106,2.9403390884399414,0.5282272100448608,0.27723577618598944,1.2991716861724854,0.710707724094391
19.650569915771484,2.477168083190918,0.5707983374595643,0.1950052231550217,0.9877590537071229,0.6940063238143921
14.727366447448732,1.775107264518738,-3.290180206298828,0.2910834550857544,0.5419960618019105,0.5908749103546143
10.482447624206545,1.9953513145446777,-4.771245956420898,0.2589674293994904,-0.3599613308906555,0.559606671333313
87.56980895996094,4.196484088897706,43.131366729736335,-2.8602471351623535,-0.7208014130592347,1.2093391418457031
1.477102518081665,-2.5432994365692143,-8.041409492492678,-0.14144028723239901,3.048749208450318,0.29151368141174316
8.993950843811037,-9.28511714935303,12.30863666534424,0.13227611780166626,2.189478158950806,0.5856760740280151
-8.34672737121582,-2.933082103729248,10.469611167907717,0.1403828263282776,1.7363439798355105,0.49341550469398504
-1.532745361328125,-2.4627938270568848,14.6454553604126,0.25950509309768677,0.9987835288047792,-0.26125985383987427
-1.5320026874542236,-4.872443675994874,13.189599037170412,0.16483147442340854,0.12420912832021715,-0.31284576654434204
3.1971976757049565,1.8105008602142334,11.674368858337404,-0.031042797490954403,-0.4109240770339966,-0.4441255629062653
8.244741439819336,1.6295344829559326,8.632448196411133,-0.11744236201047899,-0.45704221725463867,-0.31261974573135376
8.62178707122803,-1.220435619354248,7.890577793121339,-0.10652389377355577,-0.14455515146255493,-0.04803947731852532
6.774775505065918,-1.5262739658355713,8.445839881896974,-0.009943794459104538,0.1549377739429474,0.06921277195215227
4.850273609161378,-1.7134281396865847,9.251444816589357,0.00811965297907591,0.3082083463668823,0.08487639576196672
4.082554817199707,-1.7655315399169922,9.705130577087404,0.020817957818508148,0.29031732678413397,0.06552771478891374
4.306613445281983,-1.3381941318511963,9.669594764709474,-0.004055638797581196,0.2464668303728104,0.06564471125602722
4.5008606910705575,-0.912345588207245,9.733335494995117,-0.047585774213075645,0.21823577582836154,0.08919082581996918
4.194864273071289,-1.3599653244018555,9.726904869079592,-0.06768529862165452,0.18683966994285583,0.09647636860609056
3.9112789630889897,-1.70169997215271,9.806092262268068,-0.0605974942445755,0.1281094402074814,0.07801222056150438
3.7009589672088627,-1.5068614482879639,10.074006080627443,-0.06836025416851044,0.03994152322411538,0.03890979290008545
3.9562728404998784,-1.3073493242263796,9.988365173339844,-0.0994420573115349,-0.048084031790494926,0.027436889708042145
4.4286818504333505,-1.375345826148987,9.717260360717773,-0.1183782145380974,-0.08514145016670227,0.03370116278529168
4.120352745056152,-1.6396650075912478,9.323622703552248,-0.120846264064312,-0.1339302659034729,0.014505516737699509
4.972652435302734,-0.5256683826446533,10.03285884857178,-0.16356590390205383,-0.11192718893289567,0.06824347376823425
3.9151554107666016,-2.1706528663635254,9.52034664154053,-0.16260504722595215,-0.15157052874565125,0.08499362319707872
4.320311546325684,-1.8892694711685183,9.641960144042969,-0.172257661819458,-0.19024269282817843,0.0652754157781601
4.2986297607421875,-1.8944791555404665,9.461433410644531,-0.12797889113426208,-0.30083242058753973,0.0020326098892837767
4.26580572128296,-1.4540137052536013,8.959245681762695,-0.14525559544563293,-0.18850283324718478,0.06715299189090729
5.48979377746582,-1.6346281766891482,9.910730361938477,-0.12874042987823486,-0.2653059959411621,0.02186614088714123
4.145714282989503,-1.8124146461486816,8.716245651245117,-0.11468671262264252,-0.19908042252063754,0.030497420579195023
5.099841594696046,-1.4907478094100954,9.69429111480713,-0.1241961494088173,-0.18573039770126343,0.03750288486480713
4.211437702178956,-1.6954095363616943,9.154644012451172,-0.10065436363220215,-0.18272872269153598,0.036491185426712036
4.957948684692383,-1.3793163299560547,9.682860374450685,-0.13674847781658175,-0.16713325679302218,0.04705125093460083
4.127016067504883,-2.0403115749359135,9.037778854370117,-0.10555706173181535,-0.18604186177253723,0.008450875990092756
4.950807571411133,-1.7666842937469482,9.365530967712404,-0.13181695342063904,-0.17394863069057467,0.020693840458989147
4.402094841003418,-1.927201271057129,9.052941322326662,-0.09353040903806688,-0.15580493211746216,0.012824111618101599
5.130417823791504,-1.7741857767105105,9.434834480285646,-0.10420719534158708,-0.0939769670367241,0.04785221815109253
4.237671375274659,-2.4870524406433105,8.746932983398438,-0.04307535663247109,-0.12483382225036621,-0.0026578914839774375
4.632804393768311,-1.65735137462616,9.169462203979492,-0.03982049599289895,-0.09803187847137451,-0.006978500634431839
4.595183372497559,-1.7599046230316162,9.07265853881836,-0.02824334427714348,-0.07296278327703477,-0.006922604516148567
4.798358917236328,-1.7799067497253418,9.12608528137207,-0.04370609670877457,-0.04355692118406296,0.004696568939834834
4.37798833847046,-1.735625982284546,9.278755187988281,-0.03340374678373337,-0.0775129869580269,-0.016355838626623154
4.515614986419679,-1.7307208776474001,9.42912483215332,-0.05314639583230019,-0.06639337539672852,-0.011274991557002068
4.426057815551758,-2.3232369422912598,9.092227935791016,-0.050178661942481995,-0.07539740949869157,-0.02622251585125923
4.607519149780273,-1.6837033033370974,9.237858772277834,-0.028399638831615448,-0.0896277129650116,-0.04710102453827859
4.381031513214112,-1.4377018213272097,9.431105613708498,-0.02950275875627995,-0.11069004237651825,-0.05491025373339654
3.9310545921325684,-1.9022138118743896,9.194214820861818,-0.04793098568916321,-0.1588271111249924,-0.07373621314764024
4.283480167388917,-1.812784194946289,9.60389518737793,-0.05983454361557961,-0.25710391998291016,-0.11703976243734361
4.454315662384034,-1.6604155302047732,9.48834228515625,-0.06327533721923828,-0.28048741817474365,-0.13029520213603976
4.460101127624512,-1.392625331878662,9.363820075988771,-0.08260606229305267,-0.35063031315803533,-0.1442723572254181
4.410157203674316,-1.3384808301925661,9.615517616271974,-0.09534961730241777,-0.4017912745475769,-0.14050886034965515
4.212102413177491,-1.8625217676162722,9.55134391784668,-0.11079496890306474,-0.4956824779510498,-0.15335242450237277
4.055346965789796,-1.691920876502991,9.679435729980469,-0.11239495128393175,-0.6448515057563783,-0.1593017280101776
3.9920866489410405,-1.5616576671600342,10.02610969543457,-0.13089990615844727,-0.8346669077873231,-0.15126973390579224
3.696412801742554,-1.8205071687698366,10.061852455139162,-0.14698916673660278,-1.0672739744186404,-0.1733958572149277
3.123746395111084,-1.4453463554382324,10.004656791687013,-0.15091829001903537,-1.4563343524932861,-0.25256595015525823
4.165366649627686,0.009727686643600464,10.117123603820803,-0.27651143074035645,-1.679147481918335,-0.21340058743953708
4.330979347229004,-0.548888087272644,10.259531974792482,-0.40217792987823486,-2.0001575946807866,-0.19891369342803955
4.040441036224366,-2.3536636829376225,10.457239151000977,-0.3693919479846955,-2.2750492095947266,-0.22477659583091736
3.8262181282043457,-0.7821415662765503,9.873181343078615,-0.2730896472930908,-2.7514197826385502,-0.2729865312576294
4.815200328826905,-0.9967623949050903,9.919138908386232,-0.3155461251735688,-3.171772718429566,-0.31141799688339233
4.408487796783448,-1.222417235374451,10.358693122863771,-0.28231909871101385,-3.7377538681030273,-0.28799393773078924
4.115691661834718,-1.6996225118637087,10.357650756835938,-0.19130705296993258,-4.371111869812012,-0.29167407751083374
5.120612621307374,-2.975250720977783,10.236526489257812,-0.09993836283683777,-4.993908405303956,-0.28406959772109985
7.215093612670898,-3.128150463104248,11.21620845794678,-0.0807347670197487,-5.467585086822511,-0.2082975208759308
9.881519317626953,-4.33754825592041,13.276653289794922,-0.14984634518623352,-5.61597490310669,-0.12371811270713806
12.870116233825685,-6.075953006744386,14.269266128540039,-0.0987222120165825,-5.437406539916992,-0.13918983936309814
17.062356948852543,-8.916524887084961,12.88391971588135,0.540657937526703,-5.433229446411133,-0.4009276926517487
28.865859985351562,-5.676703453063965,12.757938385009766,1.142020106315613,-5.096509456634522,-0.6803504228591919
32.80310440063477,-5.45065975189209,5.212696075439453,1.020017385482788,-4.711808681488038,-0.9481942653656006
35.04810333251953,-5.676290035247804,1.928725838661194,1.302495002746582,-4.652982234954835,-1.5456317663192751
34.94486618041993,-4.132763862609863,3.144408464431763,1.465393900871277,-4.356568336486816,-1.792243838310242
33.094928741455085,0.4294889569282532,1.1113137006759646,1.1585228443145752,-4.672696113586426,-2.1558177471160893
44.467731475830085,-1.317122220993042,15.876848220825195,0.08240315318107605,-3.895342588424683,-2.29917573928833
30.242027282714844,-3.0852699279785156,13.555884361267092,-0.8508259654045106,-2.4424071311950684,-1.980048656463623
25.650959014892578,-3.651611328125,12.171731948852539,-1.5931669473648074,-1.8894932270050049,-1.8169699907302859
20.217775344848636,-5.731061458587647,11.624531745910646,-1.8651636838912966,-1.4157754182815554,-1.6992785930633545
14.301668167114258,-8.805355072021484,10.437677383422852,-1.6982795000076296,-1.2127711772918701,-1.5327166318893435
10.00990104675293,-10.643431663513185,11.167821884155273,-0.7765156030654907,-1.1641527414321902,-1.5310178995132449
6.869270324707031,-8.432477951049805,12.451992988586428,0.28050458431243896,-0.9914818406105043,-1.4467899799346924
4.243502616882324,-5.010411262512207,13.309513092041016,0.7688883543014526,-0.5896649360656738,-1.2351986169815066
0.47499918937683105,-2.7782294750213627,13.399103164672852,0.8084018230438232,-0.0033043960575014357,-1.0145292282104492
-3.1639151573181152,-1.8868019580841064,13.04666519165039,0.5877845883369447,0.6226521730422974,-0.8445203304290771
-5.069940090179444,-2.179339170455933,12.783617973327638,0.36955589056015015,1.2607015371322634,-0.7354748249053955
-6.665360450744629,-3.1130361557006836,11.46968173980713,0.3305709660053254,1.9381490945816042,-0.6562453508377075
-9.801685333251953,-2.912927865982056,8.515244483947756,0.4357974231243134,2.4408345222473145,-0.5908311009407045
-12.434231758117678,-1.8347549438476562,5.584482192993164,0.43249854445457464,2.583432674407959,-0.48666733503341675
-13.47157096862793,-0.6767951250076294,4.076750755310059,0.19818712770938876,2.5301551818847656,-0.29002574086189276
-12.75320816040039,-0.9887014627456665,4.080657005310059,-0.14124679565429688,2.507768154144287,-0.025631519034504894
-11.747120857238771,-1.905224084854126,4.250382900238038,-0.3374936580657959,2.630530118942261,0.2827068567276001
-11.763755798339844,-2.219977855682373,3.516038417816162,-0.3471700847148896,2.789398670196533,0.5738407373428345
-11.34854507446289,-1.5323764085769656,3.091100931167603,-0.361771434545517,2.8854527473449707,0.8735023140907289
-10.279776573181154,-0.7876551747322084,2.7571880817413335,-0.43817758560180664,3.029350757598877,1.1720291376113894
-9.263874053955078,-0.5325148701667787,2.44338321685791,-0.5233559608459473,3.1763141155242924,1.428675889968872
-6.9764771461486825,-0.11040046811103821,3.0054962635040288,-0.626340389251709,3.3762767314910893,1.6811400651931765
-4.997873783111573,0.0741955414414406,3.051998376846314,-0.6816678047180176,3.67886757850647,1.919057846069336
-3.4507250785827637,1.3007308244705202,2.6096198558807377,-0.7203719615936279,3.934414863586426,2.11813759803772
-1.4051008224487305,2.437586069107056,2.127810478210449,-0.8613668084144593,4.127017974853516,2.2225530147552495
0.8007771968841553,2.665507555007935,2.0419270992279057,-0.9313061833381654,4.218691825866699,2.2129006385803223
3.712644100189209,3.953528165817261,2.3919363021850586,-0.9797068238258363,4.224017143249512,2.0926487445831303
7.705902099609375,3.6009404659271245,2.598634004592896,-1.020912289619446,4.209558010101319,1.8205339908599854
11.125756263732912,2.151432514190674,2.577121496200562,-0.8162686824798584,4.151121616363526,1.4512052536010742
14.706775665283203,1.5539510250091553,2.3877501487731934,-0.46267378330230713,4.05402708053589,1.0833061933517458
17.87929725646973,1.2782979011535645,1.6091414690017702,-0.18012186884880066,3.93252444267273,0.7734802961349487
18.90610122680664,1.1436206102371218,-0.08320246636867523,-0.013318524695932867,3.6815979480743413,0.5664141178131104
19.39687538146973,-0.3818511068820954,-1.2461310625076296,0.06395959109067918,3.255312919616699,0.4490120112895966
19.468210220336918,-2.637605667114258,-1.3363856077194216,0.13401487469673157,2.7292339801788335,0.5834328532218934
19.022394180297855,-3.8839323520660405,-1.4250106811523438,0.08816478401422502,2.17867374420166,1.0819374322891238
17.645738601684574,-4.515373229980469,-2.1959023475646973,-0.14099496603012085,1.5970287322998047,1.744192719459534
13.351895332336428,-4.0022783279418945,-5.242116451263429,-0.38540551066398626,0.9454374313354492,2.355951547622681
95.25845336914062,1.3578600883483887,20.373331069946293,-0.17837585508823398,-0.6182138919830322,0.43010324239730835
15.841221809387209,14.997781753540039,1.0409932136535645,0.817946493625641,3.2647705078125,-1.080229163169861
4.098785400390625,-14.587597846984865,11.328114509582521,0.859241247177124,2.641261577606201,0.0483643151819706
-5.577206611633301,3.6216330528259277,14.187311172485352,0.6312626004219056,1.5733139514923096,0.6968535780906678
-3.822976589202881,7.137755870819093,13.590695381164553,0.2771346271038056,1.3925213813781738,-0.4310823678970337
2.097567558288574,-12.847274780273438,11.330322265625,0.11369492858648302,0.6982473134994507,-0.5854884982109071
2.4055585861206055,0.13814878463745117,12.070871353149414,0.09902300685644151,-0.14485938847064975,-0.21670052409172058
6.642982482910156,3.427615880966187,10.310648918151857,-0.028764003887772564,-0.12353867292404175,-0.30242535471916204
7.476548671722413,-2.565703868865967,8.358222007751467,-0.04493901506066323,0.02563125267624855,-0.018791943788528442
6.808612823486328,-0.5421500802040101,8.889745712280273,-0.004099994897842407,0.283313661813736,0.09493625164031982
4.892458438873292,-1.4682965278625488,9.279747009277344,0.004429939668625594,0.40199914574623113,0.13757416605949402
4.239668846130371,-1.5200285911560059,9.723402976989748,-0.0022251796908676624,0.3868765532970429,0.15127569437026978
3.942191362380982,-1.5707309246063232,9.809427261352539,-0.022753922268748287,0.32797926664352417,0.14220038056373596
4.145271301269531,-0.8937879204750062,9.999900817871094,-0.07864022254943848,0.26581493020057684,0.1525421142578125
3.9469559192657475,-1.34544312953949,10.030403137207031,-0.1151268854737282,0.20435069501399997,0.16784921288490295
3.701263904571533,-1.465127944946289,10.086852073669435,-0.15049630403518677,0.12573264539241794,0.16150227189064026
3.7899837493896484,-1.7725694179534912,10.064632415771484,-0.17102213203907016,0.03813031315803528,0.13460621237754822
3.872199535369873,-1.5867472887039187,10.013585090637209,-0.18956312537193298,-0.03654801473021508,0.12431319057941437
4.038763999938965,-1.5288941860198975,9.889728546142578,-0.2074284851551056,-0.09040804207324982,0.12867008149623874
4.16290283203125,-1.7633883953094482,9.672382354736328,-0.22082453966140747,-0.11424223333597185,0.127559095621109
4.081861972808839,-1.918705940246582,9.631229400634766,-0.2270144820213318,-0.1314916163682938,0.11888916045427324
3.3910722732543945,-3.016107797622681,8.92003059387207,-0.1876419931650162,-0.27239471673965454,0.02628775127232075
4.670635223388672,-1.454041123390198,9.749334335327148,-0.18189656734466553,-0.20077648758888245,0.06536775082349779
5.359159946441651,-1.262646555900574,10.060001373291016,-0.17120386660099032,-0.16797977685928345,0.13802663981914523
3.390211582183838,-2.5718936920166016,8.791405677795412,-0.13446669280529025,-0.2564976215362549,0.049288034439086914
5.363591670989991,-1.3243122100830078,9.831530570983888,-0.1895786672830582,-0.13597363233566284,0.1312038451433182
3.9417176246643066,-2.427084445953369,9.177623748779297,-0.10980068892240526,-0.2733966410160065,0.033729903399944305
4.186822891235352,-1.4665294885635378,9.448676109313967,-0.14584538340568542,-0.20848728716373446,0.0854581743478775
4.319700241088867,-2.3486576080322266,9.244872093200685,-0.13603012263774875,-0.21252000331878662,0.05356317013502121
4.410428524017335,-2.1530728340148926,9.192937850952148,-0.128805086016655,-0.21130460500717163,0.03790127858519555
4.734102725982667,-2.0939915180206303,9.232442855834961,-0.1060466468334198,-0.15491703152656555,0.03751997277140618
4.785267353057862,-2.458561897277832,8.967641830444336,-0.07525647431612016,-0.11340977251529694,0.015994107350707058
4.830987930297852,-2.4247379302978516,8.794755935668945,-0.05287862569093704,0.013165741227567198,0.06832950562238695
4.459083557128906,-2.467850685119629,8.934484481811523,-0.03127748519182205,0.041804987937212,0.062182702124118805
4.227413177490234,-2.660278797149658,8.844322204589844,0.02554917894303799,-0.030047284439206127,-0.031962595880031586
5.2799177169799805,-1.6610423326492312,9.296537399291992,0.03160156682133675,0.1318257451057434,0.028217354789376262
4.443078994750977,-2.627398252487183,8.761039733886719,0.054271738976240165,0.18553557991981506,0.02802431210875511
4.629549026489258,-2.04039216041565,9.096792221069336,0.07560535520315172,0.2142350673675537,0.027418727055191997
4.264113903045655,-1.9208775758743288,9.150527954101562,0.08333154767751695,0.24777485430240634,0.03297305852174759
3.4000444412231445,-2.628643035888672,9.117390632629396,0.0721169114112854,0.2047628611326218,0.012505222111940384
3.817294120788574,-1.8835670948028564,9.517744064331055,0.06781673431396484,0.1192256584763527,-0.012997829355299475
3.8061292171478276,-1.6703487634658816,9.673123359680178,0.0470712073147297,0.06451839208602905,-0.021752344444394115
3.4992835521698002,-2.1024711132049565,9.373486518859865,0.037000373005867004,-0.01772189885377884,-0.044035028666257865
3.418587923049927,-1.8775283098220827,9.686878204345703,0.036656416952610016,-0.11385437101125719,-0.07254627346992493
3.156258821487427,-1.8962740898132324,9.863582611083984,0.033889129757881165,-0.2362131327390671,-0.10540036112070085
2.721005439758301,-2.4069502353668217,9.585399627685547,0.05648405849933624,-0.4083119928836823,-0.17039212584495544
3.7257697582244877,-1.8724220991134646,10.169187545776367,0.03062601387500763,-0.5693536996841431,-0.2305315285921097
4.340681552886964,-1.5554484128952029,10.032286643981935,-0.012710184790194036,-0.648466944694519,-0.2333457320928574
3.9229626655578613,-1.2255343198776247,10.204360008239748,-0.07922470569610596,-0.7288452982902528,-0.22658278048038485
4.349523544311523,-1.4316979646682741,10.04994869232178,-0.14868593215942383,-0.8325158953666688,-0.22713422775268555
4.551251411437988,-1.008714556694031,10.144713401794435,-0.21205902099609375,-0.9369845390319824,-0.2098401337862015
4.131522655487061,-1.0068178176879883,9.85607433319092,-0.3018468320369721,-1.1361379623413086,-0.2489556819200516
4.943408966064453,-0.5070494413375854,10.408905029296875,-0.3788186311721802,-1.2697802782058718,-0.15380279719829562
2.786404609680176,-1.5281291007995605,9.897730827331545,-0.40933105349540716,-1.5589542388916016,-0.14002256095409396
3.1202707290649414,-0.762087345123291,9.970989227294922,-0.5155315995216371,-2.0152895450592045,-0.16575518250465393
3.8517148494720463,-1.1063960790634157,10.014911651611328,-0.5277928709983827,-2.3704428672790527,-0.228520080447197
3.4528949260711674,-1.4650142192840576,9.33481216430664,-0.5697104930877686,-2.7977325916290288,-0.24660815298557284
5.027318477630616,-1.6953617334365847,9.905580520629883,-0.6098809838294984,-3.200221061706543,-0.23171900212764743
4.11458683013916,-2.774930000305176,10.031783103942873,-0.42695066332817083,-3.6355755329132085,-0.25301599502563477
4.7460432052612305,-1.545593500137329,10.477877616882326,-0.3284530937671662,-4.207975387573242,-0.29936823248863226
5.602444648742676,-4.123123645782472,10.047256469726562,-0.22042389214038852,-4.64832878112793,-0.31415891647338867
5.810564041137695,-4.674768447875977,10.35073757171631,-0.14575761556625366,-5.05364751815796,-0.35198724269866943
8.586832046508789,-5.138615131378175,12.074379920959474,-0.11693269759416582,-5.202704906463624,-0.330798864364624
10.348834991455078,-5.759485244750977,12.554203033447266,-0.037689752876758575,-5.013935565948487,-0.3918148875236511
12.415459632873537,-7.614521026611328,11.21446418762207,0.40139877796173096,-4.965962886810304,-0.5699680447578431
19.59592056274414,-7.072348594665527,13.333899497985842,0.9900486469268799,-4.785051822662354,-0.8360614776611328
25.731927871704105,-4.548654079437257,10.825867652893068,1.0287492275238037,-4.418074607849121,-1.0745698213577273
27.734231948852543,-6.022486209869386,5.673571586608887,0.8632622361183168,-4.081574440002441,-1.4664074182510378
29.73302268981934,-4.838747024536133,4.872516632080078,0.883960783481598,-4.125446319580078,-1.8357386589050293
28.342870712280277,-3.051419734954834,5.771844863891602,0.5544809103012085,-3.902347803115845,-2.1344690322875977
30.627923965454105,-0.3427407145500183,4.646651268005371,-0.09503908455371857,-4.224555015563965,-2.4172341823577885
40.77959823608399,-4.494126319885254,16.64989471435547,-0.8050500154495239,-3.1899039745330815,-2.591148853302002
26.980047225952152,-4.984743595123292,12.957365036010742,-1.3267871141433718,-1.8517515659332275,-2.2684264183044434
23.290506362915043,-5.1784820556640625,11.618900299072266,-1.805469274520874,-1.4780353307724001,-2.017303466796875
18.147100448608402,-6.975925445556641,10.006006240844727,-1.938552498817444,-1.305086970329285,-1.774634599685669
14.49860954284668,-8.299126625061037,8.952890396118164,-1.6532665491104128,-1.3141615390777588,-1.5726450681686404
12.336697578430178,-9.09208393096924,9.17558479309082,-0.965892255306244,-1.272650957107544,-1.4422013759613037
9.732501029968263,-8.242116928100586,9.935498237609865,-0.14323517680168152,-1.1363116502761843,-1.266981601715088
7.237697124481202,-5.912985801696777,10.98325824737549,0.4254195392131806,-0.8762550950050355,-0.9865658283233643
4.692144393920898,-3.593091249465943,11.43316650390625,0.6473476290702821,-0.4858080744743347,-0.6998737454414369
1.6076149940490723,-2.102637052536011,10.898809432983398,0.6411312222480775,-0.0030383719131350517,-0.47966814041137695
-1.4074131250381472,-1.34287428855896,9.797090530395508,0.5631470680236816,0.4568231403827668,-0.36506587266921997
-4.222817420959473,-0.8361173868179321,8.034712791442873,0.507288157939911,0.8486018776893617,-0.30738091468811035
-6.844330787658691,-0.6271194219589233,6.475746154785156,0.5184636116027832,1.051849961280823,-0.3201645612716675
-7.145608425140382,-0.34151577949523926,6.522613525390625,0.43885648250579834,1.1779645681381228,-0.2964290082454682
-6.854192733764648,-0.8082306385040283,6.787530422210694,0.326321691274643,1.424316167831421,-0.16449944674968722
-6.94873046875,-1.46846342086792,6.886966228485108,0.30500590801239014,1.7596557140350342,0.015702543780207637
-7.807050228118897,-1.8385795354843142,5.960705757141113,0.33811819553375244,2.0883820056915288,0.2218550145626068
-8.907713890075685,-1.4600354433059695,4.573323726654054,0.3715479373931885,2.3061177730560307,0.4061818420886994
-9.124383926391602,-1.093433976173401,3.784681797027588,0.29374113678932195,2.4386367797851562,0.5757636427879335
-8.237369537353516,-0.8462188839912416,3.8179101943969727,0.12627863883972168,2.6119775772094727,0.766347110271454
-7.759514331817628,-1.0656797885894775,3.3028011322021484,-0.016938755288720134,2.85911226272583,0.9807547926902772
-7.314953804016113,-1.2804015874862673,2.8254721164703374,-0.09573382884263994,3.0717554092407227,1.1927239894866943
-6.171750068664551,-1.2151454687118532,2.6753010749816895,-0.1492942720651627,3.2959327697753906,1.4324649572372439
-5.412665367126465,-0.7186007499694824,2.5315649509429936,-0.1843700855970383,3.5244138240814213,1.65887451171875
-3.7859768867492676,0.08692919462919237,2.6375286579132085,-0.28479135036468506,3.749599695205689,1.874480962753296
-2.303916215896607,0.7583673000335693,2.4012572765350346,-0.3965359926223755,3.982341051101685,2.035187959671021
-0.7000374794006348,1.7247780561447146,2.2675018310546875,-0.5142090320587158,4.165184497833253,2.0892906188964844
1.808450698852539,2.8802063465118413,2.5128626823425293,-0.6728610992431641,4.299405097961426,2.0717637538909917
4.786040306091309,3.013651609420777,2.435200452804566,-0.7944951653480531,4.411528587341309,1.9380420446395876
7.616869926452637,1.859800100326538,1.9204659461975098,-0.6758092045783998,4.441967010498047,1.6705598831176758
10.404302597045898,1.2278814315795898,1.6101887226104736,-0.37309330701828003,4.320428371429444,1.3175122737884521
13.606546401977539,0.8270828723907471,1.9624302387237549,-0.13208924233913424,4.092161655426026,0.9963250160217285
16.618822097778324,-0.22092498838901523,2.4976911544799805,0.0029798722825944424,3.8581774234771733,0.8018226623535156
18.54550552368164,-2.4410781860351562,2.580882787704468,0.16384114325046542,3.6294608116149902,0.7433313131332397
19.42288589477539,-3.825045585632324,1.6540831327438357,0.3628910779953003,3.306503057479859,0.9010058641433716
19.275344848632812,-3.349345922470093,-0.026055604219436646,0.3816439807415009,2.848533391952515,1.2731809616088867
18.09548377990723,-3.1960008144378667,-1.8947374820709229,0.20126894116401672,2.28113341331482,1.7091703414916992
16.688402175903324,-2.9837594032287598,-4.128468036651612,-0.025261083617806438,1.6026475429534912,2.192448139190674
11.599592208862305,-0.5647017359733583,-9.55837631225586,-0.31547859311103826,0.6675567626953125,2.5100123882293706
12.266486167907717,-1.7615967988967898,-9.607460021972656,-0.655868649482727,-0.6288423538208008,2.5298702716827397
95.09763336181642,7.615482330322266,52.096099853515625,1.647261142730713,-1.188118100166321,-1.2291109561920166
2.236430883407593,12.246011734008789,-7.629873275756836,0.8736734390258789,4.69956922531128,-1.3447619676589968
4.68983030319214,-17.139263153076172,14.709856986999513,0.9176629781723022,2.2543575763702397,0.11777858436107635
-9.166969299316406,11.980026245117188,16.111486434936527,0.7082175612449647,1.2254720926284792,0.03040950745344162
-0.028456106781959534,3.3892650604248047,15.411280632019045,0.06228559836745263,0.6281012296676636,-0.550725281238556
1.1104949712753298,-6.01845645904541,11.4323205947876,-0.14012937247753146,-0.4981505870819092,-0.3082468509674072
7.736751556396484,2.187530040740967,9.702638626098633,-0.18819016218185425,-0.6730703711509706,-0.1816381812095642
7.8845791816711435,-4.904171943664551,6.550707817077637,-0.04319777712225915,-0.24664632976055148,-0.1279902458190918
7.316829204559327,-3.4047746658325195,7.498626708984375,0.1764368712902069,0.11612004786729814,-0.0679301768541336
4.889536380767823,-0.4107389152050019,9.173870086669922,0.23723849654197693,0.3844445645809174,-0.059755314141511924
4.0523481369018555,-0.3006201386451721,10.226934432983398,0.1488287299871445,0.3504345417022705,0.020797679200768474
3.989918470382691,-1.1083689928054812,10.016212463378906,0.06436057388782501,0.24647492170333862,0.07027665525674821
4.3727922439575195,-1.557908058166504,9.605303764343263,0.024051165208220485,0.17796415090560913,0.07406083494424821
4.48737907409668,-1.4183223247528076,9.681232452392578,-0.008210371248424055,0.15229365229606628,0.07190316915512085
4.260632514953613,-1.6520402431488037,9.744341850280763,-0.009648749604821205,0.11097795516252519,0.0590042844414711
4.145292758941651,-1.5466567277908327,9.875773429870607,-0.019485540688037872,0.056502774357795715,0.038104761391878135
4.01589298248291,-1.444465756416321,9.824141502380373,-0.05465126037597656,-0.014567305333912374,0.030465632677078247
4.562758445739746,-1.2154937982559206,9.842863082885742,-0.09786855429410936,-0.047325536608695984,0.06448917090892792
4.37848711013794,-1.6920274496078493,9.381760597229006,-0.11316318064928056,-0.05721258372068405,0.07012283056974412
4.79707956314087,-1.5970337390899658,9.500487327575685,-0.11618006229400635,-0.08749811351299286,0.052254330366849906
4.707869052886964,-1.7697479724884033,9.364764213562013,-0.1025170385837555,-0.03055805526673794,0.09466338157653809
4.3274431228637695,-2.183019876480103,9.239491462707521,-0.09337232261896135,-0.049930065870285034,0.0657961368560791
4.583195686340332,-1.5080816745758057,9.59807014465332,-0.09700138866901398,-0.03154691681265832,0.09199711680412292
4.660688877105714,-1.9643191099166872,9.553632736206055,-0.08858063071966173,-0.024240883067250255,0.09520262479782104
4.107004165649414,-2.115049362182617,9.1197509765625,-0.07534659653902055,-0.03316938877105713,0.06831207126379014
4.724207401275636,-1.5415893793106081,9.581031799316406,-0.08155997097492218,-0.04995399340987206,0.07522196322679521
4.724564552307129,-1.6234676837921143,9.622617721557617,-0.07887858897447587,-0.01463405229151249,0.10689116269350053
3.9786734580993652,-2.467684745788574,9.02316188812256,-0.06442461907863617,-0.061679087579250336,0.049161206930875785
4.909235477447511,-1.5990229845047,9.420639038085938,-0.06423839926719666,0.03851746395230294,0.09372983872890472
4.787042617797852,-2.1623489856719975,9.239386558532717,-0.030556445941329006,0.01744908094406128,0.06582397222518921
4.2742276191711435,-1.9740228652954102,9.165348052978516,-0.01350398175418377,-0.0012804829748347404,0.043243348598480225
4.444524765014648,-1.7149657011032107,9.343268394470217,-0.012820703908801079,0.030118975788354874,0.07105786353349687
4.1361494064331055,-2.079797983169556,9.2685546875,-0.023164287209510803,0.05450978502631188,0.09748974442481995
3.594385385513306,-2.463913917541504,9.216156959533693,-0.009945835918188095,-0.03223617747426034,0.010040932334959509
4.864328384399414,-1.6485728025436404,9.50971794128418,-0.015201406553387642,0.008915354497730734,0.02649679034948349
4.407201766967773,-2.131535530090332,9.072297096252443,0.011486232280731201,-0.00901508517563343,-0.00659592216834426
4.671703815460206,-1.5367895364761355,9.282550811767578,0.003993667662143707,0.04085477814078332,0.028019532561302185
3.7956042289733887,-2.0165030956268315,9.015777587890625,0.002884156303480268,0.03919612616300583,0.030412707477808
3.5595347881317143,-2.4990465641021733,9.309795379638672,0.04889947921037674,-0.05509274825453759,-0.05108683556318283
4.224518299102784,-2.1152496337890625,9.393860816955568,0.0711449906229973,-0.07193035632371904,-0.07437272369861603
4.48982048034668,-2.1542646884918217,9.308113098144531,0.0811290591955185,-0.0890144929289818,-0.09141798317432404
4.399919986724854,-1.610817074775696,9.254237174987795,0.10250439494848253,-0.08130846917629242,-0.10823680460453033
4.2473602294921875,-1.4715924263000488,9.351908683776857,0.07909752428531647,-0.09244992583990098,-0.10664661228656769
3.893584728240967,-1.5669482946395876,9.611967086791992,0.04333495721220971,-0.13914696872234347,-0.11161494255065918
3.8578960895538335,-1.8821368217468262,9.696929931640625,0.02606655098497868,-0.20923671126365662,-0.1416403502225876
4.308678150177003,-2.061658620834351,9.427921295166016,0.0277771782130003,-0.24791023135185242,-0.17087650299072266
4.033846378326417,-1.4172282218933105,9.553930282592773,0.018168576061725616,-0.2887412607669831,-0.1823088824748993
4.476053714752198,-1.455667853355408,9.689065933227539,-0.022102938964962963,-0.3562618792057038,-0.17419129610061646
4.255238056182862,-1.6044532060623171,9.652518272399904,-0.0417715385556221,-0.4110455214977265,-0.15984264016151428
4.251542091369629,-1.3522166013717654,9.985829353332521,-0.08624511957168579,-0.5027583241462709,-0.15931786596775058
4.5894317626953125,-1.3631985187530518,9.996178627014162,-0.13719542324543002,-0.587358832359314,-0.1433103829622269
4.554512023925781,-1.0865072011947634,9.859469413757326,-0.19755019247531894,-0.6641165614128114,-0.11879163980484009
4.597930431365968,-0.650949537754059,10.085201263427734,-0.29702311754226685,-0.7784472107887269,-0.07595856487751007
3.713592052459717,-1.944409251213074,9.542316436767578,-0.35128629207611084,-0.9823811650276185,-0.08891499787569047
3.9750924110412598,-0.9390567541122437,10.058274269104006,-0.422680139541626,-1.1805936098098757,-0.09834180772304535
3.695704936981201,-1.3883033990859988,10.423866271972656,-0.5293342471122743,-1.4441343545913699,-0.15471526980400085
2.884486198425293,-2.2449698448181152,9.837464332580568,-0.5059991478919984,-1.7836205959320068,-0.24397809803485873
3.2525854110717773,-2.60828709602356,9.858917236328125,-0.3591543436050415,-2.107214212417603,-0.291471153497696
4.431281566619874,-1.7757970094680788,9.71093273162842,-0.3102133274078369,-2.4604394435882573,-0.3386799693107605
4.534741401672363,-2.0923087596893315,9.358031272888185,-0.28309944272041326,-2.7679588794708256,-0.36493217945098877
5.196695804595948,-1.501866340637207,9.653393745422365,-0.2540189921855927,-3.109166145324707,-0.38979938626289373
4.821531772613526,-1.7060550451278689,9.61228656768799,-0.1748383641242981,-3.5284521579742436,-0.4033417403697968
5.270506858825684,-2.3199639320373535,10.10328769683838,-0.041821684688329704,-4.015387535095215,-0.4096623361110688
5.622459411621094,-3.2853209972381596,9.841876029968263,0.07952707260847093,-4.43437147140503,-0.39999622106552124
7.0385894775390625,-3.5281817913055424,10.611513137817383,0.1094506159424782,-4.774710655212402,-0.3818287551403046
8.9512414932251,-3.6870336532592773,11.801332473754883,0.07482253015041351,-4.900546550750733,-0.35575768351554876
11.653871536254883,-4.704683303833008,13.008607864379883,0.08465442806482316,-4.796905517578125,-0.3977142274379731
14.011005401611328,-6.269124507904054,12.60080337524414,0.38095340132713323,-4.6410489082336435,-0.5523573160171509
18.606271743774418,-5.106484413146973,12.269109725952148,0.6657867431640625,-4.462565898895265,-0.7804473638534546
23.839107513427734,-4.093332767486573,7.975566864013672,0.5511536598205566,-4.399617671966554,-0.9861539006233216
25.789381027221683,-5.811013221740723,3.4593100547790527,0.5404448509216309,-4.385263919830323,-1.1772935390472412
28.753108978271484,-6.280675411224366,3.2151408195495605,0.799079179763794,-4.592838287353516,-1.3850210905075075
26.411800384521484,-4.959787845611573,2.4769270420074467,0.9191893935203553,-4.610007286071777,-1.3781210184097292
27.161293029785156,-1.344630837440491,1.9742016792297363,0.776130497455597,-5.154309272766113,-1.4954705238342285
39.047924041748054,-3.148083925247193,14.153466224670412,0.2231852114200592,-4.679125308990479,-1.6433219909667969
29.66263198852539,-2.1097576618194585,14.57375240325928,-0.39607796072959905,-3.2896444797515874,-1.4215786457061768
28.26382637023926,-1.465926170349121,16.403457641601562,-1.2253241539001465,-2.240726709365845,-1.2845728397369385
23.798475265502933,-2.3394324779510502,15.66206455230713,-1.9260505437850954,-1.0556466579437256,-1.1631598472595215
17.659975051879886,-4.766271591186523,13.742104530334474,-2.2738325595855717,-0.14109483361244202,-1.090057969093323
11.939566612243654,-7.873696804046632,10.943090438842773,-1.8555649518966677,0.33658495545387274,-1.0952379703521729
6.1958417892456055,-9.01786518096924,8.260395050048828,-0.8286112546920776,0.33277574181556707,-1.1945018768310547
3.2272784709930424,-7.598443031311035,8.057342529296875,0.21420116722583774,0.0979468822479248,-1.3206148147583008
2.57235598564148,-4.749151229858398,9.756516456604006,0.8142703771591187,0.03348804637789727,-1.29429030418396
3.7614145278930664,-2.2766880989074707,11.697959899902344,0.7566936612129213,0.41004100441932684,-1.0184900760650635
1.4438966512680056,-2.193959474563599,11.16510009765625,0.49981361627578735,1.1349085569381716,-0.6797902584075928
-2.4728283882141113,-2.783914089202881,9.089659690856935,0.45178622007369995,1.7463911771774294,-0.47785052657127386
-5.814181327819824,-3.022017478942871,6.987717151641847,0.5006725788116455,2.0078289508819585,-0.3754093647003174
-6.277122020721436,-1.9898527860641482,6.537579059600831,0.48505115509033203,2.1183252334594727,-0.24235306680202487
-5.997673988342285,-1.6975394487380984,6.192972183227539,0.3773753941059113,2.3544082641601562,-0.03975834324955941
-6.857404232025147,-1.9090089797973633,5.165018081665039,0.2964750230312348,2.619596004486084,0.18167147040367126
-8.50874137878418,-1.552892088890076,3.270915269851685,0.26135405898094183,2.719613552093506,0.38858208060264593
-9.561182022094727,-0.9184893965721131,1.8547161817550661,0.20617048442363742,2.645061254501343,0.531923770904541
-8.86344623565674,-0.13508880138397217,2.154107093811035,0.024643640965223312,2.5609605312347417,0.6556767225265503
-7.279994010925293,-0.1820656955242157,3.240965604782105,-0.2174089699983597,2.6412010192871094,0.8060545921325684
-5.955684661865234,-0.8297632336616517,3.397897720336914,-0.3385770916938782,2.909723043441773,0.9723637104034424
-6.252346038818359,-0.6839160323143006,2.0686671733856206,-0.31609994173049927,3.1522679328918457,1.1287389993667605
-6.1232709884643555,0.09009427577257158,0.721842110157013,-0.31067475676536566,3.2233505249023438,1.2484005689620974
-5.1643829345703125,0.7534220814704896,0.4675977528095246,-0.380562961101532,3.2139570713043217,1.3458701372146609
-3.3691732883453374,0.9966748356819154,1.2448360919952393,-0.5027611851692201,3.263150215148926,1.4439290761947634
-1.49904465675354,0.8864773511886597,2.053527116775513,-0.5726213455200195,3.4064435958862305,1.55489456653595
0.4092224538326264,0.964267671108246,2.7160484790802006,-0.5712799429893495,3.583932399749756,1.6455947160720827
2.3798651695251465,1.2912853956222536,2.9673614501953125,-0.5285064578056337,3.7500739097595215,1.660921573638916
4.365294933319093,2.030165195465088,2.9809572696685795,-0.5078073143959047,3.8646292686462402,1.5909041166305544
6.722129821777344,2.05706000328064,3.1130166053771973,-0.5090076923370361,3.940931797027588,1.4167245626449587
8.924308776855469,1.810417652130127,2.8337686061859135,-0.43996849656105047,3.9767823219299316,1.1561318635940554
11.2066650390625,1.681500315666199,2.4085881710052495,-0.33306562900543213,3.9253590106964116,0.8486688733100892
13.465624809265138,1.731354594230652,1.6437087059020996,-0.2594269216060639,3.762272357940674,0.5412587523460389
14.78086566925049,0.9126846194267274,0.6747645139694214,-0.16782858967781067,3.4875011444091797,0.24187941849231723
15.205237388610842,0.006701689213514328,-0.3824871778488159,-0.034414857625961304,3.0549294948577885,-0.04226846992969513
15.494521141052248,-0.9694671630859375,-0.9766451716423036,0.06634025275707245,2.5161998271942143,-0.24128015339374545
15.98226070404053,-2.185544013977051,-1.0283629894256592,0.15638630092144015,1.9298241138458252,-0.3756079971790314
16.265247344970703,-2.949043512344361,-1.0526690483093262,0.20681354403495789,1.3559174537658691,-0.39412197470664984
16.12788581848145,-1.867748737335205,-2.228176832199097,0.1620362401008606,0.7750288844108583,-0.26382970809936523
22.054307937622074,13.19734001159668,-24.905538558959964,-0.7797002196311952,-1.793269395828247,-1.4593784809112549
110.06162261962892,-0.5508519411087036,70.92168426513673,-2.4144973754882812,0.4155761897563935,-0.8375049829483032
-21.512989044189453,8.905780792236328,-29.69350814819336,1.289387106895447,3.5240905284881596,-0.8521127700805664
19.350835800170902,11.263064384460451,25.1671314239502,-1.4518718719482422,2.3194019794464116,0.49377453327178955
-12.568510055541992,1.1764312982559206,13.218416213989258,-0.6271258592605591,2.8226692676544194,0.4076507985591889
-1.3617963790893555,-9.373057365417482,12.629419326782227,-0.29628136754035955,1.5519492626190186,0.13304637372493747
-0.8371524214744569,-11.89936637878418,11.180804252624513,0.12612083554267883,0.6162455081939697,-0.09762609750032426
-1.7783067226409912,-5.639344215393066,11.620961189270021,0.24536751210689547,-0.17719346284866333,-0.3638014495372773
4.521845340728761,0.41896504163742065,10.758674621582031,0.25667309761047363,-0.25614741444587713,-0.683461368083954
8.646488189697266,1.7834686040878298,8.365362167358398,0.20358850061893466,-0.2010144591331482,-0.487210899591446
8.215909957885742,2.453762769699097,8.995093345642092,0.04845018684864044,0.033315837383270264,-0.10991042107343675
5.998459339141847,-0.48990985751152044,8.855814933776857,0.021098198369145397,0.2912569046020508,0.06168614700436593
3.9678001403808594,-3.4619336128234863,9.265796661376953,0.06016427651047707,0.36317598819732666,0.08031013607978821
2.934688091278076,-2.9820201396942143,9.79118537902832,0.12467613071203233,0.23784783482551575,-0.021499795839190487
3.903254985809326,-0.6133829951286317,10.165573120117188,0.11873005330562592,0.11552511155605316,-0.07445355504751207
4.492842197418214,-0.26944044232368475,10.00208377838135,0.020757991820573807,0.0481441579759121,-0.02884048968553543
4.538562297821046,-1.0502803325653076,9.733372688293459,-0.02319115959107876,0.03809570521116257,0.010823586955666542
4.172887802124023,-2.0042002201080327,9.738924980163576,-0.012791596353054047,0.025023592635989193,0.014229437336325645
3.9853942394256596,-1.8524961471557617,9.793924331665039,-0.012105523608624937,-0.020362818613648418,-0.012389246374368668
4.365230083465577,-1.5313355922698975,9.632979393005373,-0.011778542771935463,-0.05183755978941918,-0.021856922656297684
4.794338226318359,-1.2734296321868896,9.548421859741211,-0.012150278314948082,-0.0316133238375187,-0.002446941332891584
4.5829973220825195,-1.3690949678421023,9.538268089294435,-0.022123511880636215,-0.004358986858278514,0.026241499930620193
4.382657527923585,-1.677037000656128,9.581836700439453,-0.03390663117170334,-0.05801582336425781,0.009473069570958616
4.322136402130128,-1.281357765197754,9.645827293395998,-0.02759216167032719,-0.01596561074256897,0.04443504288792611
3.777261257171631,-1.9242447614669802,9.59789562225342,-0.05576786771416665,-0.0799063891172409,0.02332412078976631
4.354768753051758,-0.9988845586776733,9.809540748596193,-0.08094570785760881,-0.11674261093139648,0.02547399885952473
4.311047077178956,-1.2762471437454226,9.75193977355957,-0.1087975800037384,-0.1432684361934662,0.042165171355009086
4.313915252685547,-1.3701839447021484,9.565798759460451,-0.14399421215057373,-0.15903328359127047,0.054267287254333496
4.143628597259522,-1.7556419372558594,9.43521499633789,-0.14246042072772983,-0.22669795155525208,0.025805700570344925
4.251416206359863,-1.1646176576614382,9.808852195739748,-0.1658606976270676,-0.22589868307113647,0.04992832615971566
3.839152097702027,-1.3332389593124392,9.767227172851562,-0.2025251537561417,-0.3292821943759919,0.021929237991571426
4.336836814880371,-0.9265382289886475,9.876808166503906,-0.2594751417636872,-0.37365591526031494,0.03903267160058022
4.083757877349854,-1.306006908416748,9.479990005493164,-0.30549347400665283,-0.4008744060993195,0.05161741748452187
