AccX,AccY,AccZ,GyrX,GyrY,GyrZ
0.00010086900874739514,-3.44734980899375e-05,0.00023513089399784803,4.1813841278326436e-08,-3.708548490521935e-07,-3.365315137671132e-07
4.143649578094483,-1.4217308759689333,9.638121604919435,-0.00028052390553057194,-0.010270431637763977,-0.010669752024114134
4.134988307952882,-1.4237531423568728,9.629746437072756,0.000918083533179015,-0.010878236964344978,-0.011316307820379736
4.118059635162354,-1.4216876029968262,9.60931396484375,0.003444046480581165,-0.011872813105583191,-0.011797158047556877
4.119937896728516,-1.4241678714752197,9.625223159790039,0.0011772223515436055,-0.011300817131996155,-0.012090929783880712
4.121370315551758,-1.4201589822769167,9.61623287200928,0.0016395641723647716,-0.010046272538602354,-0.011720722541213036
4.13233757019043,-1.4222049713134766,9.64759922027588,0.001600833027623594,-0.010476427152752876,-0.011234658770263197
4.143594264984132,-1.4181451797485352,9.611996650695803,-0.0008030810859054327,-0.014013466425240042,-0.012338646687567236
4.147503852844238,-1.4160224199295046,9.63948154449463,-9.468790085520595e-05,-0.016169523820281032,-0.012288287281990051
4.150734424591065,-1.4320789575576784,9.624217033386232,8.427749708062039e-05,-0.01448021922260523,-0.0134205911308527
4.168552398681641,-1.4140493869781494,9.594268798828125,0.0006918633007444442,-0.012833250686526299,-0.011281508021056654
4.147892951965332,-1.4314547777175906,9.643835067749023,0.000705328246112913,-0.0108293816447258,-0.010383376851677895
4.146644115447999,-1.4180694818496706,9.617982864379883,-0.0011881660902872684,-0.010243739932775497,-0.009661280550062658
4.142627716064453,-1.41572904586792,9.669058799743654,-0.000553179532289505,-0.012707235291600227,-0.010982428677380087
4.131749153137207,-1.4587287902832031,9.63006114959717,0.001537621137686074,-0.012186996638774872,-0.01163857337087393
4.128224849700929,-1.436849594116211,9.648170471191406,0.0015146329533308744,-0.01128331106156111,-0.01237922813743353
4.147643089294434,-1.4046599864959717,9.662574768066406,0.0024069987703114752,-0.01210632361471653,-0.013648866675794126
4.138602256774902,-1.3894475698471072,9.619146347045898,-0.001322480384260416,-0.012635229155421257,-0.013364325277507307
4.142726898193359,-1.4209500551223757,9.621861457824709,0.0010004581417888403,-0.012630288489162924,-0.01183726079761982
4.1308331489563,-1.4187871217727663,9.63214111328125,0.0011419287184253337,-0.01184946857392788,-0.0122536551207304
4.153765201568604,-1.4003406763076784,9.63766860961914,-0.00027605702052824205,-0.012936517596244812,-0.012498403899371626
4.145595550537109,-1.421659827232361,9.652199745178224,-0.001295457477681339,-0.01118918973952532,-0.01111563853919506
4.138408660888672,-1.4090020656585693,9.627171516418459,0.0007610286120325327,-0.01341445464640856,-0.011419065296649933
4.127135753631593,-1.419345021247864,9.614912986755373,0.002010270021855831,-0.012694996781647207,-0.012300831265747549
4.11596441268921,-1.4392663240432741,9.615362167358398,0.0004205676086712629,-0.01367335394024849,-0.011600705794990064
4.137129783630371,-1.4108366966247559,9.644157409667969,-0.000655898649711162,-0.016225216910243038,-0.013327289372682571
4.139194488525391,-1.415402889251709,9.645934104919435,0.0009613913716748357,-0.01455765124410391,-0.011815773323178291
4.1632795333862305,-1.4151674509048464,9.6236572265625,-0.00037283034180291,-0.01402936689555645,-0.011280486360192299
4.149487495422363,-1.3992815017700195,9.611082077026367,-0.002375558018684387,-0.01360407564789057,-0.010887911543250084
4.139986515045167,-1.4076168537139893,9.630724906921388,-0.0006525147473439574,-0.012566711753606796,-0.011683902703225614
4.141324043273926,-1.4301090240478516,9.644162178039553,0.001748732989653945,-0.012593680061399938,-0.011347781866788864
4.12911319732666,-1.4397815465927126,9.635409355163576,0.001114171580411494,-0.014907974749803543,-0.011964378878474236
4.13531494140625,-1.4145891666412354,9.63619899749756,-0.00041417803731746977,-0.015638161450624466,-0.011559787206351759
4.14898443222046,-1.4100097417831423,9.634148597717287,-0.0021826555021107197,-0.013660134747624397,-0.012423134408891203
4.14650821685791,-1.4170966148376465,9.641041755676271,0.00022189310402609408,-0.015604003332555296,-0.012332204729318619
4.160892486572266,-1.437119722366333,9.61198139190674,8.892493497114629e-05,-0.013941398821771147,-0.011695283465087416
4.149954795837402,-1.4012110233306885,9.641944885253906,0.000992796616628766,-0.013632276095449926,-0.012127608060836792
4.132839202880859,-1.395404934883118,9.637927055358888,0.0006347062881104649,-0.012672889046370985,-0.010990431532263756
4.1478776931762695,-1.4155713319778445,9.646957397460938,8.683335181558506e-05,-0.014189234003424644,-0.011781360022723677
4.139051914215089,-1.426913380622864,9.628788948059084,-0.0005908986204303802,-0.012365143746137619,-0.011117339134216309
4.140066623687745,-1.4214612245559695,9.636789321899414,0.001003497513011098,-0.014045228250324728,-0.013252286240458488
4.126926422119141,-1.4267143011093142,9.634246826171875,0.0009280568920075893,-0.013370461761951447,-0.013354324735701086
4.137079238891602,-1.4392743110656738,9.643763542175295,0.002497465815395117,-0.013676076196134092,-0.012850387021899223
4.157567024230957,-1.3990755081176758,9.64188861846924,-0.0014472728362306955,-0.01494421623647213,-0.013213574886322021
4.160368919372559,-1.4084453582763672,9.643911361694336,-0.002237057313323021,-0.016180736944079403,-0.011415757238864899
4.152961730957031,-1.424476146697998,9.643686294555664,-0.001924561685882509,-0.01771497912704945,-0.011402996256947517
4.148021697998047,-1.414360761642456,9.631779670715334,-0.002953169168904424,-0.016467485576868057,-0.011003703810274603
4.152496814727784,-1.4120526313781738,9.618114471435547,-0.003413984784856439,-0.017227083444595337,-0.012454202398657799
4.144366264343262,-1.4423589706420898,9.614268302917482,-0.0032056868076324463,-0.016442427411675457,-0.01258418895304203
4.163814544677734,-1.4338351488113406,9.643015861511232,-0.002119472250342369,-0.015435419976711273,-0.011722120456397535
4.163150310516358,-1.441120505332947,9.612290382385256,0.0003256734053138644,-0.014268040657043457,-0.012173098511993887
4.166922092437745,-1.4239182472229004,9.631778717041016,0.0003342039126437158,-0.013600461184978485,-0.011055625975131989
4.147939682006836,-1.3946332931518555,9.650310516357422,-0.0006815606029704213,-0.012154568918049337,-0.011701704934239388
4.153125286102296,-1.4371606111526491,9.64134407043457,-0.0010957494378089905,-0.010854575783014297,-0.008933083154261114
4.159149646759034,-1.425347089767456,9.616605758666992,0.0004592266341205687,-0.011359767988324165,-0.010541821829974653
4.158255577087402,-1.4287967681884766,9.636641502380373,-2.5746361643541604e-05,-0.01247625518590212,-0.011112364940345289
4.149109840393066,-1.4247754812240603,9.616381645202638,-0.0006262501119636,-0.01204889826476574,-0.011208334006369116
4.160400867462159,-1.4357293844223025,9.651260375976562,0.0005394072504714131,-0.013974441215395927,-0.01150846015661955
4.141590595245362,-1.426830530166626,9.643579483032227,-0.0013618639204651117,-0.015559309162199499,-0.011436980217695236
4.134829521179199,-1.4210500717163086,9.649937629699709,0.0007675427477806807,-0.016080772504210476,-0.011484690941870214
4.159157276153565,-1.3996855020523074,9.625216484069826,-0.0007636413793079556,-0.014883829280734062,-0.011949663050472738
4.162203311920167,-1.4375426769256592,9.62869644165039,-0.00134761119261384,-0.013454664498567581,-0.013484607450664045
4.137680530548097,-1.4108984470367432,9.63658332824707,-0.0010918808402493598,-0.014762302860617638,-0.012788035906851293
4.145093441009522,-1.4286463260650635,9.631048202514648,-0.0013020263286307456,-0.014674391597509384,-0.012358788400888443
4.139726161956788,-1.4449217319488525,9.647401809692383,-0.0030123086180537943,-0.015723351389169693,-0.012789561413228514
4.162836074829102,-1.4187850952148438,9.66646957397461,-2.661334292497486e-05,-0.01528974249958992,-0.012723009102046491
4.163451671600343,-1.4322105646133425,9.60263442993164,0.0014761836500838401,-0.015278611332178116,-0.01264398265630007
4.170157432556152,-1.445357918739319,9.643250465393068,-0.00019806213094852865,-0.01523586828261614,-0.011438212357461454
4.165178298950195,-1.4241368770599365,9.619023323059084,0.0009993792045861483,-0.012835844419896604,-0.010193439200520515
4.164000034332276,-1.4186415672302246,9.635666847229006,-0.0003213586460333318,-0.012366001494228842,-0.01142711378633976
4.158050060272218,-1.410003662109375,9.642646789550781,0.00022290709603112194,-0.009753527119755745,-0.010266414843499662
4.150662422180176,-1.409576416015625,9.634504318237305,-0.0022034677676856518,-0.011055673472583296,-0.009845745749771597
4.147282600402832,-1.4130266904830935,9.647336959838867,-0.00010900977940764278,-0.011865812353789808,-0.01087847352027893
4.149942874908448,-1.4230905771255495,9.651449203491211,-0.000996638438664377,-0.011701528914272787,-0.009157044813036919
4.1394410133361825,-1.433577060699463,9.623722076416016,-0.00015411421190947294,-0.011092971079051496,-0.009032359346747398
4.149423599243164,-1.43087112903595,9.659581184387209,-0.0012750762980431318,-0.012392881326377394,-0.011307827197015287
4.161251068115234,-1.4138083457946777,9.628475189208984,-0.0006675468757748604,-0.012206462211906912,-0.012156745418906212
4.161913394927979,-1.4394501447677615,9.648255348205568,-0.0017418432980775833,-0.014170246198773384,-0.009231590665876867
4.164563655853272,-1.431650757789612,9.621972084045412,0.0006513718981295824,-0.013216369785368444,-0.010846255347132683
4.153684616088867,-1.4281625747680664,9.619501113891602,0.000550989294424653,-0.013027246110141279,-0.011152402497828008
4.160074710845948,-1.4002931118011475,9.665607452392578,-0.0006362807471305132,-0.013209252618253233,-0.011542681604623795
4.17219352722168,-1.4386942386627197,9.622064590454102,-0.002569267526268959,-0.011409452185034752,-0.01155738439410925
4.174730777740479,-1.448686122894287,9.627737045288086,-0.0005956575623713435,-0.011171380057930946,-0.009601832367479803
4.137773036956788,-1.4441850185394287,9.633882522583008,-0.0003174323355779052,-0.011138661764562132,-0.01063347700983286
4.1544599533081055,-1.4082330465316775,9.613027572631836,0.0012206129031255843,-0.008870448917150497,-0.011075002141296865
4.162907600402832,-1.4203441143035889,9.629241943359375,0.0029223081655800343,-0.009567948058247566,-0.009786819107830526
4.139755725860597,-1.416802167892456,9.626960754394531,0.00209753611125052,-0.011003561317920685,-0.012259674258530142
4.13611936569214,-1.4263259172439577,9.622005462646484,0.002935953671112657,-0.01135982945561409,-0.012182043865323067
4.149577617645265,-1.4388620853424072,9.660923957824709,0.0028218268416821957,-0.012135869823396208,-0.013605518266558647
4.146581649780273,-1.4119839668273926,9.628283500671388,0.001562975929118693,-0.015019935555756094,-0.013596741482615471
4.157883644104004,-1.3845202922821045,9.624917984008789,0.0010786788770928981,-0.014006506651639938,-0.012398294173181059
4.168289661407472,-1.4214329719543457,9.629788398742678,0.001127717550843954,-0.013264049775898458,-0.01130474265664816
4.16197156906128,-1.428520679473877,9.639157295227053,0.001232570968568325,-0.011274571530520918,-0.012957662343978882
4.144524097442628,-1.4044318199157715,9.58786392211914,0.0005468379240483046,-0.010332135483622551,-0.010856517590582372
4.14424991607666,-1.4206326007843018,9.64207649230957,0.0011556772515177727,-0.010555042885243894,-0.011061463505029678
4.1309828758239755,-1.4428893327713015,9.639982223510742,0.002805976662784815,-0.011429025791585447,-0.0102758901193738
4.137322902679444,-1.4138033390045166,9.639368057250977,0.0014682238688692453,-0.012616964057087898,-0.012184298597276213
4.152112483978272,-1.4203177690505984,9.649971008300781,0.0004995072376914323,-0.015147496946156027,-0.012405607849359512
4.164885520935059,-1.3814214468002322,9.605858802795412,-0.00039867460145615047,-0.017288796603679657,-0.01348881144076586
4.134695529937745,-1.4360469579696657,9.599550247192383,0.0005409384611994028,-0.017623322084546093,-0.012047487311065199
4.13963508605957,-1.428422808647156,9.640525817871094,-0.0012089057127013805,-0.01709512621164322,-0.013143899850547315
4.149490833282472,-1.443489193916321,9.628469467163086,-0.0022261876147240405,-0.0198941994458437,-0.013222279027104378
4.136287212371827,-1.437164545059204,9.625411033630373,-0.0031383947934955363,-0.02053600177168846,-0.013692446984350683
4.1722307205200195,-1.3904155492782595,9.600021362304688,-0.003797142999246717,-0.019637860357761383,-0.014811161905527115
4.167679786682129,-1.402332425117493,9.617669105529787,-0.004129124339669944,-0.019300196319818497,-0.015314497984945776
4.161798000335694,-1.4224247932434082,9.614417076110842,-0.0040668584406375885,-0.02106185257434845,-0.01383854914456606
4.159966468811035,-1.4072073698043825,9.594951629638672,-0.0020233413670212035,-0.01977146789431572,-0.013401334173977377
4.165115833282472,-1.400724172592163,9.619813919067383,-0.003284313483163715,-0.019581645727157593,-0.014562264084815979
4.139183521270753,-1.4044153690338135,9.61518955230713,-0.0018819395918399096,-0.017808942124247554,-0.013112219050526619
4.163179397583008,-1.4277166128158572,9.633333206176758,-0.0022685804869979624,-0.017230493947863582,-0.013777811080217361
4.17288637161255,-1.406426191329956,9.620935440063477,-0.00353334192186594,-0.018353806808590892,-0.013915728777647018
4.174148082733155,-1.4172035455703738,9.62791633605957,-0.004951796028763057,-0.017180215567350388,-0.01294318214058876
4.189029216766358,-1.4172139167785645,9.601781845092773,-0.003452479839324951,-0.015081736259162428,-0.011956337839365005
4.202590465545655,-1.4353278875350954,9.606172561645508,-0.00011224135960219429,-0.010103917680680754,-0.011432094499468803
4.179518222808839,-1.447806239128113,9.597744941711428,0.0022603839170187716,-0.010446721687912941,-0.010822043754160406
4.175968647003175,-1.4290446043014529,9.615818977355959,0.0035812554415315394,-0.008481377735733986,-0.013844925910234451
4.166506290435792,-1.4291465282440186,9.628568649291992,0.004090622533112765,-0.006936647929251194,-0.012556635774672033
4.125770092010499,-1.4373332262039187,9.639135360717773,0.00457958271726966,-0.0059189177118241796,-0.012103622779250145
4.158890247344972,-1.415800452232361,9.632650375366211,0.003847979241982103,-0.008829215541481972,-0.013138961978256704
4.168983936309815,-1.4116835594177246,9.635609626770021,0.003988685552030803,-0.008700475096702576,-0.014470500871539116
4.158181190490723,-1.4175193309783936,9.629153251647951,0.0034195929765701294,-0.008815462701022627,-0.012200694531202316
4.16748046875,-1.4143360853195193,9.616297721862795,0.0044188820756971845,-0.006071418058127166,-0.012183735147118568
4.172084331512452,-1.3921561241149902,9.64712142944336,0.004128951113671065,-0.005555044859647751,-0.009853799827396871
4.175281524658203,-1.4499969482421875,9.578765869140625,0.0034681474789977074,-0.008986367844045164,-0.008724601007997991
4.167300224304199,-1.4307570457458496,9.633916854858398,0.00361300096847117,-0.00661163404583931,-0.009848509915173055
4.175891399383546,-1.4126988649368288,9.61282253265381,0.003438986837863922,-0.005550729110836983,-0.008766763843595983
4.178461074829102,-1.4290317296981814,9.662446022033693,0.003859907621517778,-0.0021835872903466225,-0.006440638098865748
4.170141220092773,-1.4274704456329346,9.610427856445312,0.00289856200106442,-0.0034904414787888527,-0.009128760546445847
4.137857913970948,-1.4600492715835574,9.608932495117188,0.0035553197376430035,-0.003227162873372436,-0.011057592928409576
4.152692317962647,-1.4314203262329102,9.627840042114258,0.005988987162709236,-0.00556380208581686,-0.01045081112533808
4.159533500671387,-1.38094162940979,9.642636299133303,0.0045952145010232925,-0.006322376895695926,-0.012253746390342712
4.162745475769043,-1.404616117477417,9.649453163146974,0.0034629139117896557,-0.008035418577492239,-0.010218019597232344
4.164405345916749,-1.409803867340088,9.622209548950195,0.002086530672386289,-0.006790942512452602,-0.008575490675866606
4.161511898040772,-1.4429278373718262,9.60511589050293,0.004604343790560962,-0.0038701060693711047,-0.009501788765192032
4.17173719406128,-1.4241092205047607,9.616788864135742,0.007940196432173254,-0.0038875937461853027,-0.008814658038318159
4.183914661407472,-1.4046584367752077,9.619651794433594,0.006013565231114627,-0.0013825874775648117,-0.010488852858543396
4.201735019683839,-1.4474856853485107,9.636539459228516,0.008209872059524061,0.0019318372942507267,-0.010031887330114843
4.181666374206543,-1.437305569648743,9.60013198852539,0.010676698759198189,0.005955257453024387,-0.009238480590283872
4.182276248931886,-1.390768051147461,9.648771286010742,0.010873804800212385,0.007890285924077034,-0.008081926964223387
4.168221473693848,-1.4328510761260986,9.645358085632326,0.010635877028107643,0.009405517019331457,-0.007308552507311107
4.104323863983155,-1.4406092166900635,9.605828285217287,0.012078216299414635,0.010075935162603857,-0.009939689189195633
4.097057819366456,-1.413001894950867,9.66295909881592,0.010304159484803678,0.0020668839570134882,-0.009627144783735275
4.126827239990234,-1.417297601699829,9.688953399658203,0.005541627295315266,-0.003255610121414066,-0.01048126071691513
4.131213665008546,-1.3983900547027588,9.647284507751467,0.004478957504034042,-0.005581669043749572,-0.010462858714163305
4.145366191864015,-1.4013134241104128,9.641792297363281,0.0024424076545983557,-0.005680467933416367,-0.009842173196375372
4.151003360748292,-1.40031373500824,9.6162805557251,0.0012914125109091403,-0.006599712651222945,-0.008276121690869331
4.174206733703613,-1.4048756361007693,9.615471839904787,0.003110517514869571,-0.003954771906137466,-0.00816138554364443
4.184459686279297,-1.425197243690491,9.62511730194092,0.0027259206399321556,0.0005493126227520407,-0.007157374639064074
4.175921440124512,-1.4038829803466797,9.601932525634766,0.0054191923700273046,0.003974991850554943,-0.004428658168762923
4.16810178756714,-1.419891953468323,9.616474151611328,0.009620731696486473,0.01081714779138565,-0.0065709403716027745
4.209076881408691,-1.4073599576950075,9.625150680541992,0.015037734061479568,0.01903977803885937,-0.003860965371131897
4.205646038055421,-1.3906586170196533,9.624109268188477,0.017227377742528915,0.02458622492849827,-0.001405357266776264
4.200303554534913,-1.4289958477020264,9.639799118041992,0.021703165024518967,0.033121485263109214,0.000557577470317483
4.145273208618164,-1.429405689239502,9.573639869689943,0.02706800401210785,0.04108123481273651,0.00043181781074963515
3.93726134300232,-1.5081441402435303,9.623814582824709,0.03076157718896866,0.03657137975096703,-0.004477618262171745
4.134318828582765,-1.4860042333602907,9.646971702575685,0.033580802381038666,0.028467586264014248,-0.00984532665461302
4.124782085418702,-1.3317317962646484,9.656013488769531,0.03180565685033798,0.028115617111325267,-0.00757216103374958
4.132819175720215,-1.3203186988830566,9.66537094116211,0.02620391547679901,0.02832263708114624,-0.003282180288806558
4.123315811157227,-1.3322757482528689,9.68311405181885,0.021883465349674225,0.029081160202622417,7.047201506793499e-05
4.160929203033448,-1.3546692132949831,9.674897193908693,0.019109122455120087,0.029229613021016124,0.005092259030789138
4.147613048553468,-1.3618046045303347,9.66040897369385,0.01795134507119656,0.032935045659542084,0.009546360932290556
4.115074157714844,-1.2877506017684939,9.656496047973633,0.015009989961981773,0.032743461430072784,0.012157362885773184
4.061698913574219,-1.400614142417908,9.641436576843263,0.012973489239811897,0.031910490244627006,0.013787871226668358
4.110406875610352,-1.3521860837936404,9.59335708618164,0.0157234612852335,0.03358340263366699,0.011650150641798973
3.932969093322754,-1.3783241510391238,9.564477920532227,0.017643267288804058,0.030117403715848923,0.007627989631146193
3.9483418464660645,-1.4422101974487305,9.637285232543945,0.011110546067357063,0.018587876111268997,0.001440300955437124
3.9958074092864995,-1.4099829196929932,9.672355651855469,0.008953521028161049,0.009254637174308302,-0.0030573708936572075
4.030768394470215,-1.392961025238037,9.681135177612305,0.00595310376957059,0.0024759620428085327,-0.006463784724473953
4.0747952461242685,-1.363039493560791,9.703033447265625,0.002724501769989729,-0.0018662471557036044,-0.004560419358313084
4.070472717285156,-1.4249986410140993,9.629618644714357,0.002241985872387886,-0.0025416244752705097,-0.0048400149680674085
4.102554798126222,-1.5019254684448242,9.517541885375977,0.010670457035303116,0.0031799899879843,-0.0073121897876262665
4.063311100006104,-1.4206397533416748,9.564804077148438,0.02179738320410252,0.014073854312300682,-0.013624802231788635
4.078664302825929,-1.389754056930542,9.616397857666016,0.026685515418648723,0.022042565047740936,-0.01711610890924931
4.082808494567871,-1.4621918201446533,9.683217048645021,0.03047068417072296,0.0262099951505661,-0.018017234280705455
4.057023048400879,-1.3828254938125613,9.691133499145508,0.037170853465795524,0.04135172814130783,-0.012642740271985533
3.972920179367066,-1.2837417125701904,9.690910339355469,0.02932260744273663,0.03820212185382843,-0.008114643394947052
4.013411521911621,-1.3200643062591553,9.716382026672365,0.01915767416357994,0.02412701211869717,-0.013596858829259872
4.068924903869629,-1.2556751966476443,9.722390174865724,0.010430894792079926,0.01900617405772209,-0.011620958335697653
3.992928981781006,-1.2849837541580202,9.65053462982178,0.004800925962626934,0.021854771301150325,-0.0058524347841739655
4.049273967742921,-1.3271957635879519,9.62813949584961,0.0008330515702255071,0.02197892591357231,-0.007140921428799629
4.097158908843995,-1.2981389760971072,9.666565895080568,-0.003582102246582508,0.025990119203925136,-0.0037821526639163494
4.035982131958008,-1.4461331367492676,9.661343574523928,-0.007861020043492317,0.03657129406929016,-0.0026597178075462584
4.051729679107667,-1.4330290555953982,9.733838081359865,-0.0007332171080633998,0.026595769450068477,-0.0007056236499920487
4.050247669219972,-1.452599048614502,9.772814750671388,-0.002838623244315386,0.018359491601586345,-0.002432035515084863
4.0149245262146005,-1.3636364936828613,9.779494285583498,-0.00686894590035081,0.009676456451416016,-0.002220376627519727
4.019725799560547,-1.2540222406387331,9.80367946624756,-0.01961537264287472,-0.0017642177408561113,0.0001844339130911976
3.9529452323913574,-1.2988094091415407,9.86778450012207,-0.035158947110176086,-0.01849388144910336,0.00046151678543537855
3.965986013412476,-1.2773672342300417,9.808420181274414,-0.052683353424072266,-0.034785028547048576,0.003589828265830875
3.973768711090088,-1.2892179489135742,9.786491394042969,-0.06640121340751648,-0.04777888581156731,0.007503220811486244
3.9815042018890385,-1.376929759979248,9.751925468444826,-0.0773393288254738,-0.056458178907632835,0.009146122261881828
4.023590087890625,-1.4435749053955078,9.715027809143068,-0.0810106098651886,-0.0642964616417885,0.008211864158511162
4.0291852951049805,-1.4775099754333496,9.70529079437256,-0.08237991482019426,-0.06847040355205536,0.006216001696884632
4.051603317260742,-1.4845417737960818,9.683447837829592,-0.07807711511850358,-0.07037821412086487,0.004181954544037581
4.047577381134034,-1.4357004165649414,9.68344020843506,-0.07774349302053453,-0.07430122047662736,-0.0009237853810191154
4.091825485229492,-1.4354801177978516,9.677283287048342,-0.07751382887363434,-0.0752432867884636,-0.0009345741709694266
3.996570110321045,-1.4273574352264404,9.637137413024904,-0.08062980324029924,-0.07790084183216095,-0.0011157323606312275
4.010986328125,-1.4825763702392578,9.736785888671875,-0.08439747989177704,-0.0887645408511162,-0.0014669320080429316
4.0588135719299325,-1.5103800296783447,9.659549713134766,-0.08712087571620941,-0.09472005069255829,-0.004957284312695266
4.082564353942871,-1.4622631072998047,9.60585117340088,-0.08104055374860765,-0.09139682352542877,-0.004611802753061057
4.104221343994141,-1.4336764812469482,9.616472244262695,-0.07999817281961442,-0.09123599529266357,-0.00355716934427619
4.125934123992921,-1.4516810178756716,9.629404067993164,-0.07880560308694841,-0.08732186257839203,-0.0020328925456851725
4.104923725128175,-1.4737141132354736,9.618029594421388,-0.07634691148996355,-0.08617045730352403,-0.002991178072988987
4.018554210662843,-1.5254470109939577,9.671627998352053,-0.07910046726465227,-0.09313467144966125,-0.003793669166043401
4.087713241577148,-1.5091078281402588,9.656585693359375,-0.08148802816867828,-0.10029732435941698,-0.007372819352895022
4.097435474395753,-1.497030854225159,9.670298576354982,-0.08468394726514818,-0.10810108482837677,-0.00842131953686476
4.08903455734253,-1.454129695892334,9.678731918334961,-0.09232936799526215,-0.11434309184551239,-0.005267967935651542
4.090327262878418,-1.5990848541259766,9.616390228271484,-0.09049150347709656,-0.12283942848443986,-0.007086695171892643
4.092624187469483,-1.6906611919403076,9.579161643981935,-0.08024825900793077,-0.121710404753685,-0.01732957735657692
4.120811462402344,-1.6124104261398318,9.568714141845703,-0.07057525217533112,-0.12476191669702531,-0.024670567363500595
4.16920042037964,-1.5622624158859255,9.575309753417969,-0.0641796961426735,-0.12658606469631198,-0.02697351947426796
4.155991077423097,-1.6015629768371582,9.577659606933594,-0.06115137040615082,-0.12873719632625583,-0.03306563198566437
4.136793613433839,-1.56935453414917,9.5642786026001,-0.059677183628082275,-0.13355471193790439,-0.038188148289918906
4.219020366668702,-1.6083313226699831,9.552647590637209,-0.06172025203704834,-0.13730697333812716,-0.04240810126066208
4.181926250457765,-1.5326083898544314,9.554807662963867,-0.06361217051744462,-0.14143626391887668,-0.047119878232479095
4.214137077331543,-1.4207053184509277,9.610135078430178,-0.070089690387249,-0.1513509452342987,-0.04447994753718377
4.116153717041016,-1.5234603881835938,9.637761116027834,-0.07765989005565643,-0.16744925081729892,-0.0446867160499096
4.100656032562257,-1.5523141622543337,9.591287612915039,-0.08688437193632127,-0.18510887026786804,-0.048807080835103996
4.203563690185547,-1.3272074460983279,9.677420616149904,-0.0999210923910141,-0.20395830273628235,-0.04894154891371728
4.176793575286866,-1.383732557296753,9.677701950073242,-0.11784204095602037,-0.22708284854888916,-0.04298007860779763
4.17606258392334,-1.4928369522094727,9.594019889831545,-0.13319942355155945,-0.2525415718555451,-0.046869311481714256
4.151050090789796,-1.560563087463379,9.643877029418945,-0.13760609924793246,-0.27649229764938354,-0.0593077875673771
4.120562076568604,-1.9028973579406738,9.498802185058594,-0.11263833940029144,-0.30495190620422363,-0.08264947682619096
4.168937683105469,-1.8637399673461914,9.519812583923342,-0.09071803838014604,-0.33198338747024536,-0.11005500704050065
4.230929374694824,-1.7541848421096804,9.549063682556154,-0.08238106966018677,-0.3600084483623505,-0.1293861120939255
4.301007270812988,-1.5944068431854248,9.566210746765138,-0.07975720614194871,-0.3944300413131714,-0.13505737483501437
4.095998287200929,-1.697702407836914,9.556249618530273,-0.06500750035047533,-0.43648329377174383,-0.13790249824523926
4.073251247406007,-1.666460156440735,9.55978775024414,-0.053993165493011475,-0.5046522021293641,-0.15703606605529785
4.085078716278077,-1.7847049236297607,9.615602493286133,-0.03616938367486001,-0.587009072303772,-0.16647997498512268
4.02436637878418,-1.3759855031967165,9.842078208923342,-0.03125270083546639,-0.6950936317443848,-0.1628326922655106
3.9979879856109624,-1.2999505996704102,9.806486129760742,-0.06843768805265428,-0.836456596851349,-0.1495373547077179
3.644855499267578,-1.2569303512573242,9.937982559204102,-0.1089310720562935,-0.9967424869537354,-0.14929951727390292
3.507681369781494,-1.4502786397933962,10.210142135620117,-0.11106537282466888,-1.2386790513992312,-0.17039118707180026
3.4162216186523438,-1.4683837890625,10.220640182495117,-0.12776146829128268,-1.4643418788909912,-0.21653382480144504
3.696498394012451,-1.2419531345367432,10.292988777160646,-0.15485712885856628,-1.7276432514190674,-0.25725999474525457
4.134714603424073,-1.4177311658859255,10.319122314453125,-0.18421228229999545,-1.985647201538086,-0.3028112351894379
4.439661979675293,-1.6091892719268799,10.099842071533203,-0.2008880078792572,-2.205349683761597,-0.3355617821216584
4.573573112487793,-1.4742286205291748,9.901636123657227,-0.21409918367862704,-2.42828369140625,-0.361294835805893
4.561169624328613,-1.411696434020996,9.517202377319336,-0.20809638500213623,-2.691431999206543,-0.3789822161197663
4.694132328033448,-1.3097257614135742,9.448387145996094,-0.15858018398284912,-3.047667741775513,-0.4416387677192688
4.900065898895265,-1.856720805168152,8.84486198425293,-0.07146862894296648,-3.459432601928711,-0.5063587427139282
5.558589458465577,-2.108782529830933,8.843055725097656,0.05845297873020172,-3.9486420154571538,-0.5326857566833496
6.42574405670166,-1.8838915824890137,9.334516525268555,0.13859164714813232,-4.317056655883789,-0.5368238091468812
7.338549137115479,-2.2522447109222417,10.097081184387209,0.08622663468122484,-4.631237983703613,-0.4594822227954865
8.998111724853516,-2.820647478103638,10.890716552734375,0.03126488253474236,-4.71589469909668,-0.3436724543571472
9.840651512145998,-3.620651483535767,11.02198123931885,0.0015451754443347454,-4.644859790802003,-0.29980140924453735
11.426812171936037,-4.47837781906128,11.39085578918457,0.16256169974803927,-4.570289134979249,-0.3324834704399109
14.118567466735842,-4.287123680114746,12.617851257324219,0.4602910876274109,-4.318105220794679,-0.47216153144836426
16.079156875610355,-3.799682140350342,11.330885887145998,0.6819769740104676,-4.0773820877075195,-0.6120870113372803
21.335784912109375,-3.129205465316773,8.811512947082521,0.7424706220626831,-3.960880517959595,-0.7227233648300171
26.706626892089844,-4.973084449768066,3.524284839630127,0.6374366283416748,-3.880326271057129,-0.9058411717414857
29.254091262817386,-7.311481952667237,0.10790157318115234,1.3375122547149658,-4.066053867340089,-1.3626563549041748
30.925792694091797,-4.756403446197511,0.7530971765518188,1.9789373874664307,-4.0535950660705575,-1.460663437843323
29.755958557128906,-2.042755126953125,-1.1593738794326784,2.3892214298248295,-4.303235054016113,-1.5960754156112673
41.673236846923835,-0.5954207181930542,11.515098571777344,1.843858599662781,-3.9110605716705327,-1.3929204940795898
32.212310791015625,-0.8302274942398071,13.367415428161623,0.9129577875137329,-2.594453573226929,-1.0862972736358643
26.801778793334964,-0.9261900782585145,11.843672752380373,0.030948776751756668,-2.0476386547088627,-0.941614329814911
22.04258537292481,-2.142375707626343,11.219311714172365,-0.5145541429519653,-1.6310833692550661,-1.0016443729400635
16.862808227539062,-2.6262173652648926,9.604565620422365,-0.8344643712043763,-1.5399047136306765,-1.141554355621338
14.008935928344727,-3.5368483066558842,9.454319953918459,-0.9223293662071229,-1.5614073276519775,-1.3432487249374392
11.761853218078615,-4.985561370849609,10.231865882873537,-0.7730345129966737,-1.5141024589538574,-1.479518175125122
10.335004806518555,-6.547182083129883,11.319318771362305,-0.32639423012733465,-1.2774546146392822,-1.4564861059188845
8.62544059753418,-6.495440006256104,12.14625358581543,0.2965887188911438,-0.8101744651794434,-1.3095790147781374
5.981698036193848,-4.584399700164796,12.304157257080078,0.7557520270347596,-0.2363104224205017,-1.1053575277328493
3.9076397418975835,-2.6585536003112793,12.024622917175295,0.8011183738708496,0.3924811780452729,-0.8348564505577089
1.459275484085083,-2.03038763999939,10.94061279296875,0.6760663390159608,1.0179128646850586,-0.5523663163185121
-1.314774513244629,-2.3328769207000737,9.085179328918459,0.6436154842376709,1.5437278747558594,-0.3250532448291779
-4.133522033691406,-2.4528698921203613,6.789752960205078,0.784818172454834,1.8243495225906374,-0.1824915111064911
-5.505474090576172,-1.9105180501937868,5.354465484619141,0.9171253442764282,1.934848189353943,-0.07766764611005784
-6.287291049957276,-1.3076511621475222,5.063892841339112,0.9256075024604798,1.980987548828125,0.0714252069592476
-5.11327886581421,-1.2074799537658691,6.423422813415527,0.752712607383728,2.198990821838379,0.2924983203411103
-4.947076320648194,-2.0429804325103764,6.381805419921875,0.628845512866974,2.684145927429199,0.5489702820777894
-7.8051466941833505,-2.302816390991211,3.5151143074035645,0.7263096570968628,3.068698644638062,0.6758037209510804
-10.216074943542482,-0.5987468361854554,0.3681219220161438,0.7151713371276855,3.0543382167816167,0.725871205329895
-9.874346733093263,0.7948381900787354,-0.20026066899299622,0.37691876292228704,2.86166262626648,0.8044015169143677
-8.337408065795898,-0.02049474231898785,0.554980218410492,-0.02934516966342926,2.830807447433472,0.9213200807571411
-6.679635047912598,-1.522107005119324,2.026100397109986,-0.2092997580766678,2.991544246673584,1.0553500652313232
-5.497757911682129,-1.7789311408996582,2.561339616775513,-0.2359932512044907,3.3017077445983887,1.2243996858596804
-5.143759727478027,-0.8383585810661317,1.958080768585205,-0.2728632092475891,3.6102781295776367,1.3818656206130984
-5.174736022949219,0.29390454292297363,0.5862881541252137,-0.42230877280235296,3.8087191581726074,1.5264188051223757
-4.682516098022461,0.8683288097381592,-0.02053190767765045,-0.5951902866363525,3.8512666225433354,1.6234918832778933
-3.447457551956177,1.0307362079620361,0.3069923520088196,-0.674013614654541,3.848805189132691,1.660179853439331
-1.92379367351532,1.8348984718322754,1.2406159639358523,-0.6861519217491151,3.852368593215943,1.6356823444366455
0.29594907164573675,2.339538097381592,2.619184970855713,-0.7333455681800843,3.936422824859619,1.5392247438430788
2.386858701705933,2.4046137332916264,3.4052107334136967,-0.715126633644104,4.091723918914796,1.3897980451583865
4.7331953048706055,2.854948043823242,4.084427833557129,-0.6752622723579408,4.215668678283691,1.1934558153152468
6.652970790863038,3.2858717441558842,4.18776559829712,-0.6471923589706421,4.298026084899902,0.9540575146675111
8.48442268371582,4.038264274597168,3.9071836471557617,-0.6339700222015381,4.285753726959229,0.6490404605865479
10.549134254455568,3.4893844127655034,3.8577787876129155,-0.6326600313186646,4.152087688446046,0.29366853833198553
12.741491317749023,1.7282341718673708,4.6306519508361825,-0.4695580899715424,3.9212183952331543,-0.024196008220314983
14.028276443481445,0.9788211584091187,4.863646507263184,-0.21165579557418823,3.6746091842651367,-0.1528056710958481
13.846154212951662,0.7513422369956971,4.376564025878906,-0.06424838304519653,3.32029938697815,-0.11319707334041595
14.309502601623537,0.26156857609748846,4.070738792419434,0.016259638592600826,2.8931446075439453,0.05254393815994263
15.303384780883789,0.03587859869003296,3.7284553050994877,0.09517555683851243,2.4238438606262207,0.29162910580635076
16.051710128784183,-0.3201490640640259,2.9759984016418457,0.1872564405202866,1.9129642248153689,0.5260896682739258
15.661145210266115,0.4863955676555634,0.9468705654144287,0.30316987633705145,1.3347249031066895,0.7093747258186341
12.529320716857912,1.8770762681961062,-3.2475302219390874,0.2862166166305542,0.5126948952674867,0.8002597689628602
10.768473625183107,1.0411314964294434,-3.9467027187347417,0.17724682390689853,-0.6242374181747437,0.8949348330497743
90.13579559326173,6.081871509552003,48.79394912719727,-3.3170828819274902,-2.261183261871338,1.8475810289382937
12.870521545410156,8.210853576660156,-0.5104014277458192,0.21223396062850952,4.257712841033936,-0.22808143496513367
6.580266475677491,-14.312195777893068,16.567584991455078,-0.01009272038936615,0.7272725701332093,0.6093568205833436
-7.195469856262207,-9.926993370056154,10.133130073547365,0.2515649497509003,1.0297749042510986,0.41902521252632147
-6.378513336181641,3.8480536937713627,9.644837379455568,-0.07208766788244249,-0.6194006800651551,-0.07377180457115173
7.005351543426515,-2.61982274055481,13.838160514831545,-0.09338324517011644,-0.352194607257843,-0.6647695899009706
3.663747787475586,-5.486203193664551,8.060214042663576,-0.08246971666812897,-0.6965566277503968,-0.4495937526226044
9.490078926086428,6.070405006408691,9.47283458709717,-0.08006232231855394,-0.34211266040802,-0.28787764906883245
8.600433349609375,-0.08642303943634033,8.44540786743164,-0.19892580807209018,0.03111999295651913,0.017429478466510773
5.8948822021484375,-2.5067529678344727,8.612724304199219,-0.16975690424442294,0.3161759376525879,0.13284881412982943
4.624269962310792,-2.5240952968597417,9.33208751678467,-0.049805253744125366,0.3915208280086518,0.13878972828388217
3.693252801895142,-3.0060427188873295,9.687551498413086,0.012983539141714575,0.36868816614151,0.09379079192876817
4.093573570251465,-1.5652438402175906,9.939194679260256,0.04100106284022332,0.3098545372486115,0.05903109163045883
4.330768108367921,-1.2684478759765625,9.703610420227053,0.007333008572459221,0.2557251155376435,0.06289397180080414
4.174862861633301,-1.0340434312820437,9.655589103698732,-0.007559596560895443,0.22701101005077365,0.0718391463160515
3.7894692420959473,-1.7382495403289795,9.90005111694336,-0.013078780844807625,0.16229550540447238,0.07072906196117401
3.7186915874481206,-2.280389547348023,9.74151134490967,-0.0063218274153769025,0.0966949835419655,0.02116437628865242
4.130764007568359,-1.9561544656753542,9.636281013488771,0.026831578463315964,0.05891374126076699,-0.039262376725673676
4.28044080734253,-1.1845134496688845,9.6598596572876,0.020549722015857697,0.046220768243074424,-0.04561297222971917
4.362377166748047,-1.1136250495910645,9.724384307861328,-0.012675872072577477,0.04035610333085061,-0.012700967490673065
4.263236045837402,-1.2167283296585085,9.740335464477539,-0.04337094351649285,0.022644238546490673,0.02379240095615387
3.9756844043731694,-1.3795095682144167,9.766009330749513,-0.06770648062229156,-0.01640036888420582,0.0444803312420845
3.7760579586029057,-1.5185611248016357,9.765522956848146,-0.09474900364875793,-0.07334608584642412,0.03856128081679345
4.077165126800538,-1.5637999773025515,9.700791358947756,-0.10545825958251953,-0.13070861995220187,0.012967964634299278
4.224992752075195,-1.2168915271759033,9.670955657958984,-0.12366382032632829,-0.14915202558040622,0.011935265734791756
4.221026420593262,-1.0988467931747439,9.843682289123537,-0.16583000123500827,-0.1851356029510498,0.020306633785367015
4.304401397705078,-1.4363015890121462,9.707221984863281,-0.1776833385229111,-0.20428773760795593,0.031085234135389328
4.367563247680664,-1.8667525053024294,9.5714807510376,-0.16952884197235107,-0.21514110267162326,0.023440372198820114
4.403246402740479,-1.727582097053528,9.584641456604006,-0.15824152529239657,-0.21568270027637484,0.013516603037714958
3.7215621471405034,-2.073497772216797,8.788993835449219,-0.15418587625026706,-0.252571702003479,-0.007443976122885943
5.434731960296632,-1.27318012714386,10.107127189636232,-0.15158529579639438,-0.2545472979545593,0.0024550878442823887
4.638704776763917,-2.1930956840515137,9.180572509765625,-0.10957182943820953,-0.16164694726467135,0.04278235137462616
4.495614051818848,-2.0537004470825195,9.272828102111818,-0.09677287191152574,-0.14681611955165866,0.01531965285539627
4.546269416809082,-1.7580029964447021,9.330943107604982,-0.05449630320072174,-0.1252192407846451,0.0009659959468990564
4.567221641540527,-1.9126554727554324,9.527170181274414,-0.044128347188234336,-0.2294144332408905,-0.05480620265007019
4.413158893585206,-1.566521406173706,9.156321525573732,-0.027824800461530685,-0.0873992219567299,0.0026166639290750027
4.272383213043214,-1.9960056543350222,9.253281593322756,-0.029503226280212402,-0.10861440002918243,-0.021219572052359584
4.025282859802246,-2.66342043876648,8.814455986022951,0.016266977414488796,-0.16003459692001343,-0.0875387415289879
4.984494209289551,-1.4478093385696413,9.64558506011963,0.03718990460038186,-0.11329157650470734,-0.06396761536598206
4.391625881195069,-1.2426331043243408,9.318180084228516,0.018392212688922882,-0.07884228974580766,-0.049575187265872955
4.267200946807862,-1.9589079618453982,9.47462558746338,-0.0222226083278656,-0.11782601475715637,-0.05107435211539269
4.343935489654542,-2.1554126739501953,9.332571983337404,0.005326339043676853,-0.1421325653791428,-0.07053601741790771
4.386692047119141,-2.2153005599975586,9.20522689819336,0.044017769396305084,-0.25038734078407293,-0.12436714023351671
4.775965213775636,-1.2127175331115723,9.374229431152344,0.03609548509120941,-0.12255284935235979,-0.09512989223003387
4.439603328704835,-1.7877721786499023,9.34666156768799,0.035972610116004944,-0.1419910192489624,-0.1016928479075432
4.559547424316406,-1.591891169548035,9.307911872863771,0.03851184993982315,-0.14383746683597567,-0.1016397625207901
4.562651634216309,-1.4318068027496338,9.291646957397461,0.04685894027352334,-0.15354511141777039,-0.1031872034072876
4.391022205352784,-1.6571002006530762,9.38206195831299,0.06461661309003831,-0.259631872177124,-0.14340664446353915
4.767879009246827,-1.6127183437347412,9.250141143798828,0.08742490410804749,-0.17902135848999023,-0.13341797888278964
4.360966205596925,-1.7153309583663943,9.095160484313967,0.0925656482577324,-0.1837000548839569,-0.15062300860881808
4.716270923614503,-1.3552029132843018,9.312067031860352,0.07818029075860979,-0.20224511623382568,-0.14977803826332092
4.211406707763672,-1.3658030033111572,9.368107795715334,0.0678076669573784,-0.24039241671562195,-0.15209682285785678
4.044298648834229,-1.2767469882965088,9.607989311218263,0.04698430001735687,-0.32892560958862305,-0.16047756373882296
3.841509103775025,-2.1771948337554936,9.530327796936037,0.06933823972940446,-0.4273320436477661,-0.20609770715236667
3.8486480712890625,-2.04150390625,9.640726089477539,0.10864599049091339,-0.5633879303932191,-0.27125766873359686
4.113492488861085,-1.818608283996582,9.54378414154053,0.1372785717248917,-0.6986277103424072,-0.3089421093463898
4.718531608581543,-1.1973551511764529,9.685657501220703,0.11923108249902727,-0.834192454814911,-0.3057584762573242
3.8717904090881348,-1.0527759790420534,8.956766128540039,0.0892821028828621,-0.9598343372344971,-0.2755251824855805
5.147642135620117,-0.4837198257446289,10.384117126464844,0.0907200798392296,-1.19600248336792,-0.2533292770385742
4.749353885650636,-0.7823479771614076,10.540124893188477,0.017937110736966137,-1.2264351844787598,-0.20060513913631442
3.193631649017334,-1.8501063585281374,9.656967163085938,0.09019171446561815,-1.4805873632431032,-0.22619757056236267
4.410273075103761,-1.6043739318847656,9.883341789245607,0.12050153315067291,-1.688857674598694,-0.28173601627349854
4.5716552734375,-1.9661626815795898,10.001022338867188,0.12998183071613315,-1.9044480323791504,-0.33466970920562744
4.592897891998292,-1.8390285968780518,9.7393274307251,0.12782667577266696,-2.1089072227478027,-0.4030019342899323
5.15884828567505,-1.8389618396759033,9.286056518554688,0.11407625675201416,-2.2958106994628906,-0.47226098179817205
5.304487228393555,-1.0162458419799805,9.539840698242188,0.07720428705215454,-2.462838411331177,-0.5380911827087402
4.915907859802246,-1.26015043258667,8.926318168640138,0.05063801258802414,-2.7109520435333256,-0.5999649167060853
5.329263687133789,-1.1455775499343874,8.843386650085451,0.09151054173707963,-3.033083438873291,-0.657306730747223
5.3906354904174805,-1.5218032598495486,8.277745246887209,0.16010484099388123,-3.4629645347595215,-0.729204833507538
5.814252853393555,-1.382390856742859,8.103801727294922,0.24904638528823853,-3.9604232311248784,-0.8080693483352661
6.534727096557617,-1.3017243146896365,8.077359199523928,0.27003601193428045,-4.379057884216309,-0.8528174161911011
8.032154083251953,-0.8632434010505677,8.501264572143555,0.2588884234428406,-4.746592044830323,-0.7565635442733765
8.997564315795898,0.6413066387176514,9.41115474700928,0.17162789404392245,-4.981522083282472,-0.5780487060546875
10.675355911254883,0.9386768341064453,9.308272361755373,0.07530498504638672,-4.913918018341065,-0.3325912356376648
12.63271236419678,0.0348658561706543,9.754385948181154,-0.027445064857602123,-4.690126419067383,-0.03952411562204361
14.207294464111328,-1.4562275409698486,10.137596130371094,-0.18725119531154635,-4.242074966430664,0.1575378328561783
20.616405487060547,0.04984968900680542,10.940663337707521,-0.7994734048843384,-3.7090392112731934,0.5302667021751405
21.552387237548828,-0.5673240423202515,9.365429878234865,-1.7496657371520996,-2.8363983631134038,0.7610002756118774
19.222990036010746,-2.825118064880371,7.589358806610108,-2.4284102916717534,-2.2630934715270996,0.6647571325302124
16.322862625122074,-5.477838039398194,-1.440002679824829,-2.3334586620330815,-2.3406028747558594,-0.02705287002027035
20.964324951171875,-5.270756244659425,-3.8464844226837163,-1.2293477058410645,-3.0754127502441406,-1.0537527799606325
22.798656463623047,-6.178205013275147,-1.9415547847747803,0.19477203488349915,-3.5368654727935795,-2.0547056198120117
22.10531806945801,-4.759515285491944,-0.46977221965789795,1.4361319541931152,-4.029212474822999,-2.902178525924683
27.768741607666016,-0.9716428518295288,3.743018627166748,1.9360431432724001,-4.571192741394043,-3.5076243877410893
29.991397857666016,2.197498321533203,11.143411636352539,1.3500281572341921,-3.986397981643677,-3.6808648109436035
23.442516326904297,3.8411879539489746,9.048009872436523,-0.04733772203326226,-3.4207816123962402,-3.5781486034393315
21.390064239501953,1.3603738546371462,8.830636978149414,-1.2807700634002686,-3.1048233509063725,-3.5747754573822026
18.06521224975586,-1.760995864868164,7.593314170837402,-1.902336597442627,-2.8802468776702885,-3.5709433555603027
15.539393424987795,-4.496306896209718,7.083526611328125,-1.9538599252700808,-2.7978651523590092,-3.663727283477783
12.842626571655273,-8.106700897216797,7.460687637329102,-1.4617191553115847,-2.761226177215576,-3.707088708877564
10.730424880981445,-11.083635330200195,8.349708557128906,-0.37449491024017334,-2.7718269824981694,-3.5581171512603764
10.759011268615724,-10.632534980773928,10.035534858703615,0.8380122184753418,-2.594138860702515,-3.26127290725708
9.294748306274414,-8.658292770385742,11.392018318176271,1.6710606813430788,-2.099542856216431,-2.7752370834350586
6.758819103240968,-6.2494568824768075,12.509362220764162,1.9133274555206299,-1.4697679281234743,-2.154329299926758
4.467569351196289,-4.746635437011719,13.07542133331299,1.6271326541900635,-0.7614920735359193,-1.4448190927505495
1.77695894241333,-4.456524848937988,12.877734184265138,1.1571041345596316,-0.04361336678266525,-0.7340901494026185
-0.9422138333320619,-4.376947879791261,11.999217987060547,0.7217175364494325,0.6032912135124208,-0.08353430032730103
-2.8712866306304936,-4.24533748626709,11.109211921691896,0.3750630915164948,1.1228997707366943,0.4823960959911347
-4.372173786163331,-4.516145706176758,9.909972190856935,0.2306245714426041,1.5018646717071533,0.9146218299865723
-5.3088393211364755,-4.645986557006836,8.659799575805664,0.28004783391952515,1.7354294061660769,1.235276222229004
-5.844169139862061,-3.8114879131317143,7.740971088409425,0.4139230251312256,1.8553287982940674,1.4886969327926638
-5.895810127258301,-2.1826779842376713,7.4679322242736825,0.4408106803894043,1.9341701269149782,1.7359509468078613
-5.365039825439453,-0.7327359318733216,7.80842161178589,0.29573357105255127,2.056621313095093,1.961475729942322
-4.663477420806886,-0.08291013538837433,8.320597648620607,0.0712084546685219,2.2657198905944824,2.109843492507935
-3.9522523880004883,0.08514316380023956,8.844161033630373,-0.11916494369506836,2.5712203979492188,2.1801917552948002
-3.4097681045532227,0.3213820457458496,9.060823440551758,-0.23471556603908542,2.949556827545166,2.1647651195526127
-3.1529688835144043,0.5795671343803407,8.851812362670898,-0.296242505311966,3.3298611640930176,2.068164825439453
-3.0208365917205815,1.06264328956604,8.402740478515625,-0.3392139375209809,3.6571860313415527,1.9158934354782107
-2.497731447219849,1.6162852048873904,8.05702877044678,-0.42826807498931885,3.92926025390625,1.7413145303726199
-1.7982050180435183,1.7658114433288574,7.819892883300781,-0.5581248998641968,4.167376995086671,1.5470921993255615
-1.0882291793823242,1.338362455368042,7.785914897918702,-0.6727260947227479,4.375567436218262,1.3578133583068848
-0.10890983790159227,0.7074158191680908,8.183203697204592,-0.7221983075141908,4.549872398376465,1.1810182332992556
1.2289570569992068,0.3082979917526245,8.883450508117678,-0.7514536380767822,4.733482360839844,1.0520054101943972
2.4644384384155273,0.17539021372795105,9.339025497436523,-0.8129742741584779,4.945341110229492,0.9915943741798402
3.680397748947144,-0.21058812737464905,9.588393211364748,-0.9209733009338379,5.146753787994386,0.9982948899269105
5.1216278076171875,-0.8985421657562256,10.09395980834961,-0.9973173141479492,5.292219638824464,1.059725046157837
6.714496612548828,-1.2021223306655886,10.727838516235352,-1.0262477397918701,5.425845146179199,1.1786841154098513
8.01491451263428,-0.5719465017318726,11.101170539855959,-1.067707180976868,5.529938697814941,1.3036264181137087
9.080585479736328,0.06734168529510498,11.051599502563477,-1.1856263875961306,5.594675064086914,1.3467986583709717
10.072612762451172,-0.12739869952201843,10.904211997985842,-1.2862937450408936,5.569400310516358,1.2580645084381104
10.655293464660646,-0.4393811821937561,10.948801040649414,-1.217503905296326,5.420818805694581,1.0748653411865234
12.074843406677248,0.4702485203742981,11.726675033569336,-1.0953028202056885,5.192035198211671,0.8092327117919922
14.08343505859375,2.1541075706481934,12.659202575683594,-1.1259229183197021,4.966084003448487,0.5007382035255433
15.953554153442383,4.052786827087402,13.549916267395021,-1.3867317438125613,4.755252838134766,0.15952138602733615
17.027109146118168,5.914697170257569,14.041402816772461,-1.9087382555007937,4.56042242050171,-0.20600420236587524
17.57261466979981,6.771454811096191,14.34266471862793,-2.569121837615967,4.386456012725831,-0.5935250520706177
18.24856758117676,6.4405884742736825,14.555174827575685,-3.1334123611450195,4.226706981658936,-0.9873099923133851
19.778099060058594,5.851191520690918,15.168816566467287,-3.4663527011871342,4.172368049621582,-1.3398946523666384
21.055826187133793,5.757606029510499,14.736425399780273,-3.5683739185333256,4.250170230865479,-1.5846984386444092
20.095298767089844,7.22462272644043,12.555377960205078,-3.526986598968506,4.234683513641358,-1.7294890880584717
18.275054931640625,8.626715660095217,9.896246910095217,-3.4040780067443848,3.985634565353394,-1.8558856248855593
16.989023208618168,9.060841560363771,8.025919914245607,-3.126400947570801,3.568151235580445,-2.035606861114502
16.484960556030277,8.151690483093263,6.2776288986206055,-2.655112504959107,3.096485853195191,-2.2547731399536133
16.019794464111328,9.11141586303711,4.499292850494386,-2.1168346405029297,2.6143219470977788,-2.567957878112793
17.144420623779297,10.047981262207031,1.7433257102966309,-1.9664742946624756,2.2094800472259526,-2.7980177402496342
17.005268096923828,8.56651496887207,-1.6690845489501953,-1.7564711570739746,1.7471164464950564,-3.087472915649414
17.961420059204105,8.607718467712404,-3.4314720630645756,-1.4755612611770632,1.2288228273391726,-3.3124771118164062
18.72746849060059,8.303827285766602,-4.010395050048828,-1.2461808919906618,0.7658016681671143,-3.29949164390564
17.17419242858887,6.381734371185304,-4.311830520629883,-0.8253076076507568,0.2982821166515351,-3.109763860702515
7.094849109649659,-5.736966133117676,-0.8239179253578187,0.8217896223068237,-0.5248822569847108,-2.9530372619628906
1.29911470413208,0.5851013660430908,12.296689987182617,2.9260776042938237,-1.1249901056289675,-3.2340521812438965
-2.9707889556884766,-14.008419990539553,15.289791107177734,2.5193610191345215,-1.2518543004989626,-2.955033302307129
-0.8994844555854798,-17.15820121765137,11.181294441223146,1.9534417390823366,-2.178863525390625,-2.4500885009765625
10.803761482238771,-19.298561096191406,8.937620162963867,1.5628695487976074,-2.7732150554656987,-1.0216255187988281
18.85030746459961,-5.281024932861328,14.476221084594727,1.636709451675415,-2.2477917671203613,-0.5079692006111146
18.850830078125,7.861464977264405,18.83374786376953,1.5610595941543581,-1.289431095123291,-0.48971387743949896
9.055992126464844,16.976890563964844,15.5008020401001,1.105142593383789,-0.3332503736019135,-0.5149006247520448
4.167505264282227,3.7637648582458496,11.950441360473633,0.4827929139137268,-0.06886617094278337,-0.4095412492752075
4.549523830413819,-3.7835719585418706,10.482605934143068,0.33354094624519354,-0.17838515341281894,-0.26440542936325073
5.35418701171875,1.8920429944992068,10.67680072784424,0.21395428478717807,-0.08808855712413788,-0.1855859309434891
5.200292587280273,1.2984704971313477,10.426056861877443,0.15816147625446322,0.010182127356529236,-0.18388572335243225
4.677798271179199,-2.5757796764373784,9.60528087615967,0.15079094469547275,0.04289131611585617,-0.13002331554889682
4.722072601318359,-1.1935150623321533,10.04774570465088,0.16603702306747437,0.060695722699165344,-0.09801260381937028
4.261732578277589,-1.0695133209228516,10.057068824768068,0.15194244682788852,0.06890279054641724,-0.07741864770650865
4.269616603851319,-1.2635443210601807,9.95841693878174,0.13024412095546725,0.036382824182510376,-0.06897534430027008
4.30428171157837,-0.9516971111297607,9.964484214782717,0.10695014148950578,0.025032393634319305,-0.053204182535409934
3.7029092311859135,-1.6592249870300293,9.605004310607912,0.09236085414886475,-0.003581041470170021,-0.047924686223268516
3.943719625473023,-1.4281682968139648,9.902111053466797,0.06979690492153168,-0.06183698400855065,-0.05231967568397522
4.197538375854492,-1.4220806360244753,9.773513793945312,0.06469602882862091,-0.07641828805208208,-0.05897761508822442
4.086788177490234,-1.3651776313781738,9.751264572143555,0.06587132811546326,-0.08053945749998094,-0.05643463134765625
4.15862798690796,-1.2026424407958984,9.805407524108888,0.051420625299215324,-0.08569914847612382,-0.04826436936855316
4.229036808013917,-1.0428340435028076,9.833132743835451,0.03448304533958435,-0.07844505459070207,-0.03515490144491196
4.265422821044922,-0.924657940864563,9.845334053039553,0.00814816914498806,-0.06620159000158311,-0.017021054401993755
4.2441115379333505,-1.0258114337921143,9.822020530700685,-0.02220742031931877,-0.05617624893784524,0.005863913334906101
4.077493667602539,-0.9116199016571045,9.827075004577638,-0.06461720913648607,-0.055521290749311454,0.025506455451250076
4.155727386474609,-0.9162898659706117,9.775655746459961,-0.09497188776731492,-0.0573749765753746,0.03445414826273919
4.094983577728272,-1.3945337533950808,9.647767066955568,-0.0906135067343712,-0.0504736602306366,0.030313335359096527
4.109628200531007,-1.5345420837402344,9.63813591003418,-0.08024740964174272,-0.04602726548910141,0.024337915703654293
4.00586748123169,-1.6184915304183962,9.489898681640625,-0.06970515847206116,-0.04306545853614807,0.013301725499331953
3.9324953556060795,-1.69293212890625,9.474171638488771,-0.0645880773663521,-0.05552763491868973,0.006740586366504432
3.988025188446045,-1.7183378934860232,9.514432907104492,-0.05868957191705704,-0.06578353792428972,-0.0016644663410261276
3.8906886577606206,-1.7218449115753174,9.436727523803711,-0.05359932780265808,-0.0768089070916176,-0.009029287844896317
4.022409915924073,-1.6082501411437988,9.56276607513428,-0.05847424641251565,-0.09546200186014177,-0.011610627174377441
4.32686710357666,-1.4680650234222412,9.571491241455078,-0.05874954164028168,-0.08341539651155473,-0.013567741960287094
4.312389850616456,-1.3635716438293457,9.689268112182617,-0.06319741904735565,-0.06246647611260415,-0.0015757124638184907
4.349982261657715,-1.1829005479812624,9.726884841918945,-0.05919532105326653,-0.045724838972091675,0.005773682612925769
4.1333985328674325,-1.3518586158752441,9.738279342651367,-0.05870111659169198,-0.04911192879080773,0.001675379229709506
4.098017692565918,-1.2597525119781494,9.717942237854006,-0.06427352130413055,-0.06243810430169106,-0.0005513075739145279
3.8857421875,-1.359107255935669,9.608407974243164,-0.047087520360946655,-0.08761934190988542,-0.022172210738062862
3.7838969230651855,-1.6788862943649294,9.675097465515138,-0.046897385269403465,-0.12761640548706055,-0.04629151895642281
4.037271976470948,-1.4934202432632449,9.615575790405273,-0.05363812297582626,-0.14699184894561768,-0.05987248197197915
4.227196216583253,-1.1605986356735232,9.667677879333498,-0.06786541640758514,-0.1498861759901047,-0.06004941463470459
4.3893327713012695,-1.0212438106536865,9.727646827697756,-0.09701599925756456,-0.14284062385559082,-0.0421733483672142
4.272522926330566,-1.4111083745956423,9.721439361572266,-0.12357033789157867,-0.14251945912837985,-0.024504706263542175
4.235689163208008,-1.4762841463088991,9.686468124389648,-0.14261600375175476,-0.1440201997756958,-0.017546107992529873
4.192779541015625,-1.5671827793121338,9.573792457580568,-0.1748170256614685,-0.1458709388971329,-0.007374959997832775
4.0884156227111825,-1.5038495063781738,9.651060104370117,-0.20767295360565186,-0.15482144057750705,0.010082430206239225
3.9007217884063725,-1.7448890209197998,9.311595916748047,-0.18067780137062073,-0.17788277566432956,-0.029470056295394897
3.5731678009033203,-2.418520927429199,9.41183090209961,-0.11068476736545563,-0.2189319133758545,-0.10214779525995256
4.126648426055909,-2.242071390151978,9.583653450012209,-0.07346193492412567,-0.2391612082719803,-0.15990450978279114
4.313047409057617,-1.296102523803711,9.62776851654053,-0.06694165617227556,-0.24151015281677246,-0.1526789665222168
4.350086212158203,-1.4097537994384766,9.514835357666016,-0.09277381747961046,-0.26910072565078735,-0.1520224362611771
3.9543662071228027,-1.7829049825668337,9.684955596923828,-0.09804059565067291,-0.3136311173439026,-0.17364715039730075
4.381884098052979,-1.374232888221741,9.780765533447266,-0.11390040069818498,-0.3678300976753235,-0.19284154474735263
4.3960843086242685,-1.0446569919586182,9.812331199645998,-0.16186560690402987,-0.42248570919036865,-0.16399231553077698
4.294525623321534,-1.089231252670288,9.928591728210451,-0.23716177046298983,-0.49488550424575806,-0.1449953466653824
4.191167354583741,-0.7544997930526733,9.984394073486328,-0.34247589111328125,-0.5815980434417725,-0.14776147902011874
4.272467613220215,-0.732870638370514,10.043767929077148,-0.4880072176456452,-0.6821391582489014,-0.15978933870792392
4.286395549774171,-0.7121882438659668,10.021206855773928,-0.600105106830597,-0.8054993152618408,-0.1310647428035736
3.480586528778076,-0.9745443463325502,10.023845672607422,-0.7039682865142822,-0.9946512579917909,-0.06775173544883728
3.0373961925506596,-0.8511184453964233,10.304149627685547,-0.8227019906044007,-1.2699602842330935,-0.06402020156383514
3.010872602462769,-0.8398011922836304,10.275477409362795,-0.8959193229675293,-1.601272225379944,-0.06589338183403015
2.823730945587158,-0.9456028938293457,10.247846603393555,-0.9362698793411255,-1.958442807197571,-0.070725254714489
3.0103654861450195,-1.0390204191207888,10.175299644470217,-0.9760459661483765,-2.354346036911011,-0.1072198897600174
3.4829955101013184,-1.0630552768707275,9.935029983520508,-1.059390425682068,-2.747059583663941,-0.11549365520477295
3.281195640563965,-1.2357550859451296,9.588687896728516,-1.1052895784378054,-3.20042085647583,-0.1411843448877335
3.758012294769287,-0.7144585847854614,9.849557876586914,-1.196335792541504,-3.756419897079468,-0.11364803463220598
4.224627971649171,-0.2505799233913422,9.89700222015381,-1.2715352773666384,-4.3595380783081055,-0.08686424046754838
4.513537883758546,-0.2504964172840119,10.288137435913086,-1.4693275690078738,-4.998467922210694,0.06311409175395966
4.706217288970948,-0.9651038646697998,10.190973281860352,-1.7259581089019775,-5.770123958587647,0.3374940752983093
5.337595462799073,-0.6497136354446411,12.165791511535646,-2.0530667304992676,-6.6128554344177255,0.6224756836891175
5.482474803924561,-1.7865900993347168,14.308143615722656,-2.5450208187103276,-7.541451454162598,0.8149263262748719
9.520649909973146,-2.7941794395446777,18.107784271240234,-3.0910007953643803,-8.090092658996584,0.9509153366088867
12.492755889892578,-4.787508964538574,15.860634803771974,-3.783103704452515,-8.425390243530273,1.0267649888992312
18.963014602661136,-7.516624927520753,17.545534133911136,-4.329309463500977,-8.426941871643068,0.8466047644615174
22.59597396850586,-9.561819076538086,20.199754714965824,-4.738749027252198,-8.004472732543945,0.3776703774929047
20.71225166320801,-11.746495246887209,15.965900421142578,-4.989441871643066,-7.481538772583008,-0.13976712524890902
27.712041854858402,-10.748754501342773,18.02231216430664,-5.529120922088624,-6.991954803466797,-0.21080560982227328
28.197889328002933,-7.346364498138429,19.26906776428223,-7.451358318328858,-5.327356338500977,0.48783791065216064
18.104145050048828,-4.967313289642335,19.610799789428714,-9.604393959045412,-3.175868034362793,0.7470160126686097
13.80488395690918,-2.9935724735260014,10.235280036926271,-9.635342597961428,-1.6841808557510378,-0.6213400363922119
41.09215164184571,-21.11325454711914,23.86896514892578,-6.709180355072022,0.23897117376327515,-2.410282373428345
19.841043472290043,-21.684408187866214,19.899791717529297,-3.305794477462769,3.935967445373535,-2.566366195678711
13.245870590209961,-13.853900909423828,12.535113334655763,-0.7181659340858461,5.046566963195801,-2.35616946220398
7.381434440612793,-4.692366600036621,6.041136741638184,0.5419368147850038,5.416791439056397,-2.443319320678711
3.9255564212799077,2.372694492340088,2.92798924446106,0.47318544983863836,5.271500587463379,-2.376656293869019
1.966066598892212,6.978289604187012,1.061159610748291,-0.4274336099624634,4.973994731903077,-2.1653277873992924
1.610631823539734,6.826784133911133,0.8914660811424256,-1.5819199085235596,4.69161081314087,-1.9076626300811768
0.9510610103607178,2.7161474227905273,0.9461696147918701,-2.1119310855865483,4.542595386505128,-1.67952561378479
-0.47427934408187866,-0.6537742614746094,1.874824047088623,-1.7843590974807741,4.397292137145996,-1.420392155647278
-0.11315555125474931,-0.8048180341720581,3.8288722038269043,-0.977400541305542,4.336461544036866,-1.1510988473892214
0.5489872694015503,2.3656570911407475,5.201904773712159,-0.410735696554184,4.495491981506348,-0.7969016432762147
-0.08350157737731934,5.611615657806397,4.792056560516358,-0.36453810334205633,4.801262378692628,-0.43554073572158813
-0.9035158753395082,6.609726905822754,3.8854684829711914,-0.6575615406036377,5.008559703826905,-0.14726334810256958
-0.823380708694458,5.489931106567383,2.968423366546631,-0.7733220458030702,5.121405601501465,0.019774168729782104
-0.9254443645477295,4.850743770599366,2.256898880004883,-0.5412396192550659,5.133150577545167,0.034262560307979584
0.14381374418735507,5.505897998809815,3.131372690200806,-0.3162302672863007,5.104072093963624,-0.0664500892162323
1.7337445020675661,6.176142692565918,3.7740120887756348,-0.21083723008632663,5.236684799194336,-0.19071762263774875
2.1194801330566406,5.858925819396973,2.963592052459717,-0.17808531224727633,5.468410491943359,-0.38764578104019165
2.216324090957642,4.589025020599366,1.4460862874984743,-0.12245811522006989,5.565544605255128,-0.6209080219268799
2.601015567779541,3.164065361022949,0.3951537907123566,0.03782793506979943,5.494279384613038,-0.8034322261810303
3.4460277557373047,2.726871728897095,0.057902991771698,0.14680615067481995,5.377460002899171,-0.8616076707839966
4.170236587524414,2.931314468383789,-0.2683257460594177,0.08973564952611925,5.264678001403809,-0.7963621616363525
5.922643661499023,3.0228950977325444,0.06788407266139984,-0.11730477958917619,5.147668838500977,-0.6481966376304628
8.401656150817873,2.368685245513916,0.2880259454250336,-0.3133147060871125,5.029777050018311,-0.48329514265060425
10.501212120056154,1.3769477605819704,-0.008530467748641968,-0.3366605937480927,4.823768615722656,-0.39071324467659
12.177845954895021,0.6646783351898193,-0.813697099685669,-0.20421214401721957,4.457275390625,-0.3720502257347107
13.927873611450195,-0.08352278918027879,-1.1655869483947754,-0.02177722379565239,3.9197385311126713,-0.3803572654724121
16.938064575195312,-0.9664475917816162,0.1986217945814133,0.17132160067558289,3.2890262603759766,-0.3236831724643708
21.657865524291996,-0.21400991082191467,2.2057802677154545,0.2628627419471741,2.799771070480347,-0.10671272873878479
24.393901824951172,0.6075121760368348,2.329996824264527,0.11852856725454332,2.509809970855713,0.18067574501037598
24.16043281555176,0.08224068582057953,0.15637077391147616,-0.046948812901973724,2.1543819904327397,0.42027783393859863
21.840503692626953,-0.23618954420089722,-3.797945022583008,-0.012691563926637174,1.501324772834778,0.5614761114120483
18.17929458618164,0.6455929279327393,-7.573063373565675,0.07571111619472504,0.43349233269691473,0.6035892963409424
14.126293182373047,0.48140692710876465,-10.597265243530273,0.1521527022123337,-0.8881829977035522,0.6289966106414795
9.876779556274414,-0.8046129941940308,-11.77168083190918,0.3051866888999939,-2.324668169021607,0.626947283744812
31.616094589233402,-7.671309471130371,1.8447192907333376,0.12989503145217896,-4.446155548095703,1.1542934179306032
102.82080841064455,35.073020935058594,73.1714553833008,-1.2708580493927002,-0.5332168936729432,0.8632755279541016
-27.394323348999027,-3.2681431770324707,-15.100691795349123,0.6414639353752137,2.7318034172058105,-0.8123067617416382
10.237507820129396,-11.521677017211914,23.147500991821293,-0.2725780904293061,-0.3762078285217285,-0.009696544148027899
-14.096951484680178,-2.2101240158081055,4.014279365539551,0.05619114264845849,-0.03884297981858254,-0.3262009024620056
11.184149742126467,-1.0008444786071777,13.554993629455568,-0.13812200725078586,-0.147891104221344,-0.703586518764496
7.123145580291749,-4.933171749114991,7.66695499420166,0.16502025723457336,-0.15139482915401462,-0.6402260661125184
7.593781471252441,5.298566818237305,8.657496452331545,0.18563905358314514,0.1511977165937424,-0.40606629848480225
6.645658016204835,0.29169172048568726,9.150249481201172,0.04717608541250229,0.3704040050506592,-0.12383808940649034
4.359036445617676,-1.782278656959534,10.168116569519045,0.049922190606594086,0.3671610057353974,-0.008366094902157784
3.4566097259521484,-1.6169263124465945,10.628887176513672,0.026933975517749786,0.2578226029872895,-0.03420993313193322
4.063011646270753,-1.5156948566436768,10.201301574707031,0.027023674920201305,0.09585663676261902,-0.08190309256315233
4.885193347930909,-0.2739078402519226,9.77638912200928,-0.0013086686376482248,0.05741795152425766,-0.06355146318674089
4.4921278953552255,0.44490718841552734,10.167205810546875,-0.10324142873287201,-0.009284299798309805,0.034005552530288696
4.245648384094238,-0.439409226179123,10.272437095642092,-0.2055446207523346,-0.08588116616010667,0.10889246314764024
4.015959262847901,-1.2135107517242432,10.055168151855469,-0.24989333748817444,-0.15554727613925937,0.12150731682777405
4.067418098449707,-1.1063109636306765,9.998187065124513,-0.2802252769470215,-0.2347734570503235,0.09571991115808488
4.292502403259277,-0.21593254804611206,10.173151016235352,-0.33803707361221313,-0.3063099682331086,0.11366663873195648
4.360185623168945,-0.7466028928756714,10.007264137268068,-0.3929361999034882,-0.3443944454193115,0.15053531527519226
4.3356995582580575,-1.7464777231216433,9.585477828979492,-0.4048480093479157,-0.36767059564590454,0.15520147979259494
3.936406135559082,-2.119020938873291,9.224702835083008,-0.36514681577682495,-0.4617537260055542,0.07405372709035875
5.030523300170898,-0.8499128222465516,9.589818954467773,-0.4058749973773957,-0.44287192821502686,0.09436147660017015
5.003154754638672,-1.7343672513961794,9.340513229370117,-0.3717497885227204,-0.4710140824317932,0.046646587550640106
5.048355579376222,-1.6138371229171755,9.193502426147461,-0.39121094346046453,-0.32117944955825806,0.12371420115232469
3.961159467697144,-2.120550394058228,8.585229873657227,-0.33455356955528265,-0.38153949379920965,0.04790741950273514
5.77137565612793,-1.4173920154571533,9.998846054077148,-0.33878839015960693,-0.35607448220252996,0.06386509537696838
4.63879156112671,-1.793063521385193,9.12397575378418,-0.2954896092414856,-0.2390192896127701,0.11147093027830125
4.642874717712402,-1.7462743520736697,9.178870201110842,-0.30924588441848755,-0.2778948843479157,0.08583471179008484
3.5391328334808354,-2.275059223175049,7.959458351135254,-0.2411628216505051,-0.346654623746872,-0.0049263061955571175
5.665553092956543,-1.1735098361968994,9.803860664367678,-0.2622146010398865,-0.25605586171150213,0.08294479548931122
5.124312400817871,-1.8542354106903076,9.523216247558594,-0.17104177176952365,-0.3415079712867737,0.01173517107963562
4.214735507965089,-2.443799734115601,8.789194107055664,-0.1743004322052002,-0.20741485059261325,0.05433370918035507
4.373000144958496,-2.598294258117676,9.09441661834717,-0.14234906435012817,-0.25932157039642334,0.013413843698799612
3.762697696685791,-2.6834211349487305,8.828320503234865,-0.07117559760808946,-0.44996798038482666,-0.11626041680574419
5.552288532257081,-0.5079174041748047,9.846778869628906,-0.16474030911922458,-0.3024163246154785,-0.018957294523715973
4.252959251403809,-2.1612000465393066,9.066344261169435,-0.1440665274858475,-0.35928672552108765,-0.032097931951284416
4.702282428741456,-1.9942288398742676,9.154782295227053,-0.16182984411716464,-0.39287045598030096,-0.061751604080200195
4.967455863952637,-1.529984951019287,9.013631820678711,-0.13526491820812228,-0.4140501022338867,-0.07057035714387895
3.2471144199371342,-2.1749808788299565,7.569427490234375,-0.11177230626344682,-0.5531365871429443,-0.13467565178871155
6.777230262756348,-0.4434030950069428,10.760596275329592,-0.15234670042991638,-0.5391600728034974,-0.058371178805828094
4.315083026885987,-2.314528465270996,8.818644523620607,-0.10479205846786499,-0.4834843873977661,-0.0696992799639702
4.5111756324768075,-2.3784067630767827,8.821064949035646,-0.13230103254318237,-0.5612903237342836,-0.10919523239135742
5.06215763092041,-2.010696172714234,8.793603897094727,-0.07410334795713426,-0.6197233200073242,-0.14785510301589966
3.555182456970215,-2.7539496421813965,7.44560432434082,-0.022975146770477295,-0.7479515671730043,-0.2407013475894928
6.766533851623535,-0.35118785500526434,10.63912582397461,-0.06293763220310211,-0.7810655832290649,-0.17166496813297275
4.123420238494874,-2.292564868927002,8.889049530029297,-0.07493380457162858,-0.7603714466094971,-0.2019363194704056
4.069649696350098,-2.323361158370972,9.239315032958984,-0.09842825680971147,-0.95777428150177,-0.2591090798377991
3.98629093170166,-2.5850102901458745,8.718245506286623,-0.0333448387682438,-1.2860136032104492,-0.3964542448520661
6.425858020782472,-0.5266600847244263,10.231804847717287,-0.1231306791305542,-1.2939090728759766,-0.3279282748699189
4.410024642944336,-2.089707851409912,9.057019233703615,-0.10044947266578674,-1.5028237104415896,-0.3904983401298523
5.234478950500488,-1.5679478645324707,9.865137100219727,-0.10011331737041473,-1.666946053504944,-0.3674421608448029
5.452587604522706,-0.7904356718063354,9.841777801513672,-0.0720304548740387,-1.9476543664932253,-0.3333359956741333
5.380638599395753,-1.2784197330474854,9.504431724548342,-0.10015510022640228,-2.2024526596069336,-0.3384681046009064
4.964362144470215,-0.9605075120925903,9.326548576354982,-0.12523388862609863,-2.5494973659515385,-0.3260880708694458
5.309981346130371,-1.059756398200989,9.100810050964357,-0.12365316599607469,-2.9411096572875977,-0.31990909576416016
5.829283237457276,-0.7124501466751099,8.987327575683594,-0.12174881994724274,-3.381414651870728,-0.26374387741088867
6.388380527496339,-0.26905155181884766,9.62971591949463,-0.1502976417541504,-3.8039817810058594,-0.13481865823268893
7.442005157470703,-1.2341998815536501,10.63479995727539,-0.1422235816717148,-4.192287445068359,0.017955200746655468
8.949337959289553,-2.4532060623168945,12.368614196777344,-0.20921783149242404,-4.36965274810791,0.13833102583885193
9.892413139343263,-4.369205474853516,12.532194137573242,-0.26040700078010565,-4.3815155029296875,0.19088865816593173
11.822754859924318,-5.308531761169434,11.97868537902832,-0.1426602751016617,-4.3229689598083505,0.0929601639509201
15.491643905639648,-5.321757793426515,12.409370422363281,0.07278454303741455,-4.18681287765503,-0.11567555367946625
20.204504013061527,-6.640242576599121,12.09760856628418,0.394120991230011,-3.9567658901214604,-0.37788394093513494
26.459213256835938,-5.319560527801515,8.418965339660646,0.5270161628723145,-3.689306020736695,-0.6527817249298096
26.8380126953125,-5.14732551574707,2.7987649440765385,0.8135157227516175,-3.6689546108245854,-1.2441844940185547
29.965530395507812,-1.9059678316116335,4.729375839233398,0.9132396578788758,-3.724968910217285,-1.746354937553406
27.912765502929688,1.5894931554794314,4.385973930358887,0.5786353349685669,-3.6678445339202885,-2.223395109176636
37.23290634155274,2.4808094501495366,11.274170875549318,-0.46275049448013306,-3.4503462314605717,-2.5247058868408203
32.368743896484375,-1.5116949081420898,16.694829940795902,-1.4221007823944092,-1.9555511474609375,-2.515309095382691
22.31716346740723,-2.9714221954345703,11.905123710632326,-2.1819102764129643,-1.2479102611541748,-2.2330982685089116
20.156377792358402,-6.006855010986328,11.455462455749513,-2.279450654983521,-1.0310373306274414,-2.11483097076416
15.782656669616701,-8.28635025024414,10.396349906921388,-1.9179488420486452,-0.8790551424026489,-1.9247826337814333
13.901952743530273,-9.625601768493654,10.68685054779053,-1.1822762489318848,-0.7861872911453247,-1.7683175802230837
11.325968742370607,-9.279205322265625,11.15910053253174,-0.2427870482206345,-0.5404094457626343,-1.5584756135940554
7.900185585021973,-7.334561824798585,11.099553108215334,0.5368568897247314,-0.2676858603954316,-1.2841957807540896
4.671027183532715,-4.9695844650268555,11.184377670288086,0.9417048692703247,-0.04054339602589608,-1.0044138431549072
2.617416620254517,-2.9002263545989995,11.51922130584717,0.9257374405860902,0.23331536352634433,-0.757461428642273
0.4757983088493347,-2.04657530784607,11.026651382446289,0.7239395380020142,0.6435330510139466,-0.5554946660995483
-1.569104313850403,-1.9321278333663943,9.938615798950195,0.554572880268097,1.0801761150360107,-0.42799556255340576
-3.030724048614502,-1.8864520788192751,8.90903091430664,0.44854781031608587,1.4911034107208252,-0.3516396582126618
-4.998560428619386,-1.5602864027023318,7.304819583892823,0.3809373080730439,1.8403321504592898,-0.27672940492630005
-6.5872540473938,-1.7423827648162842,5.770373344421387,0.3373163044452668,2.0461268424987793,-0.18582712113857272
-6.913019180297852,-1.8701285123825075,5.099161148071289,0.3338173925876618,2.1552672386169434,-0.04939878731966019
-7.214638233184815,-1.872023105621338,4.228629589080811,0.35624161362648016,2.286924362182617,0.11624666303396226
-7.946446895599366,-1.2452450990676882,3.2496533393859863,0.35581350326538086,2.382108211517334,0.25791862607002264
-8.107596397399904,-0.3826192915439606,2.7202761173248295,0.2105066925287247,2.4329028129577637,0.4197703301906586
-7.67841672897339,-0.07323633879423143,2.498019218444824,-0.015696238726377487,2.5135452747344975,0.5700473189353944
-7.013008117675781,-0.5091940760612489,2.5668282508850098,-0.16963520646095276,2.6476976871490483,0.7242910861968994
-6.144499778747559,-0.8344371318817139,3.0192735195159917,-0.20549336075782776,2.8362107276916504,0.8595332503318788
-4.869841575622559,-0.5064501762390137,3.2419931888580327,-0.20594443380832675,3.110945701599121,0.9976074099540712
-4.262475967407227,-0.012440364807844162,2.5794219970703125,-0.2274341583251953,3.4116919040679936,1.1324757337570193
-3.8575305938720703,0.33602568507194525,1.4090451002120974,-0.25624808669090277,3.6020541191101074,1.2699137926101687
-3.007059097290039,1.2774275541305544,0.8361828923225404,-0.2912538349628449,3.6503880023956303,1.3638596534729004
-1.0147844552993777,2.840660572052002,1.5677422285079958,-0.44453600049018865,3.6917872428894043,1.401182293891907
1.8829057216644287,3.0617816448211674,2.604045152664185,-0.6368844509124756,3.812318086624146,1.3010042905807497
4.681444644927979,1.7700067758560183,3.002065658569336,-0.5964057445526123,3.9679524898529057,1.0814096927642822
7.0972914695739755,1.4821031093597412,2.7793624401092534,-0.3548634350299836,4.057504177093507,0.8249126672744751
8.570215225219727,1.767186522483826,1.962039113044739,-0.14155921339988708,4.03001356124878,0.5979238748550415
10.53713893890381,2.4683420658111577,1.7599369287490847,-0.054393980652093894,3.880836009979248,0.4103580117225647
13.303573608398438,2.0957508087158203,1.6614416837692263,-0.11322182416915894,3.6838195323944096,0.2629477381706238
15.61069965362549,-0.1276944875717163,1.2510302066802979,-0.033126305788755424,3.427761316299439,0.1571711301803589
16.295154571533203,-1.1204566955566406,0.09009094536304474,0.2139837294816971,3.0327000617980957,0.15887881815433505
16.43771743774414,-0.9310003519058228,-0.6124585866928101,0.3501949608325959,2.5127835273742676,0.2787519693374634
16.319446563720703,-1.3276129961013796,-0.7979937791824341,0.37042936682701116,1.9752981662750244,0.4748872816562653
14.841054916381836,-1.6110054254531863,-1.4439723491668701,0.3802807331085205,1.4479210376739502,0.7167480587959291
12.234240531921388,-1.1216658353805544,-3.657756090164185,0.20494917035102844,0.8768451809883119,1.087170124053955
7.933453083038331,-1.4284605979919434,-6.682521820068359,-0.14761069416999817,0.06766862422227861,1.5186816453933718
8.193186759948732,-0.663132905960083,-6.573472499847413,-0.3708126842975617,-0.8852624893188477,1.8996528387069704
110.84043884277344,20.12666511535645,65.9839553833008,-4.207390308380128,-1.0687462091445925,1.9045119285583496
-3.985978603363037,14.843179702758789,-18.768564224243168,-0.14636823534965515,5.241080760955811,-0.5328260660171509
12.109690666198732,-20.92648696899414,17.121080398559574,0.0028199469670653343,2.81385350227356,0.8588739037513734
-12.245647430419922,2.7864060401916504,11.48617458343506,0.19889385998249057,1.7533721923828125,0.6140066981315614
-6.009300708770753,-6.403215885162354,13.602273941040039,0.15369640290737155,0.8448986411094667,-0.1380709409713745
0.12201565504074097,-7.04940128326416,12.910356521606445,0.09331465512514116,-0.12511348724365234,-0.4819234907627106
3.5855588912963867,1.34153413772583,11.200026512145998,0.02257783524692059,-0.45783114433288574,-0.41993874311447144
7.576775074005128,1.373861312866211,8.82122802734375,-0.09733829647302629,-0.4025058150291443,-0.2927761375904084
8.364471435546875,-0.7268212437629701,7.86633062362671,-0.11285275965929033,-0.11980140954256059,-0.0596359521150589
6.825093746185304,-0.8755009174346924,8.377150535583498,-0.06016754359006882,0.22086809575557712,0.06461486220359802
4.771939277648926,-1.5549097061157227,9.156814575195312,0.004484657663851977,0.3689422011375427,0.08506926894187927
4.023246288299561,-1.237514138221741,9.848694801330568,0.00456119840964675,0.38291800022125244,0.08955497294664384
3.7876098155975346,-1.5590633153915407,9.950145721435547,-0.01614374667406082,0.3233945369720459,0.09008092433214189
4.203297138214112,-1.1743630170822146,10.016359329223633,-0.041711315512657166,0.267367571592331,0.09739957749843597
4.216875076293945,-1.2893199920654297,9.822634696960451,-0.06571222096681596,0.2417474091053009,0.11271560192108154
3.880340099334717,-1.3772881031036377,9.834226608276367,-0.07212213426828386,0.1951654553413391,0.10760303586721422
3.4974911212921147,-1.5373220443725586,10.155898094177248,-0.0911640301346779,0.11091428250074388,0.08786208927631378
3.4400117397308354,-1.4151402711868288,10.09188461303711,-0.12235115468502045,-0.005296541843563319,0.06671302020549774
4.0798492431640625,-1.4170641899108887,10.001428604125977,-0.14090129733085632,-0.0709432139992714,0.07426405698060991
4.343254566192628,-1.638725996017456,9.568046569824219,-0.1300282329320908,-0.06934534013271332,0.07354217022657396
4.350688457489015,-1.4408966302871706,9.535577774047852,-0.11444808542728424,-0.053562231361866,0.06951863318681718
3.644073963165283,-2.14851713180542,9.383276939392092,-0.07386231422424316,-0.13619823753833774,0.021061673760414124
4.753703594207765,-0.8899976015090942,10.033355712890625,-0.0854252800345421,-0.0793975442647934,0.0646858662366867
4.006226062774659,-1.8464895486831667,9.525713920593263,-0.05652456730604172,-0.09596467763185502,0.05976448953151703
4.369226932525636,-1.4985526800155642,9.552484512329102,-0.08553162962198259,-0.08728799968957902,0.04792376607656479
4.325742721557617,-1.6212215423583984,9.649249076843263,-0.05290255695581436,-0.19722835719585421,-0.012759417295455933
3.4326095581054688,-1.2259142398834229,9.198164939880373,-0.08301798254251481,-0.08053812384605408,0.07402960956096649
4.385947704315186,-1.651933789253235,9.990088462829592,-0.10823784023523332,-0.2546132206916809,-0.016656203195452694
4.070563316345215,-1.200697422027588,9.784537315368654,-0.10613726079463959,-0.17786580324172974,0.04984801635146142
4.061319828033448,-1.6660040616989138,9.536296844482422,-0.13712705671787265,-0.20871293544769287,0.03096987493336201
4.487988471984863,-1.6004577875137331,9.559722900390625,-0.11334839463233948,-0.31874957680702215,-0.044470924884080894
4.131990909576417,-1.4199193716049197,8.633190155029297,-0.09838372468948364,-0.22947852313518527,0.0015278970822691917
5.181336402893066,-1.4351694583892822,9.70286273956299,-0.12524865567684176,-0.22243021428585055,-0.0038558514788746834
4.464764595031738,-1.57312548160553,9.314614295959474,-0.10168464481830597,-0.13041000068187716,0.052498623728752136
3.6530098915100098,-2.6842527389526367,8.848152160644531,-0.0884453132748604,-0.17655637860298157,-0.009948836639523506
4.80324411392212,-1.6175435781478884,9.353827476501467,-0.06998866051435472,-0.1168932318687439,-0.008338264189660551
4.256720542907715,-2.1936187744140625,9.18349838256836,-0.03853690996766091,-0.09981373697519304,-0.030543997883796692
4.290307521820069,-1.5820480585098269,9.47267818450928,-0.049972731620073325,-0.15349680185317993,-0.057665895670652396
4.499483585357667,-0.8623517155647279,9.549231529235842,-0.07025226205587388,-0.11098508536815643,-0.01245046965777874
4.268531322479249,-1.7480688095092773,9.45602035522461,-0.08867532759904863,-0.1274767816066742,-0.007324129808694125
4.342756271362305,-1.43543016910553,9.266534805297852,-0.08319690078496934,-0.14499275386333468,-0.02500862255692482
4.530794620513917,-0.8740769028663636,9.586836814880373,-0.10886451601982117,-0.19625820219516757,-0.029267728328704834
3.850033521652222,-1.5548301935195925,9.594179153442383,-0.12368808686733246,-0.2032384127378464,-0.00831155013293028
3.6299400329589844,-2.372265338897705,9.561651229858398,-0.12901422381401062,-0.28160843253135687,-0.04260840266942978
3.6526546478271484,-2.21905517578125,9.52236080169678,-0.09476549923419952,-0.3762124180793762,-0.11644829064607622
4.228862285614015,-1.6076766252517702,9.643540382385256,-0.08236100524663927,-0.45896220207214355,-0.16474334895610812
4.773632526397706,-1.436284065246582,9.746582984924318,-0.06869069486856462,-0.5574276447296143,-0.2115609049797058
4.249492168426515,-1.0845795869827273,9.477885246276857,-0.08981975167989732,-0.5548741817474365,-0.18039338290691379
4.320521354675293,-1.2250641584396365,9.923155784606935,-0.1426975429058075,-0.707749605178833,-0.19625268876552585
3.901052951812744,-1.0465588569641113,10.175514221191406,-0.15676720440387729,-0.8642503023147583,-0.15524064004421237
3.2108390331268315,-1.5450148582458496,10.257138252258303,-0.16886989772319796,-1.1576042175292969,-0.1569603979587555
3.1478269100189213,-1.5870562791824343,10.086679458618164,-0.18994292616844177,-1.457876801490784,-0.2063717544078827
3.529995203018189,-1.158435344696045,9.991152763366701,-0.2274271994829178,-1.7841697931289675,-0.20567038655281067
4.127319812774659,-0.7460497021675111,10.097721099853516,-0.30669924616813665,-2.0759239196777344,-0.24483178555965426
3.9120826721191406,-0.9963753819465638,9.908449172973633,-0.4081014692783356,-2.3394432067871094,-0.2581835985183716
4.899650573730469,-1.3355354070663454,10.000984191894531,-0.44168758392333984,-2.663995981216431,-0.27821916341781616
4.500674247741699,-2.7812812328338627,9.899660110473633,-0.2987129390239716,-2.9603111743927006,-0.358234703540802
4.694242000579835,-0.9525757431983949,9.908952713012695,-0.2090643793344498,-3.4600024223327637,-0.3533144891262055
4.592268466949464,-1.7264343500137331,10.074338912963867,-0.11537647247314453,-3.958382844924927,-0.36991855502128607
4.655728340148926,-2.63641357421875,10.340798377990724,0.023316705599427227,-4.6031951904296875,-0.35591509938240057
6.562040328979492,-3.130553722381592,11.199019432067873,0.13117390871047974,-5.133392333984375,-0.31679311394691473
9.539983749389648,-3.9002239704132085,13.159337043762209,0.13166844844818115,-5.308781147003175,-0.2730135917663574
11.555908203125,-5.540767669677734,13.451417922973633,0.20200484991073608,-5.2165894508361825,-0.22315801680088046
15.078947067260742,-7.243633747100831,13.550695419311523,0.621692717075348,-5.134207725524902,-0.3768440186977387
21.29213905334473,-5.637423038482667,13.557005882263185,1.2795510292053223,-4.9186296463012695,-0.7116695046424867
29.150274276733402,-2.443876266479492,8.609053611755373,1.088860869407654,-4.666357040405273,-0.88525527715683
30.63276863098145,-6.590620994567871,3.0443465709686284,1.1704119443893435,-4.558480262756348,-1.2152588367462158
33.68330383300781,-6.485990524291992,5.533364295959473,1.8772455453872683,-4.536391258239746,-1.538396716117859
29.576242446899418,-1.6059612035751345,3.989887237548828,2.1277072429656987,-4.328481197357179,-1.7050223350524902
42.82292938232422,2.2892398834228516,13.91472911834717,0.9784817099571229,-4.016837120056152,-1.7098187208175661
35.707904815673835,-0.3541182279586792,19.596811294555668,-0.3487396240234375,-2.0657374858856206,-1.5744110345840456
25.527746200561527,-1.0190799236297607,15.549356460571289,-1.6202200651168825,-0.9677475690841675,-1.2468863725662234
20.220829010009766,-4.567634105682374,13.32916259765625,-2.236326217651367,-0.41903525590896606,-1.183002829551697
12.979556083679201,-7.697085857391358,9.872550964355469,-2.0167975425720215,-0.337837964296341,-1.2328171730041504
8.81801986694336,-9.610855102539062,8.881921768188477,-1.0421130657196045,-0.5840147137641908,-1.4458519220352175
6.964879512786866,-8.753192901611328,10.255816459655763,0.1687161922454834,-0.7966464161872865,-1.633835792541504
5.50551462173462,-5.281736373901367,12.480154037475586,0.8936273455619813,-0.746142089366913,-1.6322624683380127
4.219874382019043,-2.2297761440277104,13.923397064208984,0.86680406332016,-0.33939141035079956,-1.4243091344833376
1.9370535612106325,-1.48283326625824,13.431908607482912,0.4899479150772095,0.3446854650974274,-1.154959321022034
-2.162246942520142,-2.7069334983825684,11.115737915039062,0.34541293978691107,1.0358476638793945,-1.0114876031875613
-6.118511199951172,-3.449634552001953,8.352550506591797,0.5366519689559937,1.455430507659912,-1.0021504163742068
-9.226534843444826,-2.225612878799439,5.59812879562378,0.7336091399192811,1.5868029594421387,-1.0013498067855837
-10.662910461425781,-1.1626994609832764,4.205570220947266,0.7059038877487183,1.5241621732711794,-0.9408674836158754
-9.763247489929201,-0.7181583642959595,4.976136207580566,0.3820728957653046,1.5187995433807373,-0.7187431454658509
-8.728939056396484,-1.9627046585083008,6.0822248458862305,0.024483442306518555,1.7235474586486816,-0.3891631662845612
-8.503655433654787,-3.4109423160552983,6.370074748992921,-0.12295877933502197,2.1117584705352788,-0.030297525227069855
-9.196733474731445,-3.5313615798950195,5.262897491455078,-0.10955556482076646,2.510002613067627,0.32656461000442505
-10.189563751220703,-2.3646051883697514,3.009288549423218,-0.13532851636409762,2.756457805633545,0.6482030749320985
-10.801950454711914,-1.070965051651001,1.1032983064651491,-0.32012253999710083,2.787566661834717,0.9390539526939393
-9.537625312805178,-0.654801905155182,1.3703681230545046,-0.6055307984352113,2.7455215454101562,1.2221237421035769
-6.636038303375245,-1.353025197982788,3.4142746925354004,-0.8081610798835756,2.8970909118652344,1.4950721263885498
-4.523566246032715,-1.9940528869628906,4.290549278259277,-0.783072054386139,3.3058271408081055,1.744871497154236
-4.218705654144288,-0.5961710810661317,2.771784782409668,-0.6467180848121644,3.696168661117554,1.954200029373169
-3.33628511428833,1.9704244136810303,1.1964629888534548,-0.731656849384308,3.85599422454834,2.1043322086334233
-1.221572518348694,3.016052722930908,0.7556739449501039,-0.9645799398422241,3.895705938339234,2.1393859386444096
1.4904352426528933,2.5454745292663574,1.5076555013656618,-1.048188090324402,3.9016270637512207,2.0428254604339604
4.984017848968507,2.562187671661377,2.877076864242554,-0.9690675139427186,3.9553086757659917,1.8731412887573242
8.63884162902832,2.902865409851074,3.435553312301636,-0.8631765246391297,4.103281021118164,1.65584671497345
11.312125205993654,1.945352554321289,2.3767325878143315,-0.6362830996513368,4.198348045349121,1.3452329635620117
13.63260269165039,1.7285324335098269,0.8851789832115174,-0.32870543003082275,4.0623230934143075,1.0386133193969727
16.09982490539551,1.8289185762405398,-0.16451027989387512,-0.14365787804126742,3.7634613513946538,0.7457890510559082
17.905139923095703,0.13674728572368625,-1.0114010572433474,-0.010207056999206543,3.369043588638306,0.4910632371902466
18.7823486328125,-1.2529611587524414,-1.6974672079086306,0.16307361423969272,2.8612918853759766,0.3859541416168213
18.772047042846683,-0.9541408419609071,-2.492378473281861,0.2188338339328766,2.287054300308228,0.4618346095085144
18.855455398559574,-1.04685914516449,-3.2210481166839604,0.02201843820512295,1.656898617744446,0.7165737152099609
17.751043319702152,-2.4683058261871342,-3.7536180019378667,-0.09777188301086426,1.0042856931686404,1.0420336723327637
14.913971900939943,-2.470383644104004,-4.919084072113038,-0.05012860894203186,0.3358646929264069,1.3336435556411745
40.92293930053712,2.5238466262817383,-7.800305366516113,-0.4080601930618286,-0.666093409061432,1.3439826965332031
60.942829132080085,25.04924774169922,45.96873855590821,-0.7267768383026123,2.1387200355529785,-0.16870845854282382
10.277395248413086,-2.1367974281311035,8.04163932800293,-0.20875650644302368,2.7276537418365483,-0.49422508478164673
-4.2605133056640625,-12.399054527282717,5.566274642944336,0.6037418842315674,2.9660646915435795,0.5697436928749086
-3.7329146862030034,6.741528987884522,15.97994899749756,0.2571699619293213,1.7786101102828982,0.00446392223238945
-2.5057430267333984,-7.32062864303589,12.4904260635376,0.29456496238708496,1.1122119426727295,-0.6258276104927064
-1.438746690750122,-4.782521724700929,13.494204521179201,0.1604789346456528,0.029673799872398376,-0.14573474228382113
2.8308920860290527,3.9248266220092773,11.846620559692383,-0.08303689956665039,-0.502705752849579,-0.3234780132770539
6.5761380195617685,-3.3998744487762456,8.66231918334961,-0.13279570639133456,-0.5287017822265625,-0.33820572495460516
7.856642723083496,-0.13774828612804416,8.253866195678711,-0.033307906240224845,-0.3012064397335053,-0.1399753987789154
7.120060920715332,-0.6864754557609559,8.521116256713867,0.008746171370148659,0.022424073889851574,-0.044429972767829895
5.130406856536866,-1.91097092628479,9.09960460662842,0.04841721430420876,0.21563786268234253,-0.002751091029495001
4.201837539672852,-1.0577734708786013,9.703786849975586,0.04713085666298867,0.22026732563972473,0.009798859246075155
4.162627696990968,-0.8435262441635132,9.923977851867678,-0.016998790204524994,0.16041257977485657,0.0410151518881321
4.2996368408203125,-1.2664680480957031,9.855278015136719,-0.06008699163794518,0.11048804223537445,0.061800736933946616
4.237091541290284,-1.2699429988861084,9.822583198547365,-0.07786866277456285,0.07394815981388092,0.0663013905286789
4.322353363037109,-1.4681499004364014,9.735925674438477,-0.0812976062297821,0.04678700491786004,0.06571117043495178
4.2072649002075195,-1.480921745300293,9.76781749725342,-0.07683398574590684,0.01972945220768452,0.04782784730195999
4.1530351638793945,-1.485349416732788,9.80401134490967,-0.07293754816055298,-0.014451217837631704,0.04859884828329086
4.337907791137695,-1.508619785308838,9.732669830322266,-0.07268604636192322,-0.05139705166220666,0.04337424412369729
4.415445804595948,-1.4719655513763428,9.599036216735842,-0.07550115883350372,-0.06560518592596055,0.040347129106521606
4.7391557693481445,-1.6018649339675906,9.642052650451662,-0.062168098986148834,-0.13683539628982544,-0.004681789781898261
4.3895630836486825,-1.472569823265076,9.405829429626467,-0.05004709213972092,-0.037058878690004356,0.07240261137485504
4.37483024597168,-1.7857166528701784,9.45510768890381,-0.049667440354824066,-0.05670508369803429,0.03906045481562615
4.419436931610108,-1.9360178709030154,9.438520431518555,-0.007517748046666385,-0.12784793972969055,-0.034391012042760856
4.750911235809327,-1.158137559890747,9.522216796875,-0.01669871620833874,-0.007631381507962943,0.04848446696996689
4.311073780059815,-1.76255202293396,9.199623107910156,-0.008368917740881445,-0.021709922701120377,0.027525937184691433
4.9854583740234375,-1.4181923866271973,9.502758979797365,0.0028390358202159405,-0.06178716197609902,-0.02990873344242573
3.8917944431304936,-1.3682854175567627,8.842642784118654,0.010134978219866753,0.03199226781725884,0.0535459890961647
5.180683135986328,-1.1246021986007693,10.127026557922365,-0.021027177572250366,-0.02743539586663246,0.025445898994803432
4.468992233276367,-1.4578515291213991,9.434437751770021,-0.013681388460099699,0.0434376522898674,0.08561211079359056
3.6663169860839844,-2.262542009353638,8.95008182525635,-0.009541363455355169,-0.019878026098012924,0.026077553629875183
5.15076494216919,-1.2138357162475586,9.704431533813477,0.00022397899010684344,0.03047265112400055,0.03373492881655694
4.593658447265625,-1.7757575511932373,9.123130798339844,0.042438238859176636,0.09618721902370453,0.048324029892683036
4.428261280059815,-1.5267913341522217,9.278331756591797,0.02682951651513577,0.11371973156929016,0.03462986275553704
4.498698711395265,-1.56077516078949,9.326797485351562,0.0641455352306366,0.05263825878500939,-0.006501249503344298
4.8733534812927255,-1.1648334264755251,9.21055793762207,0.059284295886755,0.16078194975852966,0.06115610525012017
4.026576519012452,-1.5036798715591433,9.089033126831055,0.04102632775902749,0.1862701922655106,0.0710795670747757
3.4910759925842285,-1.6607848405838015,9.185708999633789,0.04867708683013916,0.14962886273860934,0.039945363998413086
3.933696508407593,-1.508927345275879,9.777925491333008,0.045283980667591095,0.06903118640184404,0.007939298637211325
3.0481677055358887,-1.7408891916275027,9.725256919860842,0.020413991063833237,0.005724715534597636,-0.011139251291751862
3.075644731521607,-2.221519231796265,9.919590950012209,0.002287179464474321,-0.10790229588747026,-0.07799060642719269
3.59984040260315,-1.6669328212738037,9.715785026550295,0.02119572646915913,-0.21812203526496887,-0.14948372542858127
3.936494588851929,-1.2382224798202517,9.810808181762695,0.0022040156181901698,-0.2870337963104248,-0.17271852493286133
3.8117163181304936,-1.3751052618026736,9.643727302551271,-0.0025802557356655598,-0.36298742890357977,-0.19764715433120728
4.3926968574523935,-0.9701120257377626,10.04751491546631,-0.033665165305137634,-0.41528117656707764,-0.19687737524509433
4.341278553009034,-0.9378380179405214,9.949853897094727,-0.06391382962465288,-0.4671075940132141,-0.16649909317493441
4.43549919128418,-0.9116860032081605,9.905779838562013,-0.1024646908044815,-0.5373919606208802,-0.1468983441591263
3.8988902568817143,-1.683284044265747,9.805765151977539,-0.07730824500322343,-0.6858687400817871,-0.17873783409595492
3.86997127532959,-1.3511238098144531,10.102375984191896,-0.07475591450929643,-0.7877263426780702,-0.16854968667030334
3.7566075325012207,-1.1165568828582764,10.199941635131836,-0.09286748617887498,-0.9554293155670166,-0.1662511080503464
3.6232917308807377,-1.5138398408889773,10.269033432006836,-0.09961831569671631,-1.2938057184219363,-0.17164526879787448
4.064220428466797,-0.9181392788887025,10.375657081604006,-0.14172650873661044,-1.5605988502502441,-0.14628593623638156
3.0943546295166016,-0.3270307183265686,10.13222885131836,-0.3023428022861481,-1.835163235664368,-0.14398032426834106
3.8260853290557866,-1.3468161821365359,11.050691604614258,-0.4264583289623261,-2.1276278495788574,-0.14091394841670993
3.625675678253174,-1.9419497251510622,9.932021141052248,-0.25206211209297186,-2.450509548187256,-0.23154377937316895
4.453644752502441,-0.983436107635498,10.018905639648438,-0.2963102757930756,-2.756870746612549,-0.3093619644641877
4.053462505340577,-0.8663753271102905,9.962726593017578,-0.28816068172454834,-3.1270875930786133,-0.35270497202873236
4.318375110626222,-1.0772206783294678,10.296083450317383,-0.18980923295021057,-3.647107839584351,-0.3702295422554016
4.678833484649659,-2.604819536209107,10.340487480163576,-0.004399394150823356,-4.229534149169922,-0.4416388273239136
4.930562496185304,-3.041836023330689,10.262108802795412,0.21658137440681458,-4.757006168365479,-0.5470550060272217
7.95616102218628,-2.460134506225586,11.9141845703125,0.24430282413959506,-5.20132875442505,-0.4699792265892029
10.858700752258303,-2.390459775924683,13.99334716796875,0.025089576840400696,-5.259437084197999,-0.29703885316848755
13.689535140991211,-5.285725116729737,13.96314811706543,-0.034594852477312095,-5.118378639221191,-0.26503127813339233
19.550794601440433,-5.634050846099854,14.770294189453125,0.2019816488027573,-4.928313255310059,-0.46312507987022405
26.457479476928714,-4.766102313995362,10.280093193054201,0.13073249161243441,-4.683417797088624,-0.720792293548584
29.27279853820801,-7.197671413421632,3.6653091907501225,0.07655934989452362,-4.595187664031983,-0.954625129699707
31.86923599243164,-8.344375610351562,3.4709506034851074,0.9235726594924927,-4.865480899810792,-1.4595264196395876
31.229497909545902,-5.6001038551330575,4.627298355102539,1.7326076030731201,-4.70677137374878,-1.6201255321502686
38.71070098876953,-0.652904748916626,8.14981460571289,1.5426990985870361,-4.857097625732422,-1.6764851808547976
39.87871932983399,-1.036107897758484,19.473419189453125,0.5132487416267396,-3.3000354766845703,-1.5054813623428347
27.57583236694336,0.026664823293685913,16.193117141723636,-0.7425105571746826,-2.0202047824859624,-1.1616245508193972
23.1085205078125,-1.3197743892669678,14.80836296081543,-1.678835153579712,-1.2455750703811648,-1.1042766571044922
15.962195396423342,-3.811195611953736,12.16718864440918,-2.1478393077850346,-0.798463523387909,-1.130586862564087
11.24148464202881,-7.539899826049805,11.043527603149414,-1.86374831199646,-0.6955056786537172,-1.281914472579956
7.388308048248292,-9.673279762268068,11.460927963256836,-0.7766904830932617,-0.6861413121223451,-1.4752823114395144
5.144459247589112,-7.412359237670898,12.990970611572266,0.305559128522873,-0.5833909511566162,-1.527604937553406
4.024661064147949,-3.9416029453277592,14.416237831115724,0.7279806137084961,-0.16839894652366638,-1.3661681413650515
1.0832256078720095,-1.9212450981140137,13.934140205383303,0.6563408374786377,0.5379682183265687,-1.1489994525909424
-2.4750702381134038,-1.5346347093582156,12.591856002807617,0.41661313176155096,1.2618329524993896,-0.9597769975662231
-5.717168331146241,-1.991889834403992,10.461146354675295,0.32961705327034,1.833768367767334,-0.8707277178764344
-7.846445560455323,-2.726248979568482,7.966566562652589,0.41700083017349243,2.2133007049560547,-0.8380616307258607
-9.898017883300781,-2.186026096343994,5.544883251190186,0.5848785638809204,2.36827301979065,-0.8096253871917725
-10.070919036865234,-1.2102758884429932,4.855812549591065,0.5163551568984985,2.4012758731842045,-0.6789764761924745
-10.112628936767578,-1.0575691461563113,4.193896770477296,0.24742743372917175,2.472518682479859,-0.42286694049835205
-10.865479469299318,-2.0836048126220703,3.253025531768799,0.0598396621644497,2.528108358383179,-0.15440839529037476
-11.252971649169922,-2.232896327972412,2.6445214748382573,-0.032741256058216095,2.526516199111939,0.1192605048418045
-10.500126838684084,-1.5905485153198242,2.8467972278594975,-0.18554380536079407,2.5437290668487553,0.40860912203788763
-9.407322883605959,-1.4366636276245117,3.2045943737030034,-0.40544819831848145,2.677813291549683,0.7130516767501831
-8.444448471069336,-1.5454578399658203,3.295416116714478,-0.553415596485138,2.867675065994263,0.9796558618545532
-6.90665340423584,-1.2973464727401736,3.6823279857635502,-0.6638349890708924,3.113487720489502,1.2227512598037722
-5.630922317504883,-1.1865791082382204,3.4215354919433594,-0.7186031341552734,3.415047883987427,1.442860245704651
-4.438465118408203,-0.3576970100402832,3.0132563114166264,-0.7396246194839478,3.670789480209351,1.6659495830535889
-2.7067790031433105,0.6895329356193544,2.44156551361084,-0.8149054646492006,3.8665049076080327,1.8542277812957764
-1.354889750480652,2.1087644100189213,1.7624759674072266,-0.9012906551361084,3.974166631698609,1.9767348766326904
0.893606424331665,3.5316307544708256,1.7847509384155273,-1.0486017465591433,3.985320568084717,1.979835033416748
3.946054458618164,3.3957221508026127,2.082131147384644,-1.1071081161499023,3.992099523544312,1.8381094932556152
6.843412399291992,3.213861703872681,2.1534030437469487,-0.9582559466362001,3.9634268283844,1.5878515243530273
10.244863510131836,2.4327790737152104,2.1817390918731694,-0.6876789927482606,3.867556095123291,1.28552782535553
13.291971206665039,1.7858314514160156,2.0149533748626713,-0.3049089312553406,3.677852869033814,0.9849751591682435
15.967073440551758,1.0599061250686648,1.4584463834762575,0.025305563583970073,3.3990869522094727,0.7196709513664247
18.570718765258793,-0.8107545971870423,0.7131734490394593,0.34961208701133734,2.9850933551788335,0.5654679536819458
20.932741165161136,-2.1880095005035405,0.2895123660564423,0.7418197989463807,2.4659838676452637,0.5656643509864808
21.83929252624512,-0.9012514948844911,-0.3732360601425171,1.0045167207717898,1.9389233589172363,0.6965755224227905
21.073257446289062,0.6388060450553895,-1.2997053861618044,0.9986430406570435,1.4164232015609743,0.836774468421936
18.88883781433106,1.6354452371597292,-2.3987972736358647,0.9017467498779297,0.8805917501449585,0.8549004197120668
14.812289237976076,2.102039337158203,-5.199254512786866,0.9271936416625977,0.2884105741977692,0.7081177234649658
34.04460906982422,11.784457206726076,-8.07449722290039,-0.33725050091743475,-0.8981201648712158,1.0175652503967285
68.58277130126955,16.61587142944336,46.04974365234375,-2.6568763256073002,0.9742370843887329,0.9552250504493714
-4.572891712188722,-0.10078158974647522,-9.958069801330568,-1.123596429824829,3.112046241760254,0.3230461776256562
9.196670532226562,-7.225153446197511,15.356744766235352,-0.26974087953567505,2.6813781261444096,0.7685248851776123
-5.787543296813965,-5.7309675216674805,14.91541385650635,0.09732490032911302,1.6036701202392578,0.18671071529388428
-6.134629726409913,-10.62619400024414,15.044596672058107,0.19780005514621737,0.685036301612854,-0.03276318684220315
-0.446256160736084,-2.068539619445801,13.560755729675295,0.07684723287820817,-0.30395480990409857,-0.4857429265975952
6.299424171447754,-0.03276301920413971,9.478654861450195,-0.001976963831111789,-0.545662522315979,-0.5320808291435243
9.140555381774904,0.7945621609687806,7.539664268493652,0.01846630871295929,-0.3543792665004731,-0.32776197791099554
8.316246032714844,0.5427082777023315,7.7269439697265625,0.005912687163800002,0.05961005389690399,-0.0577617920935154
5.390369892120362,-0.9709019660949707,8.940704345703125,0.03605668246746063,0.318668007850647,0.07009807974100114
3.829153060913086,-2.340035200119019,9.689022064208984,0.06761475652456285,0.35043764114379883,0.0657525733113289
3.570467948913574,-1.6816372871398926,9.895313262939453,0.07017784565687181,0.2460261583328247,0.022018026560544968
4.511456966400147,-1.1281332969665527,9.647534370422365,0.05253420025110245,0.19347850978374484,0.002253473736345768
4.908778190612793,-0.6280814409255981,9.498289108276367,0.022405028343200684,0.21408456563949585,0.04187781736254693
4.311088562011719,-1.1110717058181765,9.765291213989258,-0.0042589325457811356,0.228060856461525,0.07968251407146454
3.6400411128997807,-1.559140920639038,10.189505577087404,-0.010896541178226471,0.14850987493991855,0.07292569428682329
3.4683823585510254,-1.5569672584533691,10.201539993286133,-0.040292944759130485,0.03867090493440628,0.035151239484548576
4.066668033599854,-1.3332208395004275,9.886816978454592,-0.05969051271677017,-0.046874038875103,0.018535161390900615
4.563117504119874,-1.0309991836547852,9.656492233276367,-0.07513473182916643,-0.057132378220558167,0.03274332359433175
4.590485572814941,-1.1670465469360352,9.558216094970703,-0.09040550887584686,-0.041005212813615806,0.05949825420975686
4.226774692535401,-1.5077201128005984,9.556600570678711,-0.0942368730902672,-0.0988883227109909,0.0328974835574627
4.224786758422852,-0.9214298129081727,9.789510726928711,-0.12085541337728502,-0.07500920444726945,0.0859171450138092
3.9475784301757812,-1.6221081018447878,9.819458961486818,-0.13982349634170532,-0.157662108540535,0.05560147017240524
4.350356578826905,-1.306473731994629,9.760457992553711,-0.16083618998527527,-0.1848588436841965,0.06016627326607705
4.478912353515625,-1.3156880140304568,9.612937927246094,-0.167813315987587,-0.1640453040599823,0.088745154440403
4.303607940673828,-1.4088916778564453,9.476133346557617,-0.1900347024202347,-0.16954208910465243,0.09027054905891418
4.568589687347413,-1.4553070068359375,9.480508804321289,-0.17506545782089233,-0.24121032655239108,0.03503934293985367
4.4919800758361825,-1.0138680934906006,9.478215217590334,-0.19478696584701538,-0.16206808388233188,0.10685362666845323
4.4074978828430185,-1.7234312295913699,9.350285530090334,-0.19261187314987183,-0.2467533499002457,0.027009040117263794
4.696924209594727,-1.0263687372207644,9.611618995666506,-0.20864418148994446,-0.1533581018447876,0.1055051162838936
4.303579807281495,-1.7257102727890017,9.299801826477053,-0.21242742240428927,-0.15429198741912842,0.09590607136487962
4.369216442108155,-1.834958553314209,9.288593292236328,-0.21487270295619967,-0.1532815396785736,0.0866948664188385
4.558305263519288,-2.0104355812072754,9.412550926208498,-0.17096345126628879,-0.2618139386177063,-0.0012273037573322656
4.4770612716674805,-1.5518531799316406,9.153131484985352,-0.16446757316589355,-0.11640205979347229,0.06690170615911485
3.5831432342529297,-2.7425301074981694,8.377676963806154,-0.14519140124320984,-0.19903220236301425,-0.009113939478993416
5.362332344055176,-1.2781128883361816,9.887906074523928,-0.1409778892993927,-0.11464566737413408,0.03488812968134881
4.572118282318116,-1.871412754058838,9.291893959045412,-0.09691301733255388,-0.0716654509305954,0.0411764569580555
4.415464878082276,-2.3024725914001465,8.932438850402834,-0.09288708865642548,-0.05276024341583252,0.02434525825083256
4.226508140563965,-2.2561588287353516,9.102149963378906,-0.011023414321243765,-0.1432988941669464,-0.046305101364851005
4.865990161895753,-1.1193145513534548,9.331454277038576,-0.004943585954606533,-0.042786668986082084,-0.01747638173401356
4.3960537910461435,-1.6567139625549316,9.320176124572756,-0.007178915664553642,-0.038062084466218955,-0.009700288996100426
4.326547145843507,-1.7753915786743164,9.376261711120607,-0.01844718120992184,-0.05764706805348397,-0.02417822927236557
4.199644565582276,-1.4731590747833252,9.596774101257326,-0.021578703075647354,-0.09354958683252336,-0.03946696221828461
4.116147994995117,-1.528149127960205,9.434946060180664,-0.0491940975189209,-0.13815470039844516,-0.05612294003367425
4.1395111083984375,-1.542807221412659,9.468511581420898,-0.057306744158267975,-0.19251231849193576,-0.07358400523662567
4.19178342819214,-2.095616340637207,9.323871612548828,-0.04873265326023102,-0.22890827059745789,-0.10555701702833177
4.355132579803468,-2.158699274063111,9.366525650024414,-0.01906966604292393,-0.27045273780822754,-0.149848148226738
4.529914855957031,-1.1686081886291504,9.586038589477539,-0.02114436775445938,-0.3127297461032868,-0.15313418209552768
4.226701736450195,-1.5438741445541384,9.639089584350586,-0.0320621058344841,-0.38178679347038275,-0.15203756093978882
4.219175815582276,-1.4589737653732302,9.918880462646484,-0.04222805425524712,-0.4949141442775727,-0.15324074029922485
3.1697576045989995,-1.5288804769515993,9.48451900482178,-0.06707392632961273,-0.6685550808906556,-0.16927999258041382
4.781360626220703,-0.7325348258018495,10.799553871154787,-0.14052581787109375,-0.9200835824012757,-0.1636745482683182
3.6673700809478764,-1.0407012701034548,10.047613143920898,-0.16258211433887484,-1.1184067726135254,-0.11804149299860002
3.5157334804534917,-1.295980453491211,10.080014228820803,-0.25899174809455877,-1.3560684919357302,-0.12214505672454834
3.9737071990966797,-1.1663535833358767,10.587725639343263,-0.338791698217392,-1.6506893634796143,-0.13385106623172763
3.5326876640319824,-1.694766163825989,10.446298599243164,-0.3541755378246308,-1.909736156463623,-0.18760386109352112
3.594127416610718,-2.1864278316497807,9.973591804504396,-0.2645479440689087,-2.2105576992034917,-0.2459528148174286
4.446527957916261,-1.67423677444458,10.04557991027832,-0.2542360723018647,-2.549045324325562,-0.33154886960983276
4.465398788452148,-1.2735129594802859,9.926213264465334,-0.2080078572034836,-2.9379944801330566,-0.3725500404834748
4.292358875274659,-1.544119119644165,10.423616409301758,-0.14303162693977356,-3.4446032047271733,-0.39873006939888006
4.359427928924561,-2.3613033294677734,10.2243127822876,0.01424760837107897,-4.033370018005371,-0.424008995294571
4.69256353378296,-3.638935089111328,10.282386779785156,0.1635446548461914,-4.609654426574707,-0.47138246893882757
7.088249683380128,-3.8993186950683594,11.422857284545898,0.3162056505680085,-5.047384262084961,-0.5064812302589418
9.97281265258789,-4.35142707824707,13.51822280883789,0.37336930632591253,-5.231767654418945,-0.45396751165390015
12.697587966918945,-5.537862300872804,14.211713790893555,0.4399864077568054,-5.070043087005616,-0.43612784147262573
17.174047470092777,-6.205980777740479,14.940726280212404,0.9079816937446595,-4.84197759628296,-0.6241827011108398
21.01522254943848,-4.235394477844238,9.791970252990724,1.3744683265686035,-4.682367801666261,-0.885188102722168
28.9443531036377,-4.169141292572022,7.977687835693359,1.262272596359253,-4.639254093170167,-0.9464856982231141
28.777345657348636,-6.77852487564087,2.4925103187561035,1.712320923805237,-4.606740951538086,-1.269139885902405
31.376417160034183,-7.184919834136964,4.108652114868164,2.582886219024658,-4.621732711791992,-1.4383946657180788
28.701917648315433,-1.2613780498504639,1.82027804851532,2.7854073047637944,-4.89613151550293,-1.4531370401382449
42.57447052001953,0.7633047103881836,14.282923698425295,1.7678148746490479,-4.490321636199952,-1.3267716169357302
31.271812438964844,-0.09588015079498291,15.772342681884766,0.5452438592910767,-2.902459859848023,-0.9226677417755127
25.010194778442386,-0.986262321472168,14.118504524230959,-0.5761703848838807,-2.163889646530152,-0.6956762075424194
21.25235366821289,-2.3206274509429936,13.929232597351076,-1.3200598955154421,-1.6893343925476074,-0.6364771723747255
17.542461395263672,-3.7631933689117436,12.95219612121582,-1.7932250499725342,-1.2494310140609743,-0.619629204273224
13.36258316040039,-6.418961048126222,11.651252746582031,-1.6401759386062624,-0.8331894874572754,-0.691414773464203
8.161258697509766,-7.533256530761719,9.896747589111328,-0.8575124144554139,-0.6274577975273133,-0.8449263572692871
4.760158061981202,-6.944942474365234,9.446375846862795,0.07640813291072845,-0.6200445294380189,-1.0398640632629395
2.915086269378662,-4.868014812469483,10.125845909118654,0.7448431253433228,-0.5605966448783876,-1.1573182344436648
2.365498304367066,-2.513115406036377,10.938036918640138,0.89472633600235,-0.2561708688735962,-1.1138762235641482
0.2915088832378388,-1.6418308019638064,10.183852195739748,0.7486910223960878,0.2939422428607941,-1.0015482902526855
-3.0355262756347656,-1.6018465757369997,8.232031822204592,0.5773497223854066,0.7738189697265625,-0.9493576884269715
-6.3835039138793945,-1.556732416152954,5.981494426727296,0.44716519117355347,0.9963807463645936,-0.9460764527320863
-7.5076398849487305,-1.7338904142379763,4.981668949127198,0.2989632487297058,1.0390788316726687,-0.9006705284118652
-7.727376461029054,-2.242131233215332,4.82649850845337,0.20477773249149325,1.0866709947586062,-0.784218430519104
-6.898338317871094,-2.570131301879883,5.727055072784425,0.10777095705270769,1.2436044216156006,-0.5617976784706117
-5.839910507202148,-3.025647878646851,6.689394950866699,-0.024520048871636394,1.573315143585205,-0.22119677066802979
-6.024480342864991,-3.818217039108277,6.3181118965148935,-0.042408183217048645,2.00403904914856,0.14512306451797485
-6.708030700683594,-3.7558858394622807,5.328832149505616,0.0372481755912304,2.3723151683807377,0.4848185181617737
-7.177779197692871,-2.52848482131958,3.9631488323211674,0.0378570668399334,2.659543991088867,0.810504972934723
-7.959832191467285,-1.405844569206238,2.2762503623962402,-0.09410540014505388,2.8394532203674316,1.0942103862762451
-7.998683929443359,-0.4947988688945771,1.4210003614425661,-0.3185614347457886,2.8792660236358647,1.3372759819030762
-6.854450225830078,-0.21622155606746676,1.453944802284241,-0.5556839108467103,2.925526857376099,1.5430939197540283
-5.3939714431762695,-0.3846404552459717,2.0171375274658203,-0.679747462272644,3.0488278865814213,1.6915905475616455
-3.7755415439605717,-0.2991083860397339,2.5273277759552006,-0.6688464879989624,3.247679948806763,1.7930730581283572
-2.0670025348663335,0.5645308494567871,2.9392559528350835,-0.6405998468399048,3.4862878322601323,1.8456318378448486
-0.7246291041374208,2.5671424865722656,3.0875420570373535,-0.7329775094985962,3.743980884552002,1.8536075353622439
0.7312039136886597,3.740373134613037,2.6083736419677734,-0.9626931548118592,3.9914474487304688,1.7604528665542605
2.7385375499725346,2.742645740509033,2.1496741771698002,-1.0275036096572878,4.14525032043457,1.551872730255127
4.875089168548585,1.7829717397689822,1.9102023839950564,-0.790655553340912,4.207911491394043,1.2688168287277224
7.345270633697511,1.9889717102050781,1.7170213460922243,-0.4728634059429169,4.23482370376587,0.9949034452438354
9.558351516723633,2.1830215454101562,1.3370653390884402,-0.2776570022106171,4.18804931640625,0.780063569545746
11.29775619506836,2.061279296875,1.0342354774475098,-0.210532620549202,4.050382614135742,0.6565378904342651
12.854423522949219,1.4111721515655518,1.1430962085723877,-0.16821445524692538,3.8177027702331543,0.5408214926719667
14.756925582885742,0.8822427988052368,2.4213283061981206,-0.14545275270938876,3.5584371089935307,0.4473617672920227
16.634937286376953,0.38950386643409735,3.318582057952881,-0.1255980581045151,3.3836050033569336,0.396678239107132
17.15322494506836,-0.9099748730659486,2.6858193874359135,-0.04651348665356637,3.1616249084472656,0.3435114622116089
16.833541870117188,-1.2455292940139773,1.5662329196929932,0.08373360335826874,2.7586534023284917,0.36926794052124023
16.300054550170902,-0.5611050724983216,0.2033127248287201,0.08820856362581254,2.237136602401734,0.4673299789428711
14.007086753845217,0.17700037360191345,-2.460864543914795,-0.049693692475557334,1.6232593059539795,0.6015779376029969
9.774066925048828,0.1898900866508484,-6.37928581237793,-0.17927280068397522,0.6806390881538392,0.693372666835785
21.245155334472656,2.628814220428467,-10.752261161804201,-0.4068590700626374,-0.6318702697753906,0.7929717898368837
81.28331756591798,17.036540985107422,58.56616973876953,-1.2804716825485232,1.8928142786026003,-0.14914706349372864
-3.327616453170777,4.578754425048828,-0.26917353272438055,-0.1583984047174454,2.8303418159484863,-0.6740697026252748
0.09115187078714372,-8.141799926757812,13.088655471801758,0.30426922440528875,2.5696706771850586,0.5407366752624512
-7.722546100616456,7.029322624206543,16.526233673095703,0.10831490159034729,0.7552075982093812,0.2128349244594574
-2.717870950698853,-9.000646591186523,12.152506828308107,0.015798401087522507,0.06672661006450653,-0.3788668811321259
2.2698700428009038,-7.787631034851074,10.719044685363771,0.022371534258127213,-0.6119323372840882,-0.42984098196029663
9.030629158020021,3.301066160202027,8.955924034118654,0.13563029468059543,-0.548997163772583,-0.37126731872558594
8.239901542663576,-1.04447603225708,7.18272352218628,0.07234764844179155,-0.10531939566135406,-0.18789134919643405
7.149494647979737,-0.5956891179084779,8.19235610961914,0.11189039051532745,0.282626748085022,-0.017538128420710567
4.695932865142823,-1.5556279420852663,9.444848060607912,0.10964968800544739,0.45630368590354925,0.03146094083786011
3.390483617782593,-2.3760414123535156,10.000569343566896,0.13489612936973572,0.39318802952766424,0.023362575098872188
3.734744787216187,-1.7949514389038086,10.000871658325195,0.1329723596572876,0.266585260629654,-0.03555704653263092
4.370742321014405,-0.5144317746162416,9.970129013061523,0.08986010402441026,0.19425381720066073,-0.04633093625307083
4.493631362915039,-0.8029767274856567,9.82064437866211,0.028017772361636165,0.17041635513305664,0.029182834550738338
4.087265491485597,-1.3623743057250977,9.843536376953125,0.016810167580842972,0.12136171013116838,0.047799501568079
3.878036737442017,-1.6324799060821533,9.945234298706055,0.024057991802692413,0.0575314573943615,0.022553201764822006
3.958800792694092,-1.4568780660629275,9.88609027862549,0.021602749824523926,-0.005714660510420799,-0.014937468804419042
4.400092124938965,-1.199110984802246,9.695372581481935,0.016020761802792553,-0.02500522881746292,-0.010908492840826513
4.5476698875427255,-0.9146465063095093,9.70077896118164,-0.007381747011095286,-0.033108919858932495,0.0092302355915308
4.310847759246827,-1.2573117017745974,9.613000869750977,-0.03419928997755051,-0.06788184493780137,0.015807636082172394
4.558903694152832,-0.9584654569625854,9.704533576965334,-0.062360908836126334,-0.07038270682096483,0.051823049783706665
4.210180282592773,-1.227401375770569,9.626199722290039,-0.09033986926078796,-0.08281181007623674,0.06890363991260529
4.258721351623535,-1.3726134300231934,9.662821769714357,-0.11606400460004808,-0.12104515731334686,0.0588301345705986
4.534724712371827,-1.2493913173675537,9.718828201293945,-0.11895842850208282,-0.13087745010852816,0.07104934751987457
4.042252540588379,-1.456101417541504,9.449941635131836,-0.14029145240783691,-0.13939425349235535,0.07862456887960435
4.325660705566406,-1.4824233055114746,9.59953022003174,-0.16012394428253174,-0.1871185749769211,0.05948755145072937
4.439902782440186,-1.292818307876587,9.782329559326172,-0.16564089059829712,-0.16314117610454562,0.08945968002080919
