AccX,AccY,AccZ,GyrX,GyrY,GyrZ
0.00014024473784957084,-4.7062469093361876e-05,0.0003206956898793578,2.2987750014635824e-07,-5.922346986153572e-07,-6.988706218180596e-07
4.261423587799073,-1.3656377792358398,9.61859130859375,0.00515273492783308,-0.014039660803973677,-0.01806950569152832
4.248960971832276,-1.3384740352630615,9.608638763427734,0.0031798148993402724,-0.011127106845378876,-0.014617227017879486
4.246340751647949,-1.3170660734176638,9.62686538696289,0.003243190236389637,-0.009955006651580335,-0.011742301285266876
4.2142839431762695,-1.360654592514038,9.579867362976076,0.002110627479851246,-0.009840777143836021,-0.00998093467205763
4.204394340515137,-1.4044669866561892,9.609486579895021,0.0009318899246864022,-0.008466431871056557,-0.011744427494704725
4.180199146270753,-1.4173264503479004,9.583717346191406,0.002963726641610265,-0.010133162140846252,-0.010884644463658333
4.204329013824464,-1.3912585973739626,9.610379219055178,0.002426375634968281,-0.01202561240643263,-0.014059260487556458
4.2050628662109375,-1.4118802547454834,9.600326538085938,0.0014089236501604319,-0.011614229530096054,-0.01326925400644541
4.198042869567871,-1.3999587297439577,9.615928649902344,0.0025703459978103638,-0.010958162136375906,-0.013660155236721039
4.234562397003175,-1.37662672996521,9.600606918334961,0.0035333153791725636,-0.01241512317210436,-0.01374530512839556
4.245463848114015,-1.3760112524032595,9.601877212524414,0.005634997971355915,-0.007325993385165931,-0.013399438932538033
4.219690322875977,-1.384683966636658,9.627604484558107,0.002290527103468776,-0.00817250367254019,-0.014294227585196495
4.229457378387452,-1.3681485652923584,9.572431564331055,0.005464558489620686,-0.007459350395947696,-0.012959681451320648
4.2230286598205575,-1.3476057052612305,9.61213493347168,0.002989008324220777,-0.0072942255064845085,-0.012137457728385925
4.214097499847413,-1.370807409286499,9.612007141113281,0.0011454763589426877,-0.007176654413342476,-0.010303555987775328
4.199667930603027,-1.407520651817322,9.608355522155763,0.002419672440737486,-0.00832471065223217,-0.010588773526251318
4.175248146057129,-1.3873847723007204,9.63564968109131,0.0031088516116142273,-0.010358198545873167,-0.012815902009606361
4.214360713958741,-1.374798655509949,9.615913391113281,0.00027934135869145393,-0.014123394154012205,-0.011955677531659605
4.215368270874023,-1.374577522277832,9.608059883117678,-0.00025713440845720475,-0.012846389785408974,-0.011998661793768408
4.198309898376465,-1.3914644718170166,9.635313034057617,-0.001131406635977328,-0.01620282791554928,-0.01329328864812851
4.235013484954835,-1.3915884494781494,9.587703704833984,-0.00202417909167707,-0.01638779044151306,-0.011260363273322584
4.224032402038574,-1.3713362216949463,9.598043441772461,-0.0010885895462706687,-0.013514049351215363,-0.011373179033398628
4.225001811981202,-1.3916475772857666,9.59908199310303,0.0010207225568592548,-0.010941647924482824,-0.011624816805124283
4.200984954833984,-1.4228938817977907,9.562340736389162,0.0020954997744411234,-0.01125562656670809,-0.01144743338227272
4.200331211090089,-1.401186466217041,9.592174530029297,0.006538150832056999,-0.012030084617435934,-0.013046879321336746
4.206220626831055,-1.3883644342422488,9.621294021606445,0.002695857780054212,-0.012015707790851593,-0.013513676822185516
4.23201847076416,-1.3639090061187744,9.635021209716797,0.0021507807541638617,-0.013852246105670929,-0.013362371362745764
4.221356391906738,-1.3810982704162598,9.597931861877443,0.0011235922574996948,-0.013987423852086067,-0.012500154785811903
4.20733404159546,-1.3794441223144531,9.599728584289553,0.0010032198624685409,-0.013007644563913345,-0.012874393723905088
4.210958003997804,-1.407789945602417,9.601656913757326,0.002157705370336771,-0.012879836373031141,-0.01618735305964947
4.238406181335449,-1.3520278930664062,9.607659339904787,0.0016925409436225891,-0.011782814748585226,-0.014459995552897453
4.217039585113526,-1.3301881551742556,9.614110946655273,0.0027308654971420765,-0.010698596015572548,-0.011648780666291715
4.213898181915284,-1.3626742362976074,9.647064208984375,-0.0012041000882163646,-0.011413918808102608,-0.011410665698349478
4.2234392166137695,-1.3877621889114382,9.59166145324707,-0.0021131415851414204,-0.013146894983947279,-0.00985658820718527
4.220022201538086,-1.3859604597091677,9.610353469848633,-0.003467773320153356,-0.011798162013292313,-0.011975782923400404
4.21247673034668,-1.3865082263946533,9.587556838989258,0.0005032554618082942,-0.015478783287107946,-0.011714160442352295
4.208325862884522,-1.367927074432373,9.626850128173828,-0.0032037838827818636,-0.013524342328310013,-0.011350794695317747
4.219283103942871,-1.3864295482635498,9.626787185668945,-0.003417522180825472,-0.015877684578299526,-0.011082774959504606
4.1951966285705575,-1.381777048110962,9.587272644042969,-0.00259265978820622,-0.014673376455903053,-0.011907772161066534
4.199105262756348,-1.3753678798675537,9.615757942199709,-0.0055694179609417915,-0.01885398104786873,-0.012487703002989294
4.165940761566163,-1.4183086156845095,9.609259605407717,-0.005688437726348639,-0.021748948842287064,-0.012980713509023191
4.149426460266113,-1.4462659358978271,9.592992782592773,-0.005967099685221911,-0.025941096246242523,-0.016019649803638458
4.182363510131836,-1.4223508834838867,9.611104011535646,-0.0058503574691712865,-0.02668047696352005,-0.020211732015013698
4.251625537872315,-1.3745830059051514,9.592470169067383,-0.0020194330718368296,-0.027334420010447506,-0.019064072519540787
4.273867130279542,-1.3071571588516238,9.615620613098146,-0.0038150930777192116,-0.025936080142855648,-0.017202600836753845
4.255239009857179,-1.364338278770447,9.582598686218263,-0.006883724592626095,-0.02355950884521008,-0.015069170854985716
4.228989601135254,-1.3237810134887695,9.595956802368164,-0.007617888040840626,-0.0243136789649725,-0.013956444337964058
4.226252079010011,-1.3789758682250977,9.590991973876953,-0.010782577097415924,-0.02588159590959549,-0.012976127676665785
4.230896472930909,-1.4169154167175293,9.616706848144531,-0.01262906286865473,-0.026436619460582733,-0.012446898035705091
4.2255449295043945,-1.4083386659622195,9.585577964782717,-0.010031723417341711,-0.025756455957889557,-0.012208202853798866
4.2760939598083505,-1.3687465190887451,9.634063720703125,-0.009553582407534124,-0.023199982941150665,-0.014311901293694975
4.283242702484132,-1.3697521686553955,9.605173110961914,-0.009298983961343765,-0.022503864020109177,-0.01191836502403021
4.248570919036866,-1.357915759086609,9.607194900512695,-0.007097229827195407,-0.019199665635824203,-0.011188576929271223
4.23096513748169,-1.4030487537384033,9.596026420593263,-0.00935722328722477,-0.019022112712264064,-0.010132881812751295
4.241582393646241,-1.4500975608825684,9.604218482971193,-0.008046182803809645,-0.01977435126900673,-0.010662860237061979
4.206733226776124,-1.4815375804901123,9.557912826538086,-0.001860190066508949,-0.01934350468218327,-0.01383291371166706
4.227610111236573,-1.4296245574951172,9.56633186340332,0.0015694296453148127,-0.017694694921374324,-0.016949068754911423
4.261147499084473,-1.3857088088989258,9.590729713439943,0.0013449375983327627,-0.017667500302195552,-0.017648672685027126
4.265765190124512,-1.3438133001327517,9.590875625610352,0.002450609346851707,-0.015742231160402298,-0.01611086539924145
4.24253797531128,-1.3673444986343386,9.608830451965334,0.00027296465123072267,-0.015474796295166016,-0.015222853980958463
4.228424549102784,-1.3898247480392458,9.589559555053711,-0.002439136384055019,-0.016835089772939682,-0.013884921558201315
4.211208343505859,-1.3891656398773193,9.60084342956543,-0.0030082531739026312,-0.017765667289495468,-0.014284299686551094
4.2627668380737305,-1.3813018798828125,9.625703811645508,-0.005347719416022301,-0.019618930295109752,-0.014372050762176514
4.248869419097901,-1.350488066673279,9.593844413757326,-0.004049540031701327,-0.02048035897314549,-0.015434077009558678
4.218320846557617,-1.3717302083969118,9.58758068084717,-0.005974094849079848,-0.021874282509088516,-0.01319809351116419
4.228976726531983,-1.3963638544082644,9.581208229064943,-0.009749729186296463,-0.0222566481679678,-0.013592316769063474
4.228093147277832,-1.4350749254226687,9.592214584350586,-0.0063877590000629425,-0.024483429268002514,-0.016019150614738464
4.258335113525391,-1.3976027965545654,9.579904556274414,-0.0068409531377255925,-0.02629397995769978,-0.016472361981868744
4.266057968139648,-1.3651252985000613,9.574859619140625,-0.005111716687679291,-0.023118061944842342,-0.015111180022358894
4.286950588226319,-1.4277215003967285,9.551523208618164,-0.003945461008697749,-0.02018510177731514,-0.01324504055082798
4.247250556945801,-1.3809709548950195,9.58566188812256,-0.0032381417695432906,-0.017911750823259354,-0.012921919114887716
4.272516250610352,-1.3669341802597048,9.603719711303711,-0.0026871671434491877,-0.01657429523766041,-0.012050332501530647
4.270402908325195,-1.322974443435669,9.588863372802734,-0.004580880515277386,-0.01507337484508753,-0.010602261871099472
4.26827335357666,-1.4007031917572021,9.601245880126953,-0.005483858287334442,-0.016293285414576534,-0.01012514438480139
4.244359016418457,-1.4413231611251833,9.58805561065674,-0.006363037507981063,-0.015436487272381783,-0.00903476867824793
4.2553467750549325,-1.4376511573791504,9.605056762695312,-0.0026301171164959673,-0.014491667039692404,-0.011619113385677338
4.279523849487305,-1.3862714767456055,9.571208000183107,-0.00196667667478323,-0.01399210747331381,-0.013213330879807472
4.274859905242921,-1.3533012866973877,9.561820030212404,-0.0038709060754626994,-0.012494532391428947,-0.012478336691856384
4.252567768096925,-1.3931326866149902,9.59261703491211,-0.0029036493506282572,-0.00983765535056591,-0.01038977410644293
4.245733261108398,-1.382795810699463,9.619743347167969,-0.0030955742113292217,-0.010763978585600853,-0.010186295025050642
4.234318733215332,-1.406141757965088,9.585983276367188,-0.005571051966398955,-0.013699634000658989,-0.008483470417559149
4.237441539764405,-1.420518755912781,9.616188049316406,-0.005697400774806739,-0.014985315501689911,-0.010481640696525574
4.247589588165284,-1.3861619234085085,9.592913627624513,-0.005110564175993205,-0.018865246325731277,-0.01016512978821993
4.233701705932617,-1.4352598190307617,9.599468231201172,-0.00530659081414342,-0.017882188782095913,-0.010801408439874649
4.255482196807862,-1.41481351852417,9.596391677856445,-0.0044308104552328595,-0.018369149416685104,-0.01297611650079489
4.272475242614746,-1.3759425878524782,9.587618827819826,-0.0011131913634017112,-0.01546570472419262,-0.016094017773866653
4.276071071624757,-1.3527947664260866,9.584168434143068,-0.0005521062412299217,-0.015088418498635292,-0.01286905910819769
4.284891128540039,-1.3731590509414675,9.577470779418945,-0.0024664029479026794,-0.01326294057071209,-0.011182936839759352
4.271565914154054,-1.3955734968185427,9.575994491577148,-0.0035481550730764866,-0.010317317210137846,-0.0099184550344944
4.243989944458008,-1.402320146560669,9.579604148864748,-0.0003973633865825832,-0.010365306399762632,-0.009337165392935278
4.276575565338136,-1.3780782222747803,9.603695869445803,-0.002420639386400581,-0.01086299680173397,-0.00793986674398184
4.237131118774414,-1.4204638004302979,9.536593437194826,-0.001982913119718433,-0.010709938593208792,-0.007869362831115723
4.253286838531495,-1.433688282966614,9.569205284118654,0.0009846077300608158,-0.008912322111427786,-0.009160647168755531
4.262535572052003,-1.422154188156128,9.575772285461428,0.004012284334748984,-0.0068955374881625175,-0.012150773778557777
4.253680229187012,-1.383348345756531,9.57032108306885,0.0035263232421129946,-0.009586725383996964,-0.011371462605893614
4.254843711853027,-1.4224187135696413,9.574984550476076,0.004101076629012824,-0.008944989182054998,-0.013115281239151955
4.267975807189941,-1.4045566320419314,9.584940910339357,0.004672340583056212,-0.009541643783450127,-0.013168078847229482
4.258920669555664,-1.3871382474899294,9.585836410522461,0.003688791068270803,-0.011228151619434357,-0.01097896695137024
4.271945953369141,-1.3800181150436404,9.623599052429201,0.0026599613483995204,-0.010815378278493881,-0.012102060951292517
4.260376930236816,-1.421236515045166,9.560794830322266,0.004472204949706794,-0.012029380537569525,-0.01227492094039917
4.23401689529419,-1.4431085586547852,9.56529426574707,0.004135900177061558,-0.010335414670407774,-0.012770863249897957
4.247171878814698,-1.4166133403778076,9.569495201110842,0.0073172179982066154,-0.011199754662811758,-0.01500822138041258
4.275745868682862,-1.3521579504013064,9.603102684020998,0.006607089657336474,-0.012702696025371552,-0.014501807279884817
4.252982616424561,-1.4017853736877441,9.583420753479006,0.0049402229487895966,-0.01074996031820774,-0.014307192526757719
4.247149944305421,-1.4152563810348513,9.620734214782717,0.005662514828145504,-0.01199000980705023,-0.015305379405617714
4.310357570648194,-1.3784331083297732,9.594146728515625,0.003581099212169647,-0.012383949942886831,-0.013684806413948538
4.270791053771973,-1.3814232349395752,9.60208511352539,0.0021688761189579964,-0.010391610674560072,-0.013239867985248566
4.259794712066651,-1.399055004119873,9.592708587646484,0.0017046795692294836,-0.010232765227556229,-0.012434226460754873
4.279371738433839,-1.3731393814086914,9.579472541809084,0.0013259634142741563,-0.010114619508385658,-0.01012826804071665
4.277716636657715,-1.3960204124450684,9.591506004333498,-0.000871886091772467,-0.010880066081881523,-0.011007621884346008
4.273136615753175,-1.4371528625488281,9.552654266357422,0.0024152447003871207,-0.009421704337000847,-0.010474671609699728
4.248717784881593,-1.438997507095337,9.551029205322266,0.006010167300701141,-0.0054953573271632195,-0.012188852764666082
4.256702423095703,-1.4214831590652468,9.546575546264648,0.00931444112211466,-0.006535066291689873,-0.014575676061213018
4.247545719146729,-1.3758444786071777,9.571399688720703,0.011560790240764618,-0.005636632908135653,-0.014747212640941145
4.249979496002198,-1.349139928817749,9.55779552459717,0.009310953319072723,-0.005766578484326602,-0.014059886336326599
4.271465778350831,-1.348530411720276,9.596014022827148,0.0057744719088077545,-0.006516716443002224,-0.013337469659745695
4.2300381660461435,-1.388709902763367,9.597205162048342,0.00352065428160131,-0.0073339128866791725,-0.013222553767263891
4.267903804779054,-1.361178517341614,9.576154708862305,0.0021407795138657093,-0.012193500064313413,-0.012874287553131582
4.240484237670898,-1.4163095951080322,9.573317527770998,0.0014164561871439219,-0.013875064440071585,-0.013171939179301262
4.25511360168457,-1.4030547142028809,9.580375671386719,0.003296098206192255,-0.012341180816292763,-0.013701436109840872
4.237323284149171,-1.4046946763992312,9.595070838928224,0.0027353686746209864,-0.012929489836096764,-0.015360052697360517
4.254933834075929,-1.3666609525680544,9.587982177734375,0.003960967529565097,-0.012723404914140701,-0.016268916428089142
4.26584529876709,-1.3872023820877077,9.570882797241211,0.002611445495858789,-0.011453017592430115,-0.013635869137942793
4.235903263092042,-1.4264515638351443,9.555226325988771,0.0030684126541018486,-0.011462917551398277,-0.015829613432288173
4.2603421211242685,-1.342583179473877,9.594764709472656,0.0023780986666679382,-0.013486887328326704,-0.016010195016860962
4.263803005218507,-1.4068320989608767,9.592151641845703,0.0012292375322431326,-0.014893944375216963,-0.015512715093791487
4.260951995849609,-1.4008681774139404,9.58535385131836,0.0018350726459175348,-0.014467096887528898,-0.01678231731057167
4.251677036285401,-1.374920725822449,9.599783897399904,-5.460177999339067e-05,-0.014474640600383283,-0.015523785725235939
4.294000625610352,-1.3777360916137695,9.603465080261232,-0.0017466486897319555,-0.016262890771031383,-0.013595512136816978
4.279038906097413,-1.3582959175109863,9.583666801452638,-0.000738166563678533,-0.01763489842414856,-0.012502487748861313
4.272654056549073,-1.371892333030701,9.572795867919922,-0.002453312044963241,-0.01630663126707077,-0.012467785738408567
4.257298946380616,-1.4092319011688232,9.590245246887209,-0.004822819493710995,-0.018377766013145447,-0.01027240324765444
4.243030071258546,-1.4488471746444704,9.571609497070312,-0.002503727795556188,-0.020242903381586075,-0.011391394771635534
4.232275009155273,-1.4034607410430908,9.557157516479492,0.0003136560844723136,-0.019526071846485138,-0.01376369222998619
4.265847206115723,-1.3454393148422243,9.581238746643068,-0.0015556184807792308,-0.021600674837827682,-0.01574688591063023
4.276322364807129,-1.3688602447509766,9.562350273132326,-0.002738690935075283,-0.020704414695501328,-0.013977297581732275
4.280246734619141,-1.424750804901123,9.591698646545412,-0.0019873941782861952,-0.019611552357673645,-0.01369100157171488
4.288337230682374,-1.4104388952255251,9.58113193511963,-0.0019088016124442222,-0.018030159175395966,-0.013599047437310219
4.27815866470337,-1.3951157331466677,9.560704231262209,0.0026854372117668395,-0.015033654868602753,-0.014408628456294538
4.279621124267578,-1.426697015762329,9.600022315979006,0.0037889804225414996,-0.01631850562989712,-0.016466379165649414
4.290046691894531,-1.3906484842300417,9.59081554412842,0.004398702178150416,-0.017938531935214996,-0.017504034563899044
4.249323368072511,-1.4264390468597412,9.569108963012695,0.004323445726186038,-0.01687737926840782,-0.017764735966920853
4.257798671722413,-1.4312604665756228,9.574661254882812,0.00851474329829216,-0.016701983287930492,-0.019020654261112213
4.292706966400147,-1.3899362087249756,9.562156677246094,0.007353020366281272,-0.016444129869341854,-0.019838858395814896
4.244852066040039,-1.3834071159362793,9.610061645507812,0.004903439898043872,-0.018060609698295593,-0.020720141008496288
4.277398109436035,-1.33529007434845,9.611316680908203,0.0007301386212930083,-0.01729422621428967,-0.019775802269577984
4.254946708679199,-1.3447946310043337,9.603304862976076,-0.004361385013908149,-0.022198855876922607,-0.015283609740436079
4.263820171356202,-1.3830604553222656,9.572652816772461,-0.0075668790377676496,-0.024550242349505428,-0.013174774125218391
4.227370262145996,-1.3828670978546143,9.574706077575685,-0.009616206400096418,-0.026956982910633087,-0.014443862251937391
4.2050843238830575,-1.4675849676132204,9.565270423889162,-0.008942135609686376,-0.03129176050424576,-0.01791255548596382
4.27739143371582,-1.4164395332336426,9.599161148071289,-0.00717597408220172,-0.03240055590867996,-0.020374337211251262
4.334684848785401,-1.3219406604766846,9.571487426757812,-0.010629420168697836,-0.03027126379311085,-0.018199216574430466
4.302224159240723,-1.3429752588272097,9.559587478637695,-0.012175935320556166,-0.027849599719047546,-0.017762118950486187
4.271696090698242,-1.3769371509552002,9.541860580444336,-0.010962362401187422,-0.026826512068510056,-0.014739330857992172
4.268220901489258,-1.3647632598876953,9.601860046386719,-0.014876448549330236,-0.03038039058446884,-0.01204719301313162
4.284936904907227,-1.4258484840393066,9.567760467529297,-0.012113356031477453,-0.03052577562630177,-0.012576259672641754
4.312740325927734,-1.4154864549636843,9.552923202514648,-0.010707904584705831,-0.030743680894374847,-0.014740862883627416
4.345319747924805,-1.3941881656646729,9.544668197631836,-0.010872747749090195,-0.02633263729512692,-0.011128970421850683
4.3516201972961435,-1.314108729362488,9.585391998291016,-0.00928899459540844,-0.020642915740609172,-0.009981507435441017
4.314839839935304,-1.2969942092895508,9.581287384033203,-0.011674156412482262,-0.016062136739492416,-0.0057712248526513585
4.28664493560791,-1.3683840036392214,9.579581260681154,-0.013340294361114502,-0.01484081055969,-0.0029281750321388245
4.272090435028077,-1.3895732164382937,9.588138580322266,-0.017322348430752758,-0.016477547585964203,-0.004198993556201458
4.28969430923462,-1.3702057600021365,9.607208251953125,-0.021882101893424988,-0.019637936726212505,-0.0037428569048643112
4.270038127899171,-1.4161405563354492,9.601579666137695,-0.025870235636830333,-0.02269740588963032,-0.0011388910934329033
4.305478096008301,-1.4654649496078493,9.56797504425049,-0.023809846490621567,-0.026226604357361797,-0.002058659680187702
4.293078422546387,-1.4070782661437988,9.539483070373537,-0.021574156358838085,-0.022883828729391098,-0.003845799248665571
4.303881645202637,-1.3857426643371582,9.54705810546875,-0.021650468930602077,-0.021082311868667603,-0.003637161804363132
4.308929920196534,-1.4207633733749392,9.564633369445803,-0.021078662946820263,-0.01969827897846699,-0.0009575537405908108
4.310344696044922,-1.4491389989852907,9.552893638610842,-0.018753306940197948,-0.01864425465464592,-0.0025838867295533423
4.309887886047363,-1.4519212245941162,9.564711570739748,-0.014206818304955961,-0.013910995796322823,-0.005103562958538532
4.360207080841065,-1.4418274164199831,9.529731750488281,-0.01162420865148306,-0.010441506281495094,-0.005079991649836303
4.337126255035401,-1.313205122947693,9.570790290832521,-0.010434824973344803,-0.005613524466753006,-0.003510996932163835
4.30442762374878,-1.3026911020278933,9.608161926269531,-0.01826682686805725,-0.0053008762188255796,0.00043161329813301563
4.260173797607422,-1.4398329257965088,9.603918075561523,-0.025031337514519695,-0.010927585884928703,0.0056982869282364845
4.2365264892578125,-1.4970333576202393,9.592996597290039,-0.02637341804802418,-0.016125239431858063,0.0031813948880881075
4.293926715850831,-1.4877318143844607,9.56259059906006,-0.02295590564608574,-0.02017151564359665,0.0025465695653110747
4.3036651611328125,-1.5082508325576784,9.53548812866211,-0.02275827713310719,-0.023410722613334656,-0.0014759394107386472
4.280839443206788,-1.4857804775238037,9.533471107482912,-0.01776121370494366,-0.02204645425081253,-0.0036362423561513424
4.316914081573487,-1.464886546134949,9.5538330078125,-0.01630488410592079,-0.018723843619227413,-0.0024882908910512924
4.332589626312257,-1.4566068649291992,9.550732612609865,-0.012644107453525068,-0.0178064126521349,-0.004860203713178635
4.353856563568116,-1.452414155006409,9.526364326477053,-0.009431495331227781,-0.014405092224478722,-0.00635166047140956
4.332632541656495,-1.4249799251556396,9.563583374023438,-0.00801977049559355,-0.010925697162747383,-0.006392284296452999
4.301241874694824,-1.4557156562805176,9.537891387939453,-0.004894628655165435,-0.00609963946044445,-0.0063118073157966146
4.295457363128663,-1.4539152383804324,9.572248458862305,-0.0029151570051908493,-0.007466986775398254,-0.006394949276000262
4.3280987739563,-1.426655411720276,9.562302589416506,-0.004133460577577353,-0.0046383971348404884,-0.005867030937224627
4.3136444091796875,-1.4373310804367068,9.555166244506836,-0.00471341609954834,-0.003974434453994037,-0.0066972323693335065
4.3333892822265625,-1.4088060855865479,9.578964233398438,-0.005033360794186592,-0.00416823709383607,-0.005515722557902336
4.297909736633301,-1.403529405593872,9.570432662963867,-0.00905450712889433,-0.005414762999862433,-0.0026430469006299973
4.312419414520265,-1.4417375326156618,9.573068618774414,-0.00996897742152214,-0.0075741405598819265,-0.0024615894071757793
4.309782981872559,-1.4502199888229372,9.579187393188477,-0.010378699749708176,-0.008092147298157217,-0.002734440146014095
4.283302307128906,-1.500312089920044,9.565235137939453,-0.009434279054403305,-0.009321807883679869,-0.004307999275624752
4.287846088409425,-1.4818974733352663,9.567403793334961,-0.007688409183174373,-0.015009948052465917,-0.006386455148458481
4.308300971984863,-1.4743901491165163,9.554168701171875,-0.0051437155343592176,-0.012708466500043869,-0.009213141165673734
4.32680606842041,-1.4478847980499268,9.535360336303711,-0.00123851397074759,-0.010459876619279386,-0.008170994929969312
4.302442073822022,-1.4485603570938113,9.562600135803224,0.0019643097184598446,-0.007859661243855955,-0.01057218573987484
4.316971302032472,-1.4210188388824463,9.559472084045412,-0.00013347534695640206,-0.008540218695998192,-0.00883848872035742
4.284471988677979,-1.4723784923553467,9.592622756958008,7.550277223344892e-05,-0.006722376216202975,-0.008766476064920425
4.264664649963379,-1.451818346977234,9.592559814453125,-0.0018694126047194004,-0.009605919010937216,-0.010040822438895704
4.290067672729492,-1.4823486804962158,9.596652030944826,-0.001556264003738761,-0.012689004652202131,-0.009510310366749763
4.289032936096191,-1.5064457654953005,9.559110641479492,-8.716223237570375e-05,-0.014654019847512245,-0.011874136514961721
4.308182239532472,-1.4661741256713867,9.573257446289062,0.0018006078898906708,-0.012679680250585081,-0.013209382072091103
4.304708480834961,-1.4213063716888428,9.539966583251953,0.0018401604611426592,-0.014311495237052442,-0.012870696373283865
4.280584335327148,-1.4782795906066895,9.536521911621094,0.0010896018939092757,-0.014573691412806511,-0.013045412488281729
4.291176795959473,-1.4524433612823486,9.570123672485352,-0.0004482311487663538,-0.016645027324557308,-0.012388033792376518
4.277528762817383,-1.5057799816131592,9.572041511535646,-0.0002974867238663137,-0.017467992380261425,-0.013105025514960289
4.304882526397706,-1.4776040315628054,9.526907920837404,0.003724808804690838,-0.015172784216701986,-0.01578023843467236
4.299590587615968,-1.4061450958251953,9.561299324035646,0.0022964656818658118,-0.015531005337834358,-0.014146107248961927
4.32403564453125,-1.4224019050598145,9.568702697753906,0.0002747580583672971,-0.015442290343344213,-0.011774720624089241
4.325517654418945,-1.4358938932418825,9.570221900939943,0.000924435444176197,-0.015446468256413938,-0.011893808841705322
4.322075843811035,-1.4383695125579834,9.562231063842773,-0.0006288231234066189,-0.013136554509401321,-0.010199068114161491
4.298878192901612,-1.4584037065505984,9.571272850036623,-0.00101126404479146,-0.013125524856150152,-0.010262547060847282
4.2955217361450195,-1.5126785039901736,9.548550605773928,0.0029797593597322707,-0.013404612429440023,-0.011574452742934227
4.287055492401124,-1.5314062833786013,9.549702644348146,0.0071603721007704735,-0.011266964487731458,-0.014447519555687904
4.334708690643311,-1.4887471199035645,9.545926094055178,0.011305891908705236,-0.009368356317281723,-0.018032964318990707
4.31111764907837,-1.3812884092330935,9.55366325378418,0.012318486347794533,-0.007270982023328544,-0.017592191696166992
4.291472434997559,-1.4359196424484255,9.54823398590088,0.009925329126417639,-0.005966713186353446,-0.01447279006242752
4.286509037017823,-1.446951150894165,9.560830116271974,0.00722857192158699,-0.008204850368201734,-0.013831101357936859
4.28297233581543,-1.427546739578247,9.584922790527344,0.006335157435387374,-0.01110377348959446,-0.014311803504824638
4.284070014953613,-1.4401479959487917,9.560547828674318,0.002761880401521921,-0.012596593238413336,-0.013724632561206818
4.276736736297608,-1.5139436721801758,9.548319816589357,0.003453634213656187,-0.015818405896425247,-0.013499966822564604
4.283129692077637,-1.5084782838821413,9.553775787353516,0.00796682480722666,-0.01713521033525467,-0.019011678174138073
4.32119083404541,-1.4537324905395508,9.53703498840332,0.008801686577498915,-0.014833791181445122,-0.02011946216225624
4.357634067535401,-1.4203953742980957,9.535367965698242,0.010905833914875984,-0.01123726833611727,-0.019594255834817886
4.348798751831055,-1.3914397954940798,9.575242042541506,0.010087355040013792,-0.009184348396956922,-0.017871297895908356
4.31256914138794,-1.430146098136902,9.580435752868654,0.007286553271114826,-0.010101643390953543,-0.01508837379515171
4.306086063385011,-1.417356014251709,9.541270256042482,0.0069855013862252235,-0.013278835453093054,-0.014807931147515776
4.295429706573487,-1.4504626989364626,9.552459716796875,0.005544707644730807,-0.01331263780593872,-0.014151836745440962
4.311971664428711,-1.4122087955474854,9.57991123199463,0.004987461492419243,-0.01469329558312893,-0.0143859526142478
4.3010406494140625,-1.4261064529418945,9.547016143798828,0.0025843982584774494,-0.01622392423450947,-0.013255055993795395
4.29395866394043,-1.5056779384613037,9.566836357116701,0.003955650608986617,-0.015968941152095795,-0.014333590865135193
4.339185237884522,-1.4155613183975222,9.573086738586428,0.004288952797651291,-0.01492088381201029,-0.016525384038686752
4.355309963226319,-1.4015074968338015,9.549276351928711,0.005195615347474814,-0.012240680865943434,-0.014299163594841957
4.301424026489258,-1.4239108562469482,9.514080047607422,0.003323827171698213,-0.011149842292070389,-0.012630158104002477
4.2979140281677255,-1.4372717142105105,9.533353805541992,0.0043528033420443535,-0.01320242788642645,-0.014223777689039709
4.309093952178956,-1.467374324798584,9.555902481079102,0.004864271264523269,-0.012646902352571487,-0.014845306985080244
4.3042144775390625,-1.447872042655945,9.514463424682617,0.0060182856395840645,-0.010608471930027008,-0.015103378333151342
4.308048248291016,-1.3760075569152832,9.57856559753418,0.004569305572658778,-0.012469066306948662,-0.014092166908085348
4.310754299163819,-1.4283119440078738,9.595669746398928,0.0015123873017728329,-0.011069796048104765,-0.012267752550542356
4.288891315460206,-1.474854111671448,9.572408676147461,0.002802029019221664,-0.013908063992857933,-0.012731143273413183
4.311497688293457,-1.4243446588516238,9.589917182922365,0.000760984083171934,-0.015784824267029766,-0.013828104361891747
4.320592403411866,-1.3944931030273438,9.585087776184084,0.0011924494756385686,-0.016669347882270813,-0.013455421663820745
4.309956073760987,-1.4106414318084717,9.544916152954102,-0.0005015062051825226,-0.013850810006260872,-0.012462301179766655
4.29055118560791,-1.442284345626831,9.557401657104492,0.0011212994577363136,-0.015229813754558563,-0.011682110838592054
4.321106433868409,-1.452736020088196,9.540619850158693,0.0014192918315529823,-0.016045235097408295,-0.01269411947578192
4.329680442810059,-1.3905282020568848,9.556175231933594,0.0021585563663393263,-0.01349918358027935,-0.012805077247321607
4.314409255981445,-1.4092587232589724,9.580352783203125,0.00011004559928551316,-0.01294344011694193,-0.010842933319509031
4.333573818206788,-1.450510621070862,9.554827690124513,-0.0001472898875363171,-0.011279883794486524,-0.00958620198071003
4.288006305694581,-1.4834357500076296,9.538287162780763,0.003777129808440805,-0.01311259809881449,-0.014484990388154984
4.352150440216065,-1.4533380270004275,9.57266616821289,0.006565268617123366,-0.011683307588100433,-0.015177949331700804
4.359514713287354,-1.3917299509048464,9.557746887207031,0.005951686296612025,-0.006928326562047005,-0.012952979654073715
4.336664199829102,-1.427403450012207,9.527028083801271,0.007252571173012257,-0.004782873671501876,-0.01147257536649704
4.302396774291992,-1.433635950088501,9.537965774536133,0.007466900628060103,-0.0034160844516009097,-0.011934928596019745
4.2832536697387695,-1.4233505725860596,9.564721107482912,0.006359334569424392,-0.006003376096487045,-0.014631115831434728
4.284779071807862,-1.4183976650238037,9.570451736450195,0.0027130495291203265,-0.009783253073692322,-0.011496096849441528
4.303974151611328,-1.4280211925506592,9.560503959655763,0.0035962767433375124,-0.011737868189811707,-0.014137561433017256
4.312961101531983,-1.463517665863037,9.567558288574219,0.004601570777595043,-0.012451138347387314,-0.014267680235207083
4.346571922302246,-1.405128359794617,9.55684566497803,0.0034673719201236968,-0.011636452749371529,-0.015759976580739025
4.3409790992736825,-1.4025145769119265,9.520278930664062,0.0047767604701221,-0.01116836816072464,-0.01394716091454029
4.356401443481445,-1.40631103515625,9.536844253540039,0.005103217903524638,-0.007651075720787048,-0.012171865440905096
4.3554959297180185,-1.4124960899353027,9.536477088928224,0.006734922993928195,-0.005165710579603911,-0.01196284219622612
4.322771072387695,-1.4373764991760254,9.538117408752443,0.007504700683057308,-0.0027754690963774924,-0.011254895478487015
4.314791202545167,-1.4434969425201416,9.550784111022951,0.006885808892548084,-0.0031735568773001437,-0.012299566529691221
4.303215503692628,-1.441383481025696,9.543817520141602,0.009785527363419533,-0.0020410215947777037,-0.011080913245677948
4.299106597900391,-1.3872221708297732,9.575162887573242,0.008646569214761259,-0.003324676072224975,-0.011860011145472527
4.295398712158203,-1.390021562576294,9.568596839904787,0.006925841793417931,-0.0044637476094067105,-0.012011537328362465
4.300250053405762,-1.4550144672393799,9.581689834594727,0.007167870644479991,-0.005856680683791637,-0.012933904305100441
4.291481018066406,-1.4564692974090576,9.583440780639648,0.008448199369013311,-0.006963081657886505,-0.014162131585180761
4.316262722015382,-1.375101089477539,9.556023597717287,0.007338297087699176,-0.006106544751673938,-0.012795999646186829
4.324893951416016,-1.3719663619995117,9.57674789428711,0.0027952464297413826,-0.0041361753828823575,-0.011037060990929604
4.313180923461914,-1.4386200904846191,9.57496452331543,0.002041782718151808,-0.006278917659074069,-0.010275104083120825
4.279356002807617,-1.4848968982696533,9.540093421936037,0.005717460997402668,-0.005569478031247855,-0.012815184891223907
4.331738471984863,-1.4328069686889648,9.541510581970217,0.014678620733320715,-0.0016098284395411613,-0.015070302411913872
4.350684642791749,-1.4397966861724854,9.530223846435547,0.022066019475460052,0.0031414453405886893,-0.016965214163064957
4.310986042022706,-1.4515485763549805,9.526712417602539,0.027381895110011104,0.008478755131363869,-0.017658162862062454
4.294977188110352,-1.3503940105438232,9.554189682006836,0.02260507643222809,0.007783661130815745,-0.01961931213736534
4.296205520629883,-1.3790817260742188,9.610981941223146,0.017338944599032406,0.005357992369681598,-0.015726372599601746
4.266735076904297,-1.455831527709961,9.572299003601076,0.014848253689706327,0.0014752191491425037,-0.014431006275117399
4.287834644317628,-1.3835463523864746,9.553132057189943,0.015592989511787893,-0.0013075775932520628,-0.015797801315784454
4.306164741516113,-1.339391589164734,9.596490859985352,0.012620214372873306,-0.003788873320445419,-0.014461826533079147
4.270750522613526,-1.3770810365676882,9.560375213623047,0.007147875614464283,-0.006588027812540531,-0.012964916415512564
4.267068862915039,-1.359953045845032,9.573776245117188,0.004481934942305088,-0.009463238529860975,-0.010313794016838074
4.268610000610352,-1.4165183305740359,9.580485343933107,-0.0014355456223711374,-0.01162436231970787,-0.009827734902501106
4.296590328216554,-1.4276316165924072,9.54421615600586,-0.001958469627425075,-0.011059323325753212,-0.011626933701336386
4.296051502227784,-1.4961347579956055,9.529546737670898,0.0067762802354991445,-0.008728952147066595,-0.015899647027254105
4.318860054016113,-1.497513771057129,9.522432327270508,0.018027937039732937,-0.006236555986106396,-0.02094824425876141
4.3124847412109375,-1.4390763044357302,9.515159606933594,0.02089655958116055,-0.0038550361059606075,-0.02236868068575859
4.300690174102784,-1.3578909635543825,9.578555107116701,0.021375469863414764,-0.0008657759171910585,-0.021616414189338684
4.2913174629211435,-1.3899431228637695,9.567716598510742,0.018226247280836105,0.0012440215796232224,-0.02032810635864735
4.280317306518555,-1.3512855768203738,9.612038612365724,0.01286436151713133,-0.003315994516015053,-0.01738637872040272
4.310092926025391,-1.349036693572998,9.606993675231935,0.005485750734806061,-0.004730810876935721,-0.015256875194609167
4.289613723754883,-1.2825920581817627,9.598703384399414,0.00189491652417928,-0.007847001776099205,-0.013655149377882482
4.306931018829347,-1.261690378189087,9.59752082824707,-0.0075069610029459,-0.01005258597433567,-0.006629554089158774
4.254596710205078,-1.3720190525054932,9.629398345947266,-0.01141872350126505,-0.012756070122122765,-0.0030372475739568476
4.287416458129883,-1.3780797719955447,9.572988510131836,-0.01743100956082344,-0.016520174220204357,-0.0013749097706750037
4.29299020767212,-1.2776622772216797,9.602173805236818,-0.02493467926979065,-0.018856367096304897,0.00182506931014359
4.295855522155762,-1.4067671298980713,9.55960464477539,-0.02974818088114262,-0.020308593288064006,0.006012354977428913
4.307268142700195,-1.4094415903091433,9.56221103668213,-0.03000456839799881,-0.01598221249878407,0.002801579888910055
4.309350967407227,-1.3006895780563357,9.579899787902834,-0.03598622977733612,-0.015180173330008985,0.0060159298591315755
4.281744003295898,-1.3917833566665652,9.563874244689943,-0.04203183576464654,-0.014925960451364517,0.012018431909382345
4.297808647155762,-1.459447741508484,9.556725502014162,-0.04360101744532586,-0.016736147925257686,0.012607624754309654
4.287914276123047,-1.4037079811096191,9.53760623931885,-0.046019501984119415,-0.017329046502709392,0.011660246178507805
4.268592834472656,-1.5611475706100466,9.510071754455568,-0.035049475729465485,-0.018411388620734218,0.0073982332833111295
4.295497894287109,-1.6141505241394043,9.522963523864748,-0.012793921865522863,-0.018867965787649155,-0.004022124689072371
4.2971158027648935,-1.5878822803497314,9.513406753540039,0.0122452974319458,-0.013844877481460571,-0.014540470205247404
4.268843650817871,-1.5753679275512695,9.521535873413086,0.037620723247528076,-0.008328233845531942,-0.029539600014686584
4.241541385650636,-1.6388874053955078,9.548237800598146,0.06296703219413757,-0.007082495372742415,-0.04226562753319741
4.2497406005859375,-1.614216446876526,9.560498237609865,0.0795200914144516,-0.006253492552787066,-0.053675577044487
4.277298450469972,-1.6347209215164187,9.527381896972656,0.10313019901514055,-0.004894992802292109,-0.0649023950099945
4.182302474975586,-1.8221888542175293,9.526764869689943,0.14815913140773776,-0.0024793636985123158,-0.08588465303182603
4.195219039916992,-1.88322389125824,9.582911491394045,0.17472714185714722,-0.0030084426980465655,-0.10406311601400377
4.264219284057617,-1.4852800369262695,9.60096836090088,0.1808532923460007,-0.002202367875725031,-0.11403351277112962
4.321662902832031,-1.234717607498169,9.593934059143068,0.1676810830831528,-0.0004163652483839542,-0.10776196420192719
4.296773433685304,-1.2079626321792605,9.621220588684084,0.1493084728717804,-0.0033113167155534033,-0.09874419867992401
4.268360614776612,-1.076340913772583,9.60758686065674,0.13022299110889438,-0.012601548805832863,-0.0933537632226944
4.285122871398926,-1.023606300354004,9.638098716735842,0.09960000962018968,-0.02394646406173706,-0.08022887259721757
4.265542984008789,-1.0757734775543213,9.636153221130373,0.07994775474071503,-0.03459755331277847,-0.0698572024703026
4.342583656311035,-0.9848458766937256,9.647170066833498,0.05306855216622353,-0.04570993036031723,-0.061571497470140464
4.311572551727296,-0.9815146923065186,9.666263580322266,0.027711261063814163,-0.055802460759878166,-0.050197694450616843
4.306927204132081,-1.0192791223526003,9.63680648803711,0.0026462841778993607,-0.06688908487558366,-0.03769470751285553
4.2989654541015625,-1.015366554260254,9.658258438110352,-0.01767395250499249,-0.07564548403024675,-0.028652235865592957
4.310465335845948,-1.1128236055374148,9.632511138916016,-0.03384961187839508,-0.08471287041902544,-0.021292805671691895
4.336562156677246,-1.2491980791091921,9.558688163757326,-0.04323577880859375,-0.09453659504652025,-0.01682948134839535
4.407733917236328,-1.1245752573013308,9.567527770996094,-0.046699896454811096,-0.09314823895692827,-0.013659169897437096
4.408481597900391,-1.2593609094619753,9.498357772827148,-0.041578881442546844,-0.0859733372926712,-0.006758215371519328
4.3991360664367685,-1.400349020957947,9.507898330688477,-0.03215695917606354,-0.07661468535661699,-0.009953415021300316
4.436369895935059,-1.3730231523513796,9.495203971862795,-0.021997123956680298,-0.07058762758970262,-0.013178211636841299
4.4199371337890625,-1.383211970329285,9.515744209289553,-0.011436767876148224,-0.05951910838484765,-0.013661367818713188
4.366891860961914,-1.3944641351699831,9.499502182006836,-0.002941402373835445,-0.051547411829233176,-0.01909022405743599
4.367794036865234,-1.4088175296783447,9.551833152770998,0.005640802439302207,-0.051348090171813965,-0.023967491462826732
4.2851104736328125,-1.4563615322113037,9.503926277160646,0.016949696466326717,-0.054127007722854614,-0.02868744358420372
4.293622493743897,-1.4104775190353396,9.57466793060303,0.028330091387033463,-0.06163203343749047,-0.038129277527332306
4.385769844055176,-1.2949531078338623,9.553263664245607,0.030811656266450882,-0.068697988986969,-0.0434081219136715
4.383539199829102,-1.2435952425003054,9.552164077758789,0.03100012242794037,-0.0740884616971016,-0.04301995038986206
4.416442394256593,-1.164629101753235,9.537662506103516,0.023349674418568615,-0.07731020450592041,-0.041311316192150116
4.406257152557374,-1.212477684020996,9.557265281677248,0.01752426661550999,-0.07798737287521362,-0.03596306219696999
4.441144943237305,-1.2431079149246218,9.537487983703615,0.01709249056875706,-0.07960548251867296,-0.033888570964336395
4.459621429443359,-1.2290987968444824,9.525793075561523,0.013186655938625336,-0.07398275285959245,-0.030129924416542053
4.547163009643555,-1.1099450588226318,9.48756217956543,0.00612780824303627,-0.06877202540636064,-0.021690709516406063
4.575871467590332,-1.0294417142868044,9.44804096221924,-0.005254948977380992,-0.05417466163635254,-0.013327688910067083
4.523831367492676,-1.1048349142074587,9.451017379760742,-0.01691435091197491,-0.03871037438511849,-0.0019974755123257637
4.49124813079834,-1.226377010345459,9.470470428466797,-0.019563838839530945,-0.026599844917654995,0.0029139602556824684
4.499790191650391,-1.2961153984069824,9.444569587707521,-0.019502816721796993,-0.019346509128808975,0.004813025705516338
4.377068042755128,-1.4352078437805176,9.448503494262695,-0.006189445964992046,-0.012917279265820982,0.0014299568720161915
4.4067444801330575,-1.404670834541321,9.500740051269531,0.00872584618628025,-0.015600787475705147,-0.005558120552450419
4.424734115600586,-1.4115968942642214,9.476226806640625,0.015702301636338237,-0.013155659660696983,-0.011219815351068975
4.436769962310792,-1.3465676307678223,9.438544273376467,0.02058096416294575,-0.011508172377943993,-0.016939282417297363
4.482525348663331,-1.1618789434432986,9.514061927795412,0.021600965410470963,-0.006211918313056231,-0.018366601318120956
4.496053218841554,-1.2022042274475098,9.511592864990234,0.017161719501018524,0.0008416920900344849,-0.014693691395223142
4.476464748382569,-1.167636036872864,9.488953590393068,0.013592196628451347,0.0064175580628216275,-0.009841715916991234
4.495273113250733,-1.0988851785659792,9.526424407958984,0.005779051687568427,0.008499210700392723,-0.003966004587709904
4.463929176330566,-1.2081854343414307,9.553812980651857,-0.0015365242725238206,0.011308697983622551,0.0011800293577834966
4.462610721588136,-1.183155655860901,9.512400627136232,-0.007365585304796696,0.01542646437883377,0.005356577690690757
4.427890300750733,-1.1220200061798096,9.510326385498047,-0.022960487753152847,0.019678561016917232,0.012653516605496407
4.539198398590089,-1.0303688049316406,9.46315670013428,-0.04238834604620934,0.025132298469543457,0.022469989955425262
4.51621961593628,-0.9769205451011659,9.441200256347656,-0.06939563155174255,0.037700112909078605,0.03464031219482422
4.513999462127686,-1.1455479860305788,9.4140100479126,-0.08152488619089128,0.05103667452931405,0.04850810766220093
4.529494285583496,-1.3823996782302859,9.386109352111818,-0.07800590991973877,0.07298044115304948,0.05205826461315155
4.461481094360352,-1.4111125469207764,9.4083948135376,-0.07042112201452257,0.09330379962921143,0.04872278869152069
4.462253570556641,-1.28599750995636,9.510441780090334,-0.06717134267091752,0.10541988909244537,0.05054831132292748
4.325220584869386,-1.5598466396331787,9.488191604614258,-0.05988959223031998,0.11078953742980957,0.04877395555377007
4.376377105712891,-1.3472886085510254,9.504698753356935,-0.04947538673877716,0.11080285161733629,0.039255499839782715
4.410719871520996,-1.190028429031372,9.56428337097168,-0.04721415787935257,0.11933100968599321,0.0406499095261097
4.425773143768311,-1.324617624282837,9.472606658935547,-0.0422804057598114,0.13051666319370273,0.04502122849225998
4.390106678009034,-1.3817998170852663,9.47757339477539,-0.028379354625940323,0.14462462067604065,0.04302331432700158
4.218307971954347,-1.3355712890625,9.625846862792969,-0.019740331918001175,0.14168851077556613,0.041354693472385406
4.154682636260987,-1.4138478040695193,9.752613067626953,-0.018812241032719616,0.11839266121387482,0.03793724626302719
4.157517910003663,-1.3949785232543945,9.772165298461914,-0.01639721170067787,0.09148743003606798,0.03102460876107216
4.2165894508361825,-1.272369384765625,9.763096809387209,-0.021871548146009445,0.06861478090286255,0.03167520835995675
4.286977767944336,-1.2900408506393435,9.767859458923342,-0.028005084022879604,0.05617603659629822,0.032770309597253806
4.150657653808594,-1.387706995010376,9.66295051574707,-0.037019547075033195,0.036634527146816254,0.03466976433992386
4.084064006805421,-1.448218822479248,9.718114852905273,-0.04488430172204971,0.014297566376626493,0.027195949107408524
4.206615447998047,-1.428826689720154,9.678789138793945,-0.04823505878448486,-0.0040498655289411545,0.022534223273396495
4.239330768585206,-1.4922363758087158,9.59161376953125,-0.04885153844952584,-0.006911322474479675,0.021330939605832103
4.231937408447266,-1.5979640483856201,9.58815097808838,-0.03643730655312539,-0.009516682475805283,0.013691581785678864
4.309019565582276,-1.5150504112243652,9.579140663146974,-0.02399559132754803,-0.004426048137247562,0.008772288449108602
4.3038392066955575,-1.4686102867126465,9.578248977661133,-0.01565966568887234,0.002411984605714679,0.006983268074691296
4.3704681396484375,-1.430586814880371,9.586313247680664,-0.010698446072638037,0.010292138904333115,0.00700222933664918
4.446138381958008,-1.263345718383789,9.609280586242678,-0.00829741545021534,0.022819025442004207,0.010116758756339552
4.50191593170166,-1.1999951601028445,9.607916831970217,-0.015264651738107206,0.0356278121471405,0.022266583517193798
4.248425006866456,-1.3688184022903445,9.394032478332521,-0.02151266112923622,0.05210241675376892,0.02921582199633122
3.7610220909118652,-1.7339208126068115,9.521342277526857,-0.012263066135346891,0.04101644456386566,0.014723525382578375
4.007290840148926,-1.420837998390198,9.723440170288086,-0.01663208939135075,0.01344984956085682,-0.004561987705528736
4.0848145484924325,-1.3725879192352295,9.637539863586428,-0.026246318593621257,-0.0064194658771157265,-0.004428753163665534
4.114348888397218,-1.3676007986068728,9.716963768005373,-0.03742162883281708,-0.028745584189891815,-0.0034122059587389235
4.189753055572511,-1.2758666276931765,9.685793876647951,-0.04239361733198166,-0.03732080385088921,-0.0029258746653795242
4.118041515350343,-1.3393882513046267,9.609395980834961,-0.047165676951408386,-0.048130970448255546,-0.0009729030425660313
4.107455253601074,-1.4692556858062744,9.725797653198242,-0.047314848750829704,-0.06397901475429535,-0.0053830365650355825
4.180078029632569,-1.5104587078094482,9.67526149749756,-0.043277986347675323,-0.07983934879302979,-0.011386587284505369
4.220095157623292,-1.4608191251754763,9.5821533203125,-0.04450949281454086,-0.09081896394491197,-0.01193053275346756
4.186277389526367,-1.4508470296859743,9.60061550140381,-0.048614073544740684,-0.0998862087726593,-0.012992365285754204
4.20104742050171,-1.658255219459534,9.485100746154787,-0.02872426062822342,-0.10050543397665025,-0.022365596145391464
4.05391788482666,-1.8397260904312136,9.384956359863281,0.011391571722924711,-0.09947855025529863,-0.047121062874794006
4.177397251129151,-1.674577236175537,9.497932434082031,0.034128759056329734,-0.10817551612854004,-0.0627655014395714
4.007073402404785,-1.802022933959961,9.380687713623047,0.07078307121992113,-0.11776526272296906,-0.09150707721710205
3.8904237747192383,-1.6953901052474978,9.646950721740724,0.09134935587644578,-0.1484668254852295,-0.12139187008142473
4.057092666625977,-1.3077193498611452,9.869638442993164,0.08109078556299211,-0.19493760168552401,-0.13527676463127136
4.045094013214112,-1.2731339931488037,9.745454788208008,0.06963419914245605,-0.2404490560293198,-0.13886630535125732
4.106241703033448,-1.149795174598694,9.747326850891115,0.046746812760829926,-0.29050996899604803,-0.1455388516187668
4.296887397766113,-0.8974126577377319,9.85157108306885,0.019236126914620403,-0.3427436947822571,-0.13853661715984347
4.290022850036621,-0.992742955684662,9.755716323852539,-0.010922931134700775,-0.3910919427871704,-0.1251763850450516
4.0670132637023935,-0.8546670079231263,9.876060485839844,-0.038027908653020866,-0.4608795642852783,-0.11873585730791093
4.052388668060304,-1.001096844673157,9.989814758300781,-0.07217281311750413,-0.5543020963668823,-0.10893286764621735
3.918545484542847,-1.5182569026947021,9.696669578552248,-0.059060480445623405,-0.6590561866760254,-0.09825824946165086
3.69137978553772,-1.72491729259491,9.641676902770998,-0.03189525008201599,-0.7745169401168823,-0.11798862367868425
3.920759677886963,-1.5839745998382568,9.785628318786623,-0.00222278549335897,-0.9134335517883301,-0.14288122951984408
4.298879146575929,-1.2217447757720947,9.704631805419922,-0.00393440155312419,-1.0313234329223633,-0.14210057258605957
4.242620468139648,-1.4285345077514648,9.52103042602539,-0.007151412777602673,-1.1310437917709353,-0.15532571077346802
4.19873046875,-1.3000037670135498,9.77262592315674,-0.01387233752757311,-1.2478379011154177,-0.17781975865364075
4.266279697418214,-1.031644344329834,10.01766872406006,-0.022387107834219936,-1.4088752269744873,-0.17819063365459445
4.246962070465089,-1.035682797431946,10.031302452087404,-0.0518726371228695,-1.5988516807556152,-0.1908937394618988
4.322263717651367,-1.0378497838974001,10.226246833801271,-0.06847780197858812,-1.788111925125122,-0.21698348224163058
4.316911697387695,-1.417241930961609,10.098835945129396,-0.08045366406440735,-2.015453815460205,-0.24899868667125705
4.369098186492921,-1.5511736869812012,9.85853672027588,-0.08977600187063219,-2.251816749572754,-0.2840581834316254
4.382534980773926,-1.421838164329529,9.845808982849123,-0.09998635947704315,-2.5304090976715092,-0.34407529234886175
4.567747116088867,-1.171966552734375,9.669322967529297,-0.09012895077466966,-2.861726760864258,-0.4172057211399079
4.621429920196534,-1.0753315687179568,9.655663490295412,-0.03332110494375229,-3.3039164543151855,-0.4736399948596955
4.621963024139405,-1.55461323261261,9.20189094543457,0.05997711420059204,-3.8571965694427495,-0.517015814781189
5.627428531646729,-1.8352402448654177,9.483416557312013,0.16887845098972323,-4.451990127563477,-0.5629382133483887
6.764514923095703,-2.136706113815308,9.727998733520508,0.23209241032600403,-4.972520351409913,-0.5354828834533691
8.601099014282227,-1.270079016685486,10.934310913085938,0.17304512858390808,-5.283188819885254,-0.48795965313911444
10.78778076171875,-1.6821681261062624,12.485632896423342,0.04660534858703613,-5.225944995880128,-0.41532307863235474
13.00230598449707,-4.502882957458496,12.982222557067873,0.1698068827390671,-5.075030326843262,-0.36584120988845825
15.580172538757326,-5.1032915115356445,14.019335746765138,0.4603868424892426,-4.759152412414551,-0.4865535199642182
21.747379302978516,-3.6602966785430913,12.681129455566406,0.46202701330184937,-4.437630653381348,-0.6269696354866029
28.401939392089844,-5.266286849975586,7.118571758270265,0.36624196171760565,-4.202527046203613,-0.848746955394745
31.105907440185547,-9.45976448059082,2.795944452285767,0.9314053654670716,-3.9923744201660156,-1.1299288272857666
31.423971176147464,-8.99730110168457,1.2200088500976562,2.056541204452515,-4.161670684814453,-1.2735453844070437
31.31768035888672,-5.937462329864503,0.2460118532180786,2.874356031417847,-4.219913005828858,-1.010629415512085
42.844642639160156,0.0025016069412231445,9.40220355987549,2.063976287841797,-4.15973997116089,-0.5306706428527832
39.050865173339844,-1.5015411376953125,17.585350036621094,0.7275765538215638,-2.6990814208984375,-0.12940460443496704
29.108596801757812,-1.145895004272461,14.662037849426271,-0.5294712185859681,-1.7077579498291016,0.18993560969829562
24.04529571533203,-2.53010892868042,13.702713012695312,-1.4033311605453493,-1.138327479362488,0.2709658741950989
16.647140502929688,-4.736916542053223,10.981359481811523,-1.6993482112884521,-0.9622055888175965,0.16024360060691833
12.656959533691406,-6.7864747047424325,10.214849472045898,-1.3158409595489502,-1.0851603746414187,-0.1456898003816605
10.491202354431154,-6.906771659851074,11.066900253295898,-0.5462735295295716,-1.1360604763031006,-0.4629452526569367
9.526757240295412,-5.518037796020508,12.9962158203125,0.13807360827922824,-0.8933686614036561,-0.6123931407928467
8.246018409729006,-3.570197582244873,14.42894172668457,0.5031290650367738,-0.2721368670463562,-0.6053448319435121
5.317373275756836,-2.003711700439453,14.35255527496338,0.5885441303253174,0.5863999724388124,-0.5649271607398988
0.12539489567279818,-0.8561121821403505,11.420781135559084,0.5652334094047547,1.3786890506744385,-0.550436556339264
-4.842629909515382,-0.5568012595176698,7.4161438941955575,0.5852097868919374,1.7625497579574587,-0.5819891691207886
-8.290882110595703,-0.5499649643898011,4.778523921966554,0.6988811492919922,1.740110754966736,-0.663642406463623
-8.849568367004396,-0.08757519721984863,4.859911918640137,0.7239404320716859,1.6384458541870117,-0.6591740846633911
-7.374143600463867,-0.4712027311325073,6.692850589752198,0.5569080710411073,1.8000946044921875,-0.48529294133186346
-7.241994857788086,-1.7780027389526367,7.473853588104249,0.42859062552452093,2.2936308383941655,-0.24335360527038574
-8.904977798461914,-2.1207633018493652,6.067123889923097,0.41401374340057373,2.838356256484986,0.03425215929746628
-11.682342529296875,-1.4057888984680176,2.6959996223449707,0.4118037223815918,3.142675161361695,0.2971124947071076
-13.159225463867188,0.11061595380306244,0.1073864996433258,0.2497636377811432,3.078285455703736,0.5342353582382202
-11.400894165039062,0.7245028614997865,0.4738811254501343,-0.13116344809532166,2.958926200866699,0.8604807257652284
-10.193104743957521,-0.6865082383155824,0.8703700304031372,-0.3308064937591553,3.0167796611785893,1.1886193752288818
-8.814140319824219,-1.0064787864685059,1.531947731971741,-0.27772065997123724,3.1784772872924805,1.4640028476715088
-7.377140522003175,0.0391773171722889,1.4803234338760378,-0.2366466671228409,3.4063191413879395,1.7012482881546023
-6.308638572692871,0.9630563259124756,0.9197843670845033,-0.2705236375331879,3.648065805435181,1.8872601985931396
-5.430649280548097,1.9673995971679688,0.14625424146652222,-0.32332798838615423,3.791064739227295,2.017464876174927
-3.82649564743042,2.8674480915069585,0.060387123376131065,-0.3964115381240845,3.8665039539337163,2.0580260753631596
-2.2000949382781987,3.566621065139771,0.058552604168653495,-0.4102226495742798,3.935630559921265,1.9803617000579834
-0.565569281578064,4.566398143768311,-0.03246183693408966,-0.40561035275459295,3.939836740493775,1.7712502479553223
1.7188308238983154,5.041656494140625,0.4864175319671631,-0.39862436056137085,3.865623235702515,1.4160645008087158
5.187711715698242,4.445508480072022,1.4143790006637575,-0.3251051604747773,3.808347702026367,0.9274483919143677
8.249624252319336,3.2477102279663086,2.031810522079468,-0.16323953866958618,3.7645828723907475,0.3673303723335266
10.803259849548342,2.4786019325256348,2.3562386035919194,-0.019218698143959045,3.7095580101013184,-0.05971192941069604
12.779521942138672,2.0832672119140625,1.6416007280349734,0.0339089035987854,3.569595575332642,-0.24035203456878662
14.528881072998047,0.46035447716712957,1.0308332443237305,0.0676320865750313,3.256699562072754,-0.23373159766197205
16.42379379272461,-0.45892933011055,1.427465081214905,0.21626932919025424,2.8376002311706543,-0.06312180310487749
18.20709037780762,-0.20584598183631897,1.7670730352401736,0.2992905378341675,2.406306743621826,0.22095836699008944
18.651954650878906,-1.4508255720138552,1.2156884670257568,0.4067470729351044,1.8878426551818848,0.4832779467105866
18.268373489379886,-1.4986257553100586,0.9209222793579102,0.6303329467773438,1.2343858480453493,0.6738943457603456
17.203042984008793,-0.11831934750080109,0.6047137975692749,0.7041624188423158,0.602380633354187,0.7454656958580018
14.632117271423342,0.4280355870723725,-0.1798292100429535,0.6230778098106385,0.009456877596676351,0.659696102142334
10.978530883789062,-0.08142189681529999,-1.8219829797744753,0.5739955306053163,-0.5641329288482666,0.4588985145092011
6.231046676635742,-0.3787064552307129,-3.5399746894836426,0.60324364900589,-1.2352221012115479,0.21131646633148193
106.57179260253906,2.182649612426758,62.94353485107422,-3.094967603683472,-1.241875171661377,1.0440016984939577
-11.274384498596193,-1.4120044708251953,-24.689046859741214,-0.14817669987678528,4.380840301513672,-0.11970391124486925
16.590213775634766,-7.018324375152589,21.458715438842777,-0.06996419280767442,2.5481719970703125,0.6932262778282167
-7.937602996826172,-0.5778622031211854,11.582007408142092,0.17264111340045932,2.195070266723633,0.44919711351394653
-4.928178310394288,-2.260690689086914,14.248767852783203,0.2300032377243042,1.2378698587417605,-0.07002772390842438
-1.5650763511657715,-5.270646095275879,13.240249633789062,0.16512277722358704,0.16373911499977112,-0.4595200717449189
2.8495929241180424,-2.571365594863892,11.952682495117188,0.07433859258890153,-0.46441686153411865,-0.43620297312736517
6.749497890472413,2.301207780838013,8.926478385925295,-0.0355658270418644,-0.4836845397949219,-0.37947678565979004
8.557384490966797,-1.4705427885055544,7.279494285583496,-0.05644861981272698,-0.23189476132392883,-0.21808411180973056
7.3266310691833505,-1.2235757112503054,8.047072410583498,0.022324306890368465,0.08721046894788743,-0.041831694543361664
5.194012641906738,-1.4033099412918093,9.156208992004396,0.07420269399881364,0.2803073525428772,-0.00458744214847684
4.125833511352539,-2.2443163394927983,9.546123504638672,0.08310373872518541,0.27402758598327637,-0.0052636656910181046
4.033465385437012,-1.7861137390136719,9.65333366394043,0.08555570989847185,0.20063838362693787,-0.02075622789561749
4.46655035018921,-0.5888343453407289,9.938351631164553,0.032460108399391174,0.14454138278961182,-0.0013516697799786927
4.342150211334229,-0.9261190891265869,9.896848678588867,-0.028420871123671535,0.08899016678333282,0.0428471826016903
4.0562481880188,-1.3195146322250368,9.784063339233398,-0.06142805889248849,0.017399832606315613,0.059483714401721954
3.7454748153686523,-1.3769583702087402,10.054695129394531,-0.1040017530322075,-0.08551664650440216,0.04608594253659249
4.0597195625305185,-1.1222047805786133,10.096647262573242,-0.146531343460083,-0.19580242037773132,0.03474583104252816
4.596061229705811,-1.0360330343246462,9.76127815246582,-0.18852049112319946,-0.2620702683925629,0.05315997451543808
4.946937084197999,-1.0125136375427246,9.430739402770998,-0.22208091616630554,-0.2741272151470185,0.07504487782716752
4.692510604858398,-1.0211122035980225,9.553164482116701,-0.2529814541339875,-0.2835293412208557,0.09489282220602037
3.918758630752564,-1.5557610988616943,9.287034034729006,-0.2895492911338806,-0.3468090295791626,0.09126352518796922
5.449759960174561,-0.9057478308677674,10.43705940246582,-0.32503673434257513,-0.43544602394104004,0.08135014027357103
4.183006286621094,-1.514404535293579,9.229857444763185,-0.3338939845561982,-0.4128115773200989,0.13463610410690308
5.058026313781738,-1.5409637689590456,9.526655197143555,-0.3809494376182556,-0.5594229102134706,0.053404293954372406
4.779907703399659,-0.8743485808372499,9.502017974853516,-0.4101724624633789,-0.43233436346054077,0.15214554965496066
4.229775428771973,-2.0380687713623047,9.363705635070803,-0.4289893209934235,-0.6783454418182373,0.06243096664547921
4.875877857208253,-1.3447346687316895,9.501036643981935,-0.4868761003017426,-0.5484998226165771,0.1705755889415741
4.680660247802734,-2.2410023212432866,9.44676399230957,-0.4347810745239258,-0.8325511813163758,0.08213506639003754
4.519889354705811,-2.1025979518890385,8.915115356445312,-0.4456953704357148,-0.7033836245536805,0.16590100526809692
4.9735565185546875,-2.293790340423584,8.97743320465088,-0.3964065909385681,-0.9790756106376649,0.04035939276218414
4.432927131652832,-2.226566791534424,8.405073165893555,-0.36506435275077825,-0.9090379476547241,0.03667857497930527
5.1789612770080575,-1.1747517585754395,9.212520599365234,-0.4137772619724274,-0.8990967273712158,0.062204997986555106
4.98671579360962,-2.371701240539551,8.446213722229006,-0.38625034689903265,-0.9258121848106385,0.04797477275133133
5.453102588653565,-2.055860280990601,8.83990478515625,-0.36643463373184204,-0.9411510825157167,0.04107903689146042
5.180422306060792,-2.6266877651214604,8.54894542694092,-0.3101636469364167,-0.9250928163528442,0.01571214571595192
5.592566967010499,-2.884237766265869,8.276032447814943,-0.278425395488739,-0.9041984677314759,-0.007031228393316269
5.647135257720948,-2.9782011508941655,8.271224975585938,-0.2210313081741333,-0.8462045192718506,-0.05778861418366433
5.575854778289796,-2.4139647483825684,8.402286529541016,-0.192015141248703,-0.7917957901954652,-0.06908173859119415
5.557542324066163,-2.748957633972168,8.348419189453125,-0.16645808517932895,-0.7518271207809448,-0.09473146498203278
5.641888618469238,-3.185903549194336,8.172611236572266,-0.10032024234533311,-0.7399709224700928,-0.15479640662670138
5.945393085479737,-2.883058547973633,8.17190933227539,-0.0445866845548153,-0.7093300223350526,-0.20259028673171997
5.93992805480957,-2.7969944477081303,8.148841857910156,0.012945828959345818,-0.6845679879188539,-0.23635992407798767
6.022115230560304,-2.7104470729827885,8.106685638427734,0.05774271488189697,-0.6598475575447084,-0.26896354556083685
5.899443626403809,-2.6247758865356445,8.177494049072266,0.10730652511119843,-0.640988051891327,-0.29762041568756104
6.1371612548828125,-2.446992874145508,8.079913139343263,0.15498492121696472,-0.6226550340652466,-0.3167273700237275
6.03394365310669,-2.3844127655029297,7.955548286437988,0.1813015639781952,-0.6057303547859193,-0.33885544538497925
5.952930927276612,-1.927539348602295,8.26504898071289,0.19336564838886264,-0.6340541839599609,-0.3445715308189392
5.8908233642578125,-1.912881851196289,8.257580757141115,0.19008591771125793,-0.6755946278572084,-0.3558642268180847
5.734169483184815,-1.6908700466156006,8.283864974975586,0.182632252573967,-0.7454509139060975,-0.37139707803726196
5.775979995727539,-1.090531826019287,8.540790557861328,0.13160224258899691,-0.8504277467727661,-0.36641827225685125
5.950497627258301,-1.3127008676528933,8.575084686279297,0.08367723971605302,-0.942051887512207,-0.3591189384460449
5.846839904785156,-1.6754229068756104,8.260543823242188,0.06802676618099213,-1.0430761575698855,-0.3719173073768616
6.2057461738586435,-1.4060618877410889,8.309206008911133,0.05206732079386712,-1.1480122804641726,-0.38905006647109985
6.025121688842773,-1.6980870962142947,8.32758903503418,0.09307033568620683,-1.255570411682129,-0.39965388178825384
5.843644618988038,-2.3773350715637207,8.053746223449709,0.15061259269714355,-1.3793612718582156,-0.44944664835929876
6.03682565689087,-2.5268869400024414,7.766814708709718,0.2048948556184769,-1.507465124130249,-0.5237366557121278
6.180902957916261,-2.235309600830078,7.612621784210206,0.24535481631755832,-1.651564955711365,-0.5909297466278076
6.50315809249878,-2.299938201904297,7.871042251586914,0.2942672371864319,-1.785199284553528,-0.6690592765808105
6.740835189819336,-2.2168438434600835,7.926477909088136,0.3814352452754975,-1.88826584815979,-0.7445898056030273
6.852583408355714,-2.313415050506592,7.361135482788086,0.45878091454505926,-2.0475974082946777,-0.8087884783744813
7.454409122467042,-1.4876629114151003,6.742980480194093,0.49350848793983465,-2.1655490398406987,-0.8284491300582886
7.341836929321289,-1.0310474634170534,7.032154560089112,0.49378418922424316,-2.3123848438262944,-0.8198041915893555
7.0405011177063,-0.7112963199615479,7.425354957580566,0.4948278963565827,-2.5896148681640625,-0.773959755897522
7.260442256927491,-0.8592569828033447,7.623441696166992,0.495369702577591,-2.934187889099121,-0.7303360104560853
6.78848695755005,-0.7264103889465332,7.6048479080200195,0.4933567345142365,-3.3632066249847417,-0.7185165882110596
7.714786052703858,-0.8866118788719178,7.358120918273926,0.507405459880829,-3.8409056663513184,-0.6984702944755555
8.066128730773928,-0.4389718770980835,7.355011940002441,0.42684781551361084,-4.309097766876222,-0.684204399585724
9.46192264556885,0.32868438959121704,7.645094871520996,0.2816278338432312,-4.703598499298097,-0.6180069446563721
10.44350337982178,0.8058614730834961,8.216113090515138,0.08090364933013916,-4.969839096069336,-0.4617941081523896
12.508053779602053,0.8522154688835145,9.222414016723633,-0.14781238138675692,-5.063837051391602,-0.23248921334743503
14.24858283996582,0.11557291448116302,9.104742050170898,-0.29401344060897827,-4.80772352218628,0.045279663056135185
16.78561592102051,-0.32273370027542114,8.06750011444092,-0.2686117887496948,-4.438010692596436,0.26696640253067017
23.482460021972656,-0.7937164306640625,8.702367782592773,-0.5562938451766968,-3.752009391784668,0.6344308257102967
25.566478729248047,-1.0765498876571657,7.102652549743652,-1.569901943206787,-2.762978315353394,1.2433714866638184
20.73506355285645,-0.6032399535179139,5.7268033027648935,-2.8035058975219727,-1.8986951112747195,1.387592434883118
15.571404457092287,-2.893719911575318,-2.144178867340088,-3.8265902996063237,-1.8810570240020752,0.9135187268257142
19.98487091064453,-6.183610916137695,-7.383734703063965,-3.4334065914154057,-2.833656549453736,-0.16938945651054382
25.95025444030762,-6.230742454528809,-7.450648307800293,-2.391665458679199,-3.1714718341827397,-1.2627904415130615
23.320552825927734,-7.641245365142823,-6.743602752685547,-1.1250485181808474,-3.593104839324951,-2.294360637664795
23.067291259765625,-6.332686424255371,-8.115594863891602,0.21290814876556396,-4.540729045867921,-3.341888904571533
36.048683166503906,-4.989550590515137,5.414616584777832,0.9424579739570619,-4.752923488616944,-3.929065704345703
29.264598846435547,-2.331210136413574,8.198030471801758,0.774899959564209,-3.7411382198333745,-4.059466361999512
25.12155342102051,-0.38653796911239624,7.664565086364746,0.1173684149980545,-3.261391878128052,-4.094772815704347
21.221132278442386,-0.8923758268356323,8.475961685180664,-0.7006560564041138,-2.762243509292603,-4.075428009033203
16.03221893310547,-3.0341262817382812,7.762287139892578,-1.3145457506179812,-2.523983240127564,-4.029561996459961
11.954784393310547,-6.82780408859253,8.151434898376467,-1.3593547344207764,-2.465866327285767,-4.043272972106934
8.870201110839844,-9.917531013488771,8.55089855194092,-0.6785411834716797,-2.570919752120972,-3.945626020431519
7.880766868591309,-10.286176681518555,9.766457557678224,0.3434757292270661,-2.6247215270996094,-3.704429388046265
6.761944293975831,-9.02975082397461,11.410663604736328,1.2043356895446777,-2.3990139961242676,-3.2716224193573002
6.070594787597656,-7.20573616027832,13.371240615844727,1.6649092435836794,-1.8371989727020264,-2.6697909832000737
5.357416152954102,-4.91028642654419,15.28014659881592,1.6963412761688232,-0.9337432980537416,-1.9433685541152956
4.004822254180909,-3.5352241992950444,16.175420761108402,1.2737299203872683,0.21085941791534424,-1.1404234170913699
2.4932971000671387,-3.4650001525878906,16.123601913452152,0.7124667763710023,1.35968291759491,-0.3689807653427124
-0.12251734733581543,-4.2995667457580575,14.224684715270998,0.31962946057319647,2.364929676055908,0.2586854994297028
-3.932641744613648,-5.109112739562988,11.129540443420412,0.28928178548812866,2.998609304428101,0.6709849238395692
-6.797702789306641,-5.335567474365234,8.045458793640138,0.5939757227897645,3.1974706649780273,0.9164448380470277
-7.660179615020753,-4.168736457824707,6.206417083740234,0.9348397850990297,3.1027100086212163,1.125342607498169
-6.756989002227784,-1.9287455081939697,6.156944274902344,1.012624740600586,2.9530198574066167,1.3778207302093506
-4.417506694793702,0.11060550808906555,7.720818996429444,0.7008770704269409,3.0077230930328374,1.7226809263229372
-2.80701756477356,0.15403667092323303,8.902246475219727,0.27435669302940374,3.366288661956787,2.0129158496856694
-2.6223309040069585,0.03312304615974426,9.219011306762695,0.015881415456533432,3.849781036376953,2.1838586330413823
-2.6616930961608887,0.5386296510696411,8.730784416198732,-0.10877441614866258,4.29622745513916,2.234205007553101
-2.7039730548858647,1.346362829208374,7.784997463226319,-0.19835278391838074,4.652509212493897,2.1774504184722905
-2.5876042842864995,2.1307640075683594,6.915815353393555,-0.3171139061450959,4.860529899597168,2.0505630970001225
-1.8699545860290527,2.3035347461700444,6.537847042083741,-0.4887123703956604,4.948284149169922,1.914607644081116
-0.7432299256324769,2.3798859119415288,6.690004825592042,-0.623751163482666,5.010467052459718,1.7808172702789307
0.6924960017204286,2.6216804981231694,7.2955121994018555,-0.7659873366355897,5.104779243469238,1.6557817459106445
2.4435582160949707,2.6238327026367188,7.929703712463379,-0.9196459054946899,5.274014949798585,1.5315937995910645
3.6863892078399663,2.4525070190429688,8.23402214050293,-1.0462650060653689,5.464566707611085,1.4095613956451416
4.614007949829102,2.40911865234375,8.252217292785646,-1.13014554977417,5.629718303680421,1.311570644378662
6.06351137161255,3.15443754196167,8.47412109375,-1.222656846046448,5.743124008178711,1.2028486728668213
7.825246810913086,4.012991905212402,8.794061660766602,-1.432262659072876,5.845140933990479,1.0591866970062256
10.011711120605469,3.437046527862549,9.11845111846924,-1.6604468822479248,5.953746795654297,0.8476428389549256
11.427002906799318,1.649656057357788,9.183903694152834,-1.6470664739608767,6.024038314819336,0.6334416270256044
12.239290237426758,1.3074767589569092,9.288670539855959,-1.4421478509902956,5.978809356689453,0.49545562267303467
13.60451412200928,3.2408583164215092,9.581019401550295,-1.3760448694229128,5.8285980224609375,0.43739315867424017
15.309899330139162,4.363892555236816,9.745168685913086,-1.600776195526123,5.634878158569336,0.41803655028343206
15.974049568176271,4.50604009628296,9.803518295288086,-1.8459028005599978,5.376819610595703,0.2933932840824128
15.978187561035156,4.893570423126222,10.290021896362305,-2.025093793869019,5.079461097717285,0.006090030074119568
16.15447044372559,6.23590087890625,11.153995513916016,-2.2484378814697266,4.785356044769288,-0.4174819588661194
17.247676849365234,7.530963897705078,12.472825050354006,-2.605836868286133,4.560421943664551,-0.9457719922065736
18.404529571533203,8.394549369812013,13.166048049926758,-2.9863972663879395,4.467640399932862,-1.5561943054199219
18.435899734497074,9.527319908142092,12.763530731201172,-3.37204647064209,4.452197551727296,-2.1797959804534917
18.076030731201172,10.02962875366211,12.122437477111818,-3.7314796447753906,4.376813411712647,-2.766972064971924
17.94199943542481,10.61623764038086,11.599793434143068,-4.012428760528565,4.273132801055909,-3.323256492614746
17.751903533935547,11.60880756378174,10.91026496887207,-4.256731986999512,4.180545330047608,-3.851994514465332
17.204971313476562,12.622612953186037,9.394575119018555,-4.532061100006104,4.043408393859863,-4.316821098327637
16.366512298583984,12.776823043823242,7.320074081420898,-4.771279335021973,3.790990591049195,-4.674582481384277
16.027757644653324,11.564920425415039,5.611062049865723,-4.757154941558839,3.4033415317535405,-4.979953765869141
15.820681571960451,9.796887397766115,4.307191848754883,-4.447806358337402,2.9277927875518803,-5.218206405639648
15.532872200012209,9.002215385437013,3.571210622787476,-3.9604859352111816,2.381874322891236,-5.281821727752686
16.6831226348877,9.499329566955568,2.7966060638427734,-3.4794828891754155,1.8887484073638916,-5.092162609100343
17.41738319396973,6.917277812957765,1.5038982629776003,-2.6585564613342285,1.5433306694030762,-4.891940593719483
16.859066009521484,6.277788162231445,-0.3086147010326386,-1.5132235288619997,1.1805698871612549,-4.69599199295044
15.471470832824709,6.879847526550293,-2.2619721889495854,-0.6679980754852295,0.7074480652809144,-4.314882755279542
13.228428840637209,5.705380439758301,-2.7965071201324467,-0.15522734820842746,0.12876355648040771,-3.772971391677857
7.098367691040039,-0.14652830362319946,2.4643516540527344,0.6105504631996156,-0.5756444334983827,-3.31477689743042
2.781345844268799,-6.220048904418945,15.62814235687256,1.9976263046264648,-0.675281584262848,-3.360332489013672
4.3650712966918945,-29.929899215698246,15.743154525756836,2.2967836856842045,-0.7800097465515137,-3.5130467414855957
11.96101474761963,-27.48964881896973,13.985673904418945,2.2137389183044434,-1.343175530433655,-2.8580374717712402
10.04155158996582,-22.006845474243168,6.747936248779297,2.4126818180084233,-1.0523656606674197,-0.8271749019622803
14.571084976196289,7.603280067443848,13.336790084838867,1.9975788593292236,-1.1704941987991335,-0.38023799657821655
12.476969718933107,25.068077087402344,18.36876487731934,1.4728772640228271,-0.08255747705698015,-0.2732736170291901
2.4178841114044194,8.011861801147461,11.827113151550295,0.6702610850334169,0.3563028573989868,-0.47408357262611395
2.811543226242066,-6.309990882873535,9.482584953308107,0.3807981014251709,0.017397340387105942,-0.29646983742713934
5.35602617263794,3.2175607681274414,11.133816719055178,0.27637380361557007,-0.05508170649409295,-0.12461932003498077
4.471774101257324,5.851320266723633,10.788753509521484,0.03719199448823929,0.04645000025629998,-0.14276511967182162
4.657371044158936,-2.0586862564086914,10.032720565795898,-0.0859498754143715,0.03612007200717926,-0.12483503669500352
4.843712329864503,-1.779883861541748,9.890543937683107,-0.09000747650861742,-0.027752166613936428,-0.034121714532375336
4.994466781616211,-0.24338901042938232,10.194722175598146,-0.10130681842565538,-0.040169596672058105,-0.029574999585747722
5.032773971557617,-1.8188101053237917,9.806546211242678,-0.10991489887237549,-0.034811262041330344,0.018401326611638073
4.6150832176208505,-1.5396769046783447,9.771425247192383,-0.09959015250205994,-0.012022427283227445,0.04319252073764801
4.2239136695861825,-2.052925825119019,9.795232772827148,-0.08374743163585663,-0.02000940963625908,0.030953684821724895
4.331335067749023,-2.328148365020752,9.649860382080078,-0.048112206161022186,-0.02785773389041424,0.019208289682865143
4.030574321746827,-1.7220396995544434,9.457921028137209,-0.02796939201653004,-0.034927040338516235,0.013493414968252182
3.055781841278076,-2.3093228340148926,9.293560028076172,-0.04737280309200287,-0.10217351466417314,-0.0070904577150940895
4.281850337982179,-1.7181125879287722,9.559576034545898,-0.03342157974839211,-0.16351391375064853,-0.03939414024353027
4.708765029907227,-1.097302317619324,9.768816947937013,-0.02749922126531601,-0.14585320651531222,-0.020802173763513565
4.370079517364503,-1.196664571762085,9.783186912536623,-0.046516086906194694,-0.13736703991889954,-0.0016379712615162134
4.379582881927491,-1.2467215061187744,9.77015018463135,-0.0704200267791748,-0.1392791718244553,0.013347724452614784
4.3987836837768555,-1.2476396560668945,9.708642959594727,-0.09592095017433167,-0.13827112317085266,0.026111105456948284
4.439815044403077,-1.2782825231552126,9.716719627380373,-0.11906499415636064,-0.13612329959869385,0.039221096783876426
4.457359313964844,-1.254512071609497,9.938523292541506,-0.15122134983539584,-0.13041406869888306,0.052525438368320465
4.736626148223878,-0.6322187781333924,10.028261184692383,-0.2210959494113922,-0.12071890383958818,0.08454456925392151
4.65015459060669,-1.3952494859695437,9.585103034973146,-0.2373020052909851,-0.07902251183986664,0.1045639291405678
3.9162373542785645,-1.8780764341354372,9.227010726928711,-0.23427718877792358,-0.07171038538217546,0.10993893444538116
3.7393507957458496,-1.9274907112121582,9.431366920471193,-0.23134230077266696,-0.11419828236103058,0.09260210394859314
4.2032790184021005,-1.9345606565475466,9.382852554321289,-0.22151376307010653,-0.13522285223007202,0.08138877898454668
4.039305210113526,-2.0666291713714604,9.250946998596193,-0.19699220359325412,-0.14227791130542758,0.0624406561255455
4.234671115875245,-2.2868528366088867,9.309834480285646,-0.17495250701904297,-0.14523555338382724,0.045451849699020386
4.317164897918702,-2.387802362442017,9.225678443908693,-0.13749748468399048,-0.13664887845516208,0.029451450332999233
4.336683750152589,-2.229333639144898,9.25071430206299,-0.10702621936798096,-0.12634129822254184,0.013525092974305153
4.514831066131593,-1.9531856775283816,9.341130256652834,-0.08690049499273302,-0.11489167064428331,0.008746253326535225
4.46461057662964,-1.9463694095611572,9.401782035827638,-0.07325316965579987,-0.10169752687215806,0.007644359953701496
4.282689094543457,-2.0048925876617436,9.348957061767578,-0.06062543764710427,-0.0977906733751297,0.0041850050911307335
4.296262741088867,-1.571744441986084,9.568556785583498,-0.07396466284990312,-0.10782505571842194,0.0008247972582466901
4.200860500335694,-1.5635083913803103,9.553974151611328,-0.09997897595167161,-0.12348709255456926,-0.0034242630936205387
4.106557846069336,-1.7646982669830322,9.495715141296388,-0.1219864934682846,-0.1450605541467667,-0.013165852054953575
4.263908863067628,-1.7155659198760986,9.631196022033693,-0.14478071033954623,-0.17815017700195312,-0.020226985216140747
4.503701686859132,-1.5959824323654177,9.60222053527832,-0.16517318785190585,-0.1985568404197693,-0.021508729085326198
4.6011700630188,-1.6301486492156982,9.517389297485352,-0.18573071062564853,-0.2139924615621567,-0.006538446992635727
4.488512992858887,-1.7396245002746582,9.304469108581545,-0.20172797143459323,-0.22095593810081482,-0.004090899135917426
4.357904434204102,-1.9115526676177979,9.326171875,-0.2116593271493912,-0.23572218418121338,-0.007726630195975304
4.490294456481934,-2.1884276866912846,9.367499351501467,-0.21199832856655124,-0.24440503120422363,-0.021249828860163692
4.408184051513672,-2.2248072624206543,9.35678005218506,-0.2104162573814392,-0.25716692209243774,-0.04169959202408791
4.367430686950684,-2.1117382049560547,9.463006973266602,-0.21383517980575562,-0.2876180708408356,-0.061508506536483765
4.396079540252686,-1.9971395730972292,9.548885345458984,-0.23279573023319247,-0.32889819145202637,-0.0753057450056076
4.352884292602539,-2.0123119354248047,9.498929023742678,-0.2518343031406403,-0.37688422203063965,-0.08330935984849931
4.278005599975586,-1.836806654930115,9.46065425872803,-0.2847572267055512,-0.43701633810997015,-0.08677701652050018
4.071825504302979,-2.1001925468444824,9.424131393432617,-0.31875124573707586,-0.5104427337646484,-0.09422779828310014
4.136395931243897,-1.6709090471267702,9.573921203613281,-0.36823621392250067,-0.6126917600631714,-0.11209896206855774
4.236005306243897,-1.4078843593597412,9.610674858093263,-0.44592177867889404,-0.728983223438263,-0.12834349274635315
4.032039642333984,-1.2843483686447146,9.705601692199709,-0.5509711503982544,-0.8509408235549927,-0.1281591206789017
3.6210615634918217,-1.4136420488357546,9.66854476928711,-0.6559351682662964,-1.049004673957825,-0.09359894692897797
3.5176453590393066,-1.4943962097167969,9.59114742279053,-0.7539990544319154,-1.2898821830749512,-0.05995858460664749
3.608221292495728,-1.16622531414032,9.703598022460938,-0.8219792246818544,-1.5745017528533936,-0.0619833953678608
3.5691525936126713,-1.1594208478927615,9.81474494934082,-0.8833376765251161,-1.9098221063613894,-0.06489257514476776
3.1850960254669194,-1.3494551181793213,9.951558113098146,-0.9601212143898011,-2.308955669403076,-0.07651852816343309
2.960850238800049,-2.08699369430542,9.972764015197756,-0.9900087714195253,-2.782132148742676,-0.11713187396526337
3.1968076229095463,-1.9291080236434939,10.041686058044435,-1.035680651664734,-3.323202133178711,-0.12251248210668565
3.2509200572967534,-2.1023275852203374,10.21342182159424,-1.0796210765838623,-3.967061996459961,-0.20856885612010959
3.7851593494415288,-2.3848133087158203,11.35222911834717,-1.1891690492630007,-4.666013717651367,-0.24966202676296237
3.142598390579224,-2.4091620445251465,12.182162284851076,-1.3856245279312136,-5.525552749633789,-0.2975578308105469
4.151155471801758,-3.145655632019043,14.766425132751467,-1.7641592025756836,-6.499330997467042,-0.2449541985988617
5.308818340301515,-4.020418167114258,16.508268356323246,-2.139845371246338,-7.483793258666992,-0.2695083320140839
10.052905082702638,-3.74714207649231,17.792804718017578,-2.688323259353638,-8.209798812866211,-0.2901942431926728
15.106250762939453,-6.848039150238038,19.082521438598636,-3.2143838405609135,-8.726446151733398,-0.3436509966850281
19.698410034179688,-8.881475448608398,20.359195709228516,-3.5384292602539062,-8.727124214172365,-0.6022372245788574
25.847759246826172,-9.93400287628174,23.635406494140625,-3.682223320007324,-8.39052963256836,-0.9873712658882142
26.64170646667481,-10.534597396850586,19.094078063964844,-4.1211256980896005,-7.74821662902832,-1.1565421819686892
31.97713661193848,-8.8439416885376,22.738233566284183,-5.554197788238526,-6.1157331466674805,-0.36182093620300293
20.12710952758789,-4.75130558013916,20.397010803222656,-7.791569709777832,-4.101784229278565,0.4134938716888428
14.792673110961914,-11.07284927368164,12.391342163085938,-7.305908203125,-2.242825508117676,-0.400043398141861
34.22648239135743,-22.959772109985355,20.645370483398438,-4.025596618652344,-0.9502634406089784,-2.1323585510253906
23.18511962890625,-21.710590362548828,24.59944343566895,-0.1758335530757904,2.2927243709564213,-2.358371496200562
7.250796318054199,-7.809303760528565,11.367051124572756,1.6702651977539062,3.3362925052642827,-2.1401710510253906
4.922930240631104,1.307873606681824,6.046483039855957,1.7238086462020876,3.585124731063843,-2.2259035110473633
4.030260562896729,4.864002227783203,3.867934226989746,0.7977479696273804,3.719997644424439,-2.315291404724121
1.470915198326111,4.007031440734863,1.0871155261993408,-0.20407114923000338,3.7379050254821777,-2.3284225463867188
-0.555831789970398,1.2257513999938965,-0.14665555953979492,-0.7022705078125,3.666249036788941,-2.346907138824463
-0.8720349073410034,-1.6137378215789795,0.7020179629325868,-0.6088059544563295,3.542367219924927,-2.365753650665283
-0.12950655817985535,-1.9982625246047976,2.25687050819397,-0.22318767011165622,3.5933542251586914,-2.248597860336304
0.12590403854846957,-0.6410040259361268,3.2298412322998047,-0.015312916599214079,3.8864288330078125,-1.9989311695098877
-0.42134636640548706,-0.2441816478967667,3.1107821464538574,-0.11386965215206146,4.279096126556397,-1.6379027366638184
-1.6821205615997314,-0.8469130396842958,1.70662796497345,-0.22995662689208984,4.5934858322143555,-1.2255634069442751
-2.8083803653717045,-1.7818489074707031,0.03679313510656357,-0.19456696510314941,4.6768250465393075,-0.8404667377471924
-3.729686498641968,-1.466755270957947,-1.159476161003113,-0.0828596279025078,4.552211761474609,-0.42273062467575073
-3.2557449340820312,-0.36398944258689886,-0.5953311324119569,-0.13745371997356418,4.361787796020508,0.028524721041321758
-0.6842007040977479,-0.2916160821914673,1.6611715555191042,-0.35436588525772095,4.353874206542969,0.5176708102226258
0.810291349887848,-0.5545485615730287,2.4368653297424316,-0.44581329822540283,4.603217601776124,0.9180874824523926
0.9370415210723877,-0.07803113013505937,1.9316437244415283,-0.4101536273956299,4.828059673309327,1.167741894721985
1.0803308486938477,1.5912033319473269,0.5162355899810791,-0.4182147681713105,4.900212287902832,1.3102577924728396
1.998697280883789,1.9766333103179932,-0.25016236305236816,-0.4658427834510803,4.845766067504883,1.2869664430618288
3.415401697158814,2.2302100658416752,-0.2530813217163086,-0.42445960640907293,4.72967529296875,1.1645423173904421
4.873209476470948,2.863872289657593,-0.2683215439319611,-0.3635570704936982,4.658282279968262,0.9839669466018677
6.244698524475098,3.0479757785797124,-0.6428606510162354,-0.33031985163688665,4.584952354431152,0.7825629115104676
7.5582075119018555,2.505211353302002,-1.5588092803955078,-0.22275936603546143,4.385246276855469,0.6279001832008363
9.082497596740724,1.4406481981277468,-2.3809816837310795,0.01377366576343775,4.007227897644043,0.5198008418083192
11.386446952819826,0.8933761119842529,-2.5571727752685547,0.29351383447647095,3.4606916904449467,0.4895313680171967
14.129731178283693,1.4311368465423584,-1.715083956718445,0.5158591270446777,2.8789746761322026,0.5293021202087402
18.019910812377933,1.118211627006531,0.02777925133705139,0.632466495037079,2.3889496326446538,0.5699419975280762
23.013614654541016,0.7270036935806274,2.780226707458496,0.7167696952819824,2.0743672847747807,0.6681958436965942
25.550403594970703,1.5569261312484743,3.3948659896850586,0.7213448882102967,1.9823579788208008,0.855171799659729
25.123729705810547,1.7506496906280518,1.905257225036621,0.6679223179817201,1.847656011581421,0.9981600642204286
22.911746978759766,1.7861080169677734,-0.8174261450767518,0.7507503628730775,1.4537073373794558,0.9903730154037476
19.482357025146484,2.534075021743775,-3.6852917671203613,0.8973155617713929,0.7975208759307861,0.7905582785606385
15.41560173034668,3.249054431915283,-6.509560108184815,0.9883736371994019,-0.12673364579677585,0.46473672986030584
9.449613571166992,3.0613856315612793,-10.566226005554201,1.1180852651596072,-1.2310242652893066,0.08703092485666276
3.0126185417175293,1.5914255380630495,-12.640518188476562,1.3198902606964111,-2.688446521759033,-0.2988115251064301
95.71202850341798,5.431822299957276,63.718090057373054,-3.2930443286895756,-3.821746826171875,1.1440666913986208
-3.473833322525025,-5.359654426574707,-20.51684379577637,-0.6322352290153505,5.935826301574707,0.5265971422195435
15.952033996582031,-15.423385620117188,22.992080688476562,0.5632002353668213,0.21360076963901523,-0.08072645962238312
-14.513684272766115,1.561863899230957,10.272577285766602,0.1366538405418396,0.57855224609375,0.07635002583265306
0.34053683280944824,-3.559690475463867,14.936714172363281,-0.10762161016464233,-0.20658959448337558,-0.5595475435256958
9.702939987182617,-3.142217874526978,8.334306716918945,-0.033546388149261475,-0.4591239988803864,-0.5837977528572084
7.810092926025391,4.633902072906495,7.824420452117921,0.05278347432613373,-0.333762139081955,-0.30270498991012573
8.30320453643799,1.2956151962280273,7.666960716247559,-0.09166581183671953,0.07180500775575639,-0.10019846260547638
6.23787546157837,-1.8615925312042236,8.739736557006836,-0.04372899606823922,0.2993486523628235,0.0615944229066372
3.3484034538269043,-2.976881504058838,9.777859687805178,-0.009711883962154388,0.29382857680320745,0.04580571874976159
3.686287164688111,-2.139779567718506,10.21218013763428,0.010426198132336141,0.1596890389919281,-0.045588660985231406
4.825507164001465,-1.382007718086243,9.694454193115234,-0.0072151487693190575,0.08055248856544495,-0.06105001643300057
5.482395172119141,-0.17084920406341553,9.401305198669435,-0.055874977260828025,0.08719468116760254,-0.00047261387226171797
5.069725513458253,-0.6990529298782349,9.635241508483888,-0.11886080354452135,0.09265391528606415,0.0909755527973175
4.353222370147706,-1.4032959938049316,9.887842178344727,-0.15689451992511752,0.05175802856683731,0.12126634269952775
4.066679477691651,-2.1097271442413335,9.759849548339844,-0.15986479818820956,-0.03376939520239831,0.07962718605995178
4.230685710906983,-1.8821214437484743,9.564976692199709,-0.11536836624145508,-0.10378170758485795,0.016571123152971268
4.600758075714112,-1.6819779872894287,9.55357551574707,-0.08931572735309601,-0.13701511919498446,-0.011479570530354978
4.80986213684082,-2.0174055099487305,9.313785552978516,-0.06956405192613603,-0.1338055431842804,-0.022096617147326473
4.985740184783936,-1.5407698154449463,9.318445205688477,-0.061223525553941734,-0.11398565024137498,-0.007237082347273827
4.75527048110962,-1.4476543664932253,9.52077865600586,-0.07343474775552751,-0.10878325998783112,0.019858358427882198
4.627808094024659,-1.6340676546096804,9.530891418457031,-0.08752553910017015,-0.12831449508666992,0.034558504819869995
4.79565191268921,-1.8582453727722168,9.359402656555178,-0.09235198050737382,-0.13367396593093872,0.04339664056897164
4.778603076934815,-1.6363643407821657,9.340539932250977,-0.09464185684919359,-0.13395853340625766,0.05346086621284485
4.692372798919679,-1.5805243253707888,9.413642883300781,-0.09971334040164948,-0.13797821104526523,0.061541005969047546
4.683718204498292,-1.4419302940368652,9.437366485595703,-0.11461195349693298,-0.1538307219743729,0.06564291566610338
4.551743984222413,-1.5044485330581667,9.420955657958984,-0.1271062344312668,-0.17835140228271484,0.0636185184121132
4.573578357696534,-1.6259703636169434,9.373598098754883,-0.13564777374267578,-0.20233076810836792,0.05251977965235711
4.769686698913574,-1.7056670188903809,9.221785545349123,-0.13736876845359802,-0.20931778848171237,0.05153188854455948
4.87786865234375,-1.660560131072998,9.1844482421875,-0.13679255545139316,-0.2071438431739807,0.05089162290096283
4.801322937011719,-1.4081765413284304,9.182281494140625,-0.1437210738658905,-0.20431347191333774,0.060500092804431915
4.670124053955078,-1.6122608184814453,9.270453453063967,-0.15318943560123446,-0.19839547574520114,0.06635281443595886
4.615689754486085,-2.0597460269927983,9.128011703491211,-0.1646886169910431,-0.20193214714527133,0.05788473039865494
4.885350227355957,-2.2803406715393066,8.868621826171875,-0.154270276427269,-0.19004741311073303,0.04469490051269531
5.037790775299073,-2.0945312976837163,8.67353630065918,-0.10872290283441545,-0.13624587655067444,0.028664795681834224
4.861790657043457,-1.6296542882919314,8.897698402404787,-0.0834708958864212,-0.10704712569713593,0.025210542604327205
4.81786870956421,-1.5792384147644043,9.010062217712404,-0.09048879891633989,-0.10252824425697327,0.035923581570386894
4.42236328125,-2.2225403785705566,8.973023414611818,-0.0940345823764801,-0.10797188431024553,0.030545311048626903
4.4195051193237305,-2.4595787525177006,9.111128807067873,-0.08837313950061798,-0.1298301070928574,-0.002547570038586855
4.711075305938722,-2.444833040237427,8.944886207580568,-0.046970505267381675,-0.13315002620220187,-0.0471346452832222
4.679685592651367,-2.274228096008301,8.638087272644045,0.0017501808470115068,-0.1336597502231598,-0.09657732397317888
4.600767612457276,-1.5242277383804324,9.25619411468506,0.026310415938496593,-0.16775980591773987,-0.10914866626262665
4.4366865158081055,-0.9097954630851747,9.62415885925293,-0.03415727987885476,-0.23691633343696594,-0.09589881449937822
4.287144660949707,-1.4178526401519775,9.64806652069092,-0.10984474420547485,-0.3315662741661072,-0.09418901056051256
4.2876906394958505,-1.5582805871963503,9.555742263793945,-0.1612285822629929,-0.44258302450180054,-0.111589752137661
4.668634414672852,-1.5829198360443115,9.239649772644045,-0.17796465754508972,-0.540687382221222,-0.1338014751672745
4.657779216766358,-1.1728061437606814,9.584683418273928,-0.2045099437236786,-0.6518966555595399,-0.14111843705177307
4.429925918579102,-1.542778730392456,9.575528144836428,-0.24881970882415771,-0.795250654220581,-0.1470807641744614
4.080055236816406,-1.1741034984588623,10.1134033203125,-0.32682257890701294,-1.0068241357803347,-0.14363929629325867
3.7945234775543217,-1.537804961204529,10.29664421081543,-0.39616933465003973,-1.269667625427246,-0.16319876909255981
3.49148440361023,-1.4913392066955566,10.477766036987305,-0.4543977081775666,-1.6090760231018066,-0.18588905036449435
3.5627281665802006,-1.8595986366271973,10.162083625793459,-0.38507446646690374,-2.0071594715118413,-0.19755354523658752
4.164175033569336,-1.5551689863204958,9.96485996246338,-0.406655639410019,-2.406960964202881,-0.2517662346363068
4.705075263977051,-1.4619315862655642,9.657202720642092,-0.3977780342102051,-2.82978367805481,-0.28384235501289373
5.1146955490112305,-1.2995803356170654,9.744928359985352,-0.38197827339172363,-3.2793843746185307,-0.31450408697128296
5.0940613746643075,-1.6966288089752197,9.462196350097656,-0.3116864562034607,-3.7122654914855957,-0.30765423178672796
5.24189567565918,-1.4640638828277588,9.95744514465332,-0.25931850075721746,-4.224267959594727,-0.282962054014206
6.417602062225343,-2.160299301147461,10.39114761352539,-0.24277421832084656,-4.719347476959229,-0.15346820652484897
8.380388259887695,-3.039250373840332,12.085203170776367,-0.3059460520744324,-5.027880191802979,0.011164233088493347
11.440524101257326,-4.9797377586364755,13.964977264404297,-0.36532327532768255,-4.96680498123169,0.1478835642337799
13.716933250427248,-7.872938632965089,12.825145721435547,-0.14787328243255615,-4.670828342437745,-0.03529425710439682
19.949178695678714,-10.020084381103516,12.510394096374513,0.6908938288688661,-4.551626205444336,-0.3783953785896301
27.685716629028324,-5.646897792816163,9.391215324401857,1.2508534193038943,-4.22186279296875,-0.736032783985138
32.233234405517585,-1.8291338682174685,3.601034164428711,0.7992264032363892,-4.049567222595215,-1.1448920965194704
36.733665466308594,-3.140490293502808,4.035552501678468,0.49982026219367987,-3.935850143432617,-1.7607482671737673
31.182605743408203,-2.5921561717987065,4.253771781921387,0.2098294496536255,-3.6590292453765874,-2.167002439498902
40.38830947875977,-2.971274614334107,11.265115737915039,-0.44940385222435003,-3.670032024383545,-2.544300794601441
35.8972511291504,-5.891836643218995,17.934366226196293,-0.9425132870674134,-2.3147532939910893,-2.4996232986450195
24.75269317626953,-6.744603157043457,13.54344367980957,-1.4577269554138184,-1.7443391084671023,-2.143979549407959
21.455526351928714,-7.9638824462890625,13.252534866333008,-1.5171753168106081,-1.5919735431671143,-1.9915039539337158
15.198125839233398,-9.036730766296388,11.773775100708008,-1.1563605070114138,-1.5266788005828857,-1.8598698377609255
13.017248153686523,-9.101479530334474,12.54165267944336,-0.5918141603469849,-1.5889325141906738,-1.720983147621155
10.060924530029297,-8.246513366699219,14.165719985961914,0.09284307062625885,-1.4478918313980105,-1.5776352882385254
8.053510665893555,-6.2602505683898935,16.09491729736328,0.4791534245014191,-1.0884501934051514,-1.3692879676818848
6.2990479469299325,-4.228312969207765,17.71431922912598,0.5298548340797425,-0.3586718440055847,-1.1450947523117068
2.964229106903076,-3.490093231201172,16.79604530334473,0.44516193866729736,0.6392570734024048,-0.9723388552665712
-2.6929550170898438,-3.2510373592376713,13.390759468078615,0.4758500158786774,1.5097041130065918,-0.9252339005470277
-7.132925510406495,-2.7288086414337163,9.983801841735842,0.5018354654312134,1.9385279417037966,-0.9182220101356507
-9.193794250488281,-2.482302665710449,7.42255973815918,0.5023157596588135,2.0835402011871342,-0.840370774269104
-9.110982894897461,-2.4158129692077637,6.153497219085694,0.48064360022544866,2.216152906417847,-0.6295262575149536
-10.412399291992188,-2.7842333316802983,4.678857326507569,0.5069340467453003,2.3477919101715092,-0.3715546727180481
-11.101799011230469,-1.74709153175354,3.938473701477051,0.4111644923686982,2.406538963317871,-0.07589089870452881
-11.448257446289062,-0.7493110299110414,3.042962074279785,0.12724336981773376,2.4953243732452397,0.23594805598258972
-11.598895072937013,-1.005387306213379,1.7766951322555544,-0.17596924304962158,2.5806493759155273,0.5208410620689393
-11.700872421264648,-1.348038911819458,0.42921268939971924,-0.3290065228939057,2.559737205505371,0.8112146258354188
-11.187021255493164,-0.8066176176071167,0.08909205347299577,-0.3927815556526184,2.48499083518982,1.1035016775131228
-9.690176010131836,-0.14276812970638278,0.7771802544593812,-0.488719254732132,2.498323917388916,1.3734539747238161
-8.069438934326172,-0.07633923739194871,1.544084072113037,-0.5427984595298768,2.658676385879517,1.5858888626098633
-6.787097930908203,0.20292145013809204,1.436857581138611,-0.4626313745975495,2.908933639526367,1.7320319414138796
-6.036028861999512,1.4949947595596316,0.3902544379234314,-0.3725564479827881,3.111489057540894,1.7999316453933718
-4.950692176818848,2.7077524662017827,-0.4141237139701843,-0.4026837944984436,3.1794855594635014,1.7824294567108154
-3.1902658939361577,3.6170046329498295,-0.18061551451683044,-0.5457779169082642,3.18241024017334,1.7107261419296267
-0.3262979686260224,3.567353487014771,1.0364365577697754,-0.7310432791709901,3.214644432067871,1.612619996070862
3.710424661636353,2.7039210796356206,2.968808174133301,-0.8314775228500366,3.3163921833038335,1.5140477418899538
8.021427154541016,2.087948560714722,4.20503854751587,-0.8019344210624696,3.5394983291625977,1.4064728021621706
11.672219276428224,1.2563996315002441,3.497594594955445,-0.6551802754402162,3.7852027416229252,1.23225998878479
13.329421043395998,0.5488163828849794,1.422795057296753,-0.4075670838356018,3.8185546398162846,0.9981163740158081
15.081268310546875,0.11759280413389207,-0.039593636989593506,-0.26191756129264837,3.6216859817504883,0.8229444026947021
17.06991958618164,-1.1250814199447634,-0.40136462450027466,-0.27004674077034,3.2885398864746094,0.8342623114585878
19.499887466430668,-3.1520180702209473,-0.21168512105941772,-0.3463560938835144,2.906798839569092,1.0648168325424197
20.943780899047855,-4.78718376159668,-1.3403599262237549,-0.40971109271049505,2.4296979904174805,1.4303799867630007
19.67156219482422,-4.852742671966554,-4.515442848205566,-0.5785295963287354,1.7474788427352907,1.8812819719314577
17.91739082336426,-5.114430904388429,-5.364744186401367,-1.0347604751586914,0.698188602924347,2.388050079345703
18.85333251953125,-7.308031558990479,-2.672850847244263,-1.5460575819015505,-0.1527463346719742,3.057748317718506
30.557035446166996,-12.526792526245117,0.9788280725479126,-1.2825013399124148,-0.4501184821128845,3.1084520816802983
44.16428756713868,15.930115699768068,11.705630302429201,2.0784759521484375,-0.5948439240455629,-1.1564294099807741
35.11167526245118,16.658617019653324,22.362298965454105,0.781232476234436,2.396795988082886,-1.864562749862671
-1.4438328742980957,-26.400508880615234,4.633491516113281,1.1913143396377566,2.7145850658416752,-0.7256492376327515
0.031617119908332825,12.803918838500977,18.741226196289062,0.8140708804130555,1.8761653900146484,-0.027658900246024135
-2.2819192409515385,0.29421707987785345,12.959442138671875,0.5392131209373475,1.8277955055236816,-0.9976685047149658
0.6697331070899964,-10.248151779174805,10.957355499267578,0.4048080742359162,0.628005862236023,-0.49485775828361517
4.281821727752686,6.429505348205566,13.056151390075685,0.2160305827856064,-0.06033980473876,-0.3159613013267517
4.4338178634643555,-3.433721780776978,8.937289237976076,0.1340370774269104,-0.3377470672130585,-0.382004976272583
6.61618709564209,0.5524557232856752,9.735969543457031,0.16382722556591037,-0.4560505747795105,-0.1632591187953949
6.497472286224366,-1.979661464691162,8.997057914733888,0.20578740537166598,-0.26257234811782837,-0.08773843199014665
6.055923938751222,-2.2005922794342045,9.163084030151367,0.21876807510852816,-0.110915444791317,-0.04299822449684143
5.703478813171387,-2.424950122833252,9.031838417053224,0.2503071427345276,0.01203847397118807,-0.0588526576757431
5.662186145782472,-1.0853830575942995,9.229041099548342,0.22407479584217074,0.12459446489810944,-0.036668673157691956
4.954205989837647,-0.9793640375137329,9.45046138763428,0.1559937596321106,0.151761069893837,0.023424599319696426
4.450809478759766,-1.000270128250122,9.825411796569826,0.08057890832424164,0.09639938175678253,0.056004580110311515
4.297514438629151,-1.29736328125,9.756314277648928,0.020655397325754166,0.0005686969379894436,0.06733189523220062
4.389564990997315,-1.4700011014938357,9.796851158142092,-0.03187981620430947,-0.1029559075832367,0.06144482642412186
4.518959522247315,-1.4619914293289187,9.657491683959961,-0.07413470000028612,-0.1975744068622589,0.06940384954214097
4.648262977600098,-1.395020365715027,9.595459938049318,-0.12480428069829942,-0.2777122557163239,0.07908833026885986
4.607887744903565,-1.455470323562622,9.585429191589357,-0.17911729216575623,-0.34487935900688177,0.08746200799942017
4.573928356170655,-1.4960975646972656,9.56370735168457,-0.22382409870624545,-0.4254987835884094,0.09663018584251404
4.54102659225464,-1.9600303173065186,9.409967422485352,-0.2404448688030243,-0.5025936961174012,0.09144429862499237
4.761924266815186,-1.9342210292816162,9.259572029113771,-0.24217788875103,-0.5822147727012635,0.09062646329402924
5.032632350921632,-1.7974265813827517,9.088048934936523,-0.24110296368598938,-0.6240597367286683,0.08965609967708588
5.157541275024414,-2.037233829498291,8.861568450927734,-0.22857704758644104,-0.6282494664192201,0.08839093893766405
5.348788261413574,-1.9752851724624636,8.71803092956543,-0.21526752412319186,-0.6183469295501709,0.08910585194826127
5.4216461181640625,-2.1728148460388184,8.652238845825195,-0.18686778843402865,-0.5757400393486024,0.0777912586927414
5.3084564208984375,-2.175073385238648,8.670752525329592,-0.16762952506542209,-0.5356794595718384,0.06455858796834947
5.133283615112305,-2.2166213989257812,8.563879966735842,-0.17415830492973328,-0.4980060160160065,0.051497761160135276
5.316766738891602,-2.2569990158081055,8.688390731811523,-0.1754599362611771,-0.468879759311676,0.03008934669196606
5.58620548248291,-2.3586432933807377,8.497302055358888,-0.1575306206941605,-0.4424013793468476,0.008855463936924934
5.529044151306152,-2.3554396629333496,8.363802909851076,-0.13503487408161166,-0.3923797607421875,0.006063294131308795
5.4602017402648935,-2.3479604721069336,8.435402870178224,-0.11859118193387987,-0.3501371145248413,-0.00811864621937275
5.472936630249023,-2.426933765411377,8.445960044860842,-0.09809231758117676,-0.31168529391288763,-0.028713177889585495
5.7459211349487305,-2.646211624145508,8.131515502929688,-0.07349597662687303,-0.2412209659814835,-0.04477549344301224
5.7485761642456055,-2.408946752548218,8.259880065917969,-0.029636163264513016,-0.162294015288353,-0.059034354984760284
5.536416053771973,-2.28770112991333,8.36360836029053,-0.003770786803215742,-0.10265434533357622,-0.06675855070352556
5.326458930969238,-2.3199238777160645,8.573192596435547,0.008354535326361656,-0.0836780145764351,-0.07760457694530487
5.160198688507081,-2.240668058395386,8.728800773620607,0.020080393180251125,-0.10355565696954729,-0.0960925817489624
5.106534004211426,-2.1449103355407715,8.859886169433594,0.02516136504709721,-0.15815675258636475,-0.11216799169778825
5.24296760559082,-2.2495305538177495,8.631642341613771,0.028195554390549663,-0.20565858483314514,-0.13895657658576965
5.367125988006593,-1.6623897552490234,8.810174942016602,0.011546820402145386,-0.2526592314243317,-0.15080711245536804
5.21424674987793,-1.4474153518676758,8.949478149414062,-0.020885476842522625,-0.3015101850032807,-0.1425398886203766
4.876835346221925,-1.561035394668579,9.036296844482422,-0.05843548104166985,-0.3966127634048462,-0.1410537511110306
4.824285030364991,-1.9797940254211426,9.051959037780763,-0.07381611317396165,-0.5311137437820435,-0.16761687397956848
4.748594284057617,-2.2112214565277104,9.28324604034424,-0.07876652479171753,-0.6941756606101991,-0.20785823464393616
4.890289306640625,-2.1975662708282475,9.285778045654297,-0.07281940430402757,-0.8612303137779237,-0.23975875973701477
4.831352233886719,-2.285021543502808,9.183341026306154,-0.02713495679199696,-1.0447614192962646,-0.26872524619102484
5.008863925933839,-2.264505386352539,9.165348052978516,-0.017549417912960052,-1.2389339208602907,-0.31848946213722235
5.359928131103516,-1.8010578155517578,9.162569999694826,-0.024923657998442653,-1.4675664901733398,-0.3344206511974335
5.318424224853516,-1.6460332870483398,9.226715087890625,-0.021688299253582958,-1.6684631109237673,-0.34251588582992554
5.385833740234375,-1.6463731527328493,9.225606918334961,-0.03830546885728836,-1.9599176645278933,-0.34088486433029175
5.222088813781738,-1.507908582687378,9.222686767578125,-0.0574156902730465,-2.2842307090759277,-0.3278024196624756
5.575275421142578,-1.4077229499816895,9.103627204895021,-0.07357297837734222,-2.673040628433228,-0.2972198724746704
5.679010391235352,-1.3517100811004639,9.263590812683107,-0.1034960523247719,-3.107266187667847,-0.27559447288513184
5.8592238426208505,-0.8820505738258363,9.228026390075685,-0.1314405053853989,-3.545065402984619,-0.23946850001811984
7.009936332702637,-0.20505125820636752,9.743361473083498,-0.22495770454406738,-3.9769828319549565,-0.11145421117544176
8.392645835876467,-0.6521308422088623,10.996518135070803,-0.32455256581306463,-4.303323745727539,0.0798570141196251
10.225837707519531,-1.8009722232818604,12.332681655883789,-0.4338530898094177,-4.383145332336426,0.2531397640705109
11.111237525939943,-4.192401409149171,12.462791442871094,-0.5118836760520936,-4.253381729125977,0.33003893494606024
13.757171630859375,-6.994972229003906,12.742725372314453,-0.1991865634918213,-4.14776372909546,0.1516830772161484
17.88744354248047,-7.430171012878418,13.70029067993164,0.17454653978347778,-3.923890829086304,-0.08330193161964417
21.055797576904297,-6.935171127319336,10.935193061828615,0.5047698616981507,-3.690755128860474,-0.40420252084732056
27.877016067504886,-5.152983188629151,7.045892715454102,0.5228446125984193,-3.5818233489990234,-0.7796574234962464
31.70941925048828,-4.256974220275879,4.792445182800293,0.4455175995826721,-3.615498304367066,-1.2491563558578493
32.902355194091804,-2.698514461517334,6.526370525360108,0.09049394726753235,-3.150084257125855,-1.4605700969696045
31.897779464721683,-1.287548899650574,6.649713516235352,-0.6495346426963807,-3.1977589130401616,-1.8089773654937744
39.83863067626953,-6.4431915283203125,18.364593505859375,-1.0798305273056032,-2.381336212158203,-2.336037397384644
26.29085731506348,-7.085321426391602,14.743949890136719,-1.3310747146606445,-1.2764414548873904,-2.206187009811402
20.314472198486328,-6.403814315795898,10.938052177429201,-1.4089275598526003,-1.21053147315979,-2.19045901298523
15.542946815490724,-7.424683570861816,9.308268547058107,-1.225907802581787,-1.3522446155548096,-2.188763856887818
12.687347412109375,-7.763132095336914,9.283034324645998,-0.8654371500015259,-1.6882804632186892,-2.1544737815856934
12.943739891052248,-7.511023998260499,11.504037857055664,-0.43477162718772894,-1.7778184413909912,-2.022073268890381
11.453916549682617,-6.724156856536866,13.013240814208984,-0.0040587326511740685,-1.4453941583633425,-1.756380558013916
8.791116714477539,-5.588534355163574,14.083851814270021,0.3101624548435212,-0.906164586544037,-1.531050443649292
5.392169952392578,-4.3277554512023935,13.883212089538576,0.4598770439624787,-0.19996872544288635,-1.306403994560242
1.28094482421875,-3.5036673545837402,12.178703308105469,0.5028128027915956,0.4330524802207947,-1.1275792121887207
-2.2418642044067383,-3.4500012397766113,9.794743537902834,0.5557953715324403,0.9031045436859131,-0.9441441893577577
-3.9203438758850098,-2.7645092010498047,8.60980224609375,0.5710903406143188,1.255932092666626,-0.7770413756370546
-4.0184063911438,-1.923372507095337,8.10455322265625,0.4243723750114441,1.6750160455703738,-0.4924866557121277
-4.989539623260499,-2.662103891372681,6.929278850555421,0.33051443099975586,2.1398413181304936,-0.15102581679821017
-6.430528163909913,-3.4897410869598393,5.495662212371827,0.4212118983268738,2.476268529891968,0.16501769423484802
-7.539354801177979,-2.868330478668213,3.8562152385711674,0.571035623550415,2.668393611907959,0.49628707766532904
-8.958872795104982,-1.1976873874664307,2.0086541175842285,0.5604860186576844,2.718238353729248,0.7997482419013978
-8.99358654022217,-0.003460773266851902,0.9286980628967285,0.28803482651710516,2.6858720779418945,1.0962700843811035
-9.203238487243654,-0.3215876519680024,-0.1304936707019806,0.040586303919553764,2.629176139831543,1.3506065607070925
-8.851024627685547,-0.5317494869232178,-0.6553691625595093,-0.02806673385202885,2.5424430370330815,1.5429332256317139
-8.154451370239258,0.039927639067173004,-0.8282198309898378,-0.030323987826704982,2.4833054542541504,1.6910094022750857
-7.007562160491944,0.6462410092353822,-0.6073064208030702,-0.06184610724449158,2.5084321498870854,1.7969323396682741
-5.851203441619874,1.0840963125228884,-0.3973006010055542,-0.09806530177593231,2.617721319198609,1.8611037731170654
-4.784754753112793,1.6784915924072266,-0.4548453688621521,-0.13853983581066134,2.787328481674195,1.8863186836242676
-4.027935981750488,2.366094827651978,-0.9304190278053285,-0.17606788873672485,2.957764863967896,1.8490817546844482
-2.9265918731689453,2.9494836330413823,-1.0861066579818728,-0.21090380847454074,3.044121742248535,1.7176437377929688
-0.617520034313202,3.2282998561859135,-0.13281017541885376,-0.23369999229907992,3.140493392944336,1.4942837953567507
1.8864176273345947,3.3807237148284917,0.6750090718269349,-0.21982553601264954,3.308206558227539,1.1876403093338015
4.543550491333008,3.5631034374237065,1.1675336360931396,-0.19504402577877047,3.4838814735412598,0.8223412632942201
7.2412261962890625,2.892385482788086,0.9389551281929017,-0.15773242712020874,3.6194131374359135,0.4088521301746369
9.575942993164062,1.890885829925537,0.1272286027669907,-0.022597435861825943,3.6364419460296635,-0.0016194358468055725
11.691172599792482,1.5910717248916628,-0.27417832612991333,0.08309782296419145,3.5189063549041752,-0.2916538715362549
14.860142707824709,0.7728495001792909,0.301907628774643,0.07804095000028612,3.3629508018493652,-0.41993322968482977
18.030836105346683,-0.5644375681877137,0.6347860693931581,0.12936614453792575,3.20444917678833,-0.39081424474716187
20.17668914794922,-1.3358514308929443,-0.08597680926322937,0.26954504847526556,2.9391660690307617,-0.22551353275775912
20.78561019897461,-1.4887379407882693,-1.2916603088378906,0.42361328005790716,2.4681160449981694,0.015178196132183075
20.190784454345703,-0.5863735675811768,-2.0465521812438965,0.5088701844215394,1.8320729732513428,0.27365812659263616
18.927616119384766,-0.11491717398166656,-2.391631603240967,0.5089662671089173,1.1629507541656494,0.48151254653930664
15.158687591552734,-0.0010972917079925537,-5.36400032043457,0.5007550716400146,0.431104987859726,0.647547721862793
29.980548858642578,7.320472240447999,-6.573149681091309,-0.3760702610015869,-0.888684868812561,0.8565942645072938
76.01264953613281,5.334609031677246,55.44821548461915,-2.4991683959960938,1.6918536424636843,0.9843623638153076
-11.356821060180664,-3.3724985122680664,-14.88386344909668,-0.12863002717494967,3.0818347930908203,0.5205370187759399
9.611249923706055,-3.407238483428955,19.127626419067386,-0.5851466059684755,2.284054756164551,1.0728675127029421
-2.8670699596405034,0.048356831073760986,11.952275276184084,-0.6713783144950868,2.180547952651978,0.392383337020874
-1.5957795381546023,-13.622501373291016,10.257637023925781,0.06352367252111436,2.3082265853881836,-0.25798347592353826
4.136061668395996,-10.874204635620117,12.024478912353516,0.5429754257202148,1.4911750555038454,-0.5275335907936097
-0.30979233980178833,0.7477859258651733,12.668357849121094,0.5666723847389222,0.709900975227356,-0.5700446963310243
3.609076976776123,3.4624314308166504,12.03597927093506,0.24739621579647067,0.14447544515132907,-0.5337100028991699
6.517271518707276,3.447856664657593,10.52813243865967,-0.061714973300695426,-0.18953320384025574,-0.17873485386371615
6.522161483764648,1.1186699867248535,9.176511764526367,-0.21264116466045382,-0.18935048580169678,0.12188407778739929
5.945101261138917,-3.5942313671112065,7.876949310302734,-0.20587159693241122,-0.029345598071813583,0.16191072762012484
5.265100479125977,-3.896949291229248,8.337759971618654,-0.050911363214254386,0.13988576829433444,0.06666533648967743
4.872956275939941,-1.4609960317611697,9.299093246459961,0.013980269432067871,0.21047456562519076,0.02330365777015686
4.751001834869386,-0.30026382207870483,9.871361732482912,-0.042918544262647636,0.1955491006374359,0.09032905101776123
4.469011306762695,-0.8278838396072388,9.808373451232912,-0.1295166313648224,0.14369492232799533,0.163344144821167
4.439349651336671,-1.572845220565796,9.628445625305178,-0.16734994947910312,0.08041024953126909,0.17495256662368774
4.475300312042237,-1.9356975555419922,9.559834480285646,-0.17741294205188754,0.028892960399389267,0.1570924371480942
4.543879508972168,-1.8383859395980837,9.56521224975586,-0.17245979607105258,-0.01812060922384262,0.13010215759277344
4.590734481811523,-1.650215029716492,9.557620048522951,-0.1771928071975708,-0.04904783889651299,0.12751632928848267
4.639297962188722,-1.567115902900696,9.493452072143555,-0.18268783390522006,-0.08326343446969987,0.1309758424758911
4.687625885009766,-1.5797691345214844,9.475943565368654,-0.20352648198604587,-0.1009124368429184,0.14767308533191684
4.561077117919922,-1.581484317779541,9.44832992553711,-0.22064791619777682,-0.140470951795578,0.14140447974205017
4.8338422775268555,-1.786250352859497,9.37912368774414,-0.2329784333705902,-0.13800598680973056,0.15913018584251404
4.6706695556640625,-2.291428565979004,9.12076187133789,-0.1998081058263779,-0.16874487698078158,0.11359356343746185
4.976062774658203,-1.6544973850250244,9.373117446899414,-0.1947702914476395,-0.15941190719604492,0.12250179797410966
4.577767848968507,-2.1563868522644043,9.096331596374513,-0.16963443160057068,-0.13834024965763095,0.1200038567185402
5.034046173095703,-1.7584185600280762,9.297966957092287,-0.17129087448120117,-0.14034904539585116,0.1140407919883728
4.679655551910401,-1.9881908893585205,9.008935928344727,-0.14917093515396118,-0.11000895500183105,0.11739540845155717
4.9656643867492685,-1.8049966096878054,9.275043487548828,-0.16410817205905917,-0.09729619324207306,0.11674723774194719
4.648346424102784,-2.3606667518615723,8.91850471496582,-0.1236930787563324,-0.06284103542566301,0.10291784256696702
5.044762134552003,-2.2051072120666504,9.080562591552734,-0.10662716627120972,-0.03618427738547326,0.08951717615127563
4.806995391845703,-2.502475500106812,8.709713935852053,-0.0547071173787117,0.028875835239887238,0.07811904698610307
4.939339637756348,-2.2405595779418945,8.92488193511963,-0.03236291185021401,0.05023994296789169,0.06249844655394555
4.798452377319336,-2.4743762016296387,8.857916831970217,0.0038250207435339694,0.12025848031044006,0.05871819704771042
4.752902030944824,-2.551055908203125,8.79576301574707,0.040064495056867606,0.15326431393623352,0.034784305840730674
4.819892883300781,-2.38706636428833,8.869687080383303,0.09344643354415894,0.1827920377254486,0.015370043925940992
4.784982681274414,-2.4082248210906987,8.811136245727539,0.13747259974479675,0.2182559818029404,0.00716455839574337
4.521083831787109,-2.1189157962799077,9.110113143920898,0.16548490524291992,0.24417842924594882,0.004700012970715762
4.2604641914367685,-1.8390069007873535,9.255308151245117,0.1624477952718735,0.2135297954082489,-0.007483049761503936
3.9349899291992188,-2.220712184906006,8.94044303894043,0.15051314234733582,0.18183216452598572,-0.014262421987950804
3.92356538772583,-2.00857949256897,9.398303031921388,0.14830029010772705,0.09126641601324083,-0.0396341010928154
3.860891819000244,-1.476395845413208,9.632795333862305,0.12355428189039232,0.009595420211553574,-0.06825092434883118
3.7599165439605717,-1.4299116134643555,9.628085136413576,0.08496350795030595,-0.09420010447502136,-0.0944964960217476
3.919466495513916,-1.4148075580596924,9.730921745300295,0.04719620943069458,-0.1944466531276703,-0.11915465444326402
4.1196656227111825,-1.6517630815505984,9.67733669281006,0.002606397727504373,-0.27497607469558716,-0.13756932318210605
4.315371513366699,-1.4071913957595827,9.681263923645021,-0.03942490741610528,-0.3460924029350281,-0.1500113308429718
4.344852447509766,-1.1155900955200195,9.792431831359865,-0.1015642210841179,-0.42739105224609375,-0.13796852529048922
4.262078285217285,-1.665698766708374,9.862545967102053,-0.158655658364296,-0.5240041613578797,-0.12975558638572693
4.497191905975343,-1.5238683223724365,9.998290061950685,-0.20936965942382812,-0.636234223842621,-0.13497492671012878
4.390829086303711,-1.4162921905517578,9.909427642822266,-0.27030444145202637,-0.7580462098121644,-0.1364698559045792
4.2692322731018075,-1.670788049697876,9.776232719421388,-0.3234737515449524,-0.9181305766105653,-0.137556791305542
3.7176380157470703,-1.501458287239075,9.906958580017092,-0.40215539932250977,-1.151879072189331,-0.15587936341762546
3.5671167373657227,-1.1121432781219482,10.13462543487549,-0.4644987285137177,-1.4675312042236328,-0.15675087273120883
3.6134626865386967,-1.0600718259811404,10.078700065612795,-0.555513083934784,-1.7951788902282715,-0.1959908902645111
3.039016962051392,-2.8980965614318848,10.20206928253174,-0.49599695205688477,-2.1567337512969975,-0.24680382013320923
3.5692799091339116,-2.0154576301574707,9.825239181518555,-0.36711654067039495,-2.624543905258179,-0.31984376907348633
4.516476631164551,-1.9489572048187256,9.581756591796875,-0.35921469330787664,-3.027939796447754,-0.3827467262744904
4.475529670715332,-1.9534181356430056,9.422639846801758,-0.35199609398841863,-3.4854307174682617,-0.4129894971847534
5.523560523986816,-2.4042153358459473,9.562494277954102,-0.3080826997756958,-3.939520120620728,-0.44426631927490234
5.304772853851319,-1.8947533369064333,9.194048881530763,-0.2414875626564026,-4.403202056884766,-0.45980009436607366
6.813875675201417,-1.4770592451095583,10.0302734375,-0.2796252965927124,-4.85388994216919,-0.3436076045036316
7.480081081390382,-1.6202003955841064,11.018834114074709,-0.3686148524284363,-5.1572632789611825,-0.1536633223295212
9.78120517730713,-3.787866830825806,12.497817993164062,-0.45594513416290283,-5.256762981414796,-0.027356714010238647
12.232355117797852,-5.209939479827882,13.297465324401857,-0.40181082487106323,-5.0662946701049805,-0.0016492010327056052
15.873986244201662,-7.454966068267823,13.330265998840334,-0.008330423384904861,-4.791905879974366,-0.20251986384391785
19.62925529479981,-8.173238754272461,12.629626274108888,0.5897400379180908,-4.492825984954835,-0.4591538608074189
25.775604248046875,-5.752237796783448,8.89980983734131,0.8991997838020326,-4.255671501159668,-0.7537485957145692
27.89239501953125,-4.946135044097901,3.3329906463623047,1.068117618560791,-4.065410614013672,-1.267999053001404
32.77701950073243,-3.5630986690521245,5.232844352722168,1.0090203285217285,-3.9731700420379643,-1.6687824726104736
28.51689720153809,-0.5365071892738343,3.805557489395142,0.7902392745018006,-3.7226133346557617,-2.2317323684692383
36.136749267578125,0.3014989793300629,8.29266357421875,-0.08765634894371033,-3.8322045803070073,-2.6061196327209473
37.06627655029297,-3.053726434707642,17.020416259765625,-0.9987725615501405,-2.437601804733277,-2.5904316902160645
24.82419013977051,-4.356126308441163,11.791919708251953,-1.7309763431549072,-1.4583765268325808,-2.285179615020752
21.59493637084961,-6.741866111755371,10.62803840637207,-1.888871192932129,-1.2138103246688845,-2.2032029628753667
16.1226806640625,-8.380906105041506,8.809282302856445,-1.6162198781967165,-1.1359953880310059,-2.0222218036651616
13.511876106262209,-9.452254295349123,8.671584129333498,-1.023994565010071,-1.2600680589675906,-1.8873932361602783
11.948422431945803,-8.867606163024904,10.347659111022951,-0.27909633517265325,-1.2040178775787354,-1.6764694452285769
