AccX,AccY,AccZ,GyrX,GyrY,GyrZ
2.1356749130063694e-05,-7.899329830252101e-06,5.1530940254451714e-05,-3.3664306897662755e-08,-6.17911268818716e-08,-4.7448448725617716e-08
4.015733242034913,-1.4456050395965576,9.660593032836914,-0.00398397259414196,-0.010805255733430387,-0.008064936846494675
3.999197483062744,-1.451064109802246,9.676420211791992,-0.0040519251488149175,-0.011734159663319588,-0.008743539452552795
3.988765239715576,-1.4975303411483767,9.66744136810303,-0.0021126715000718836,-0.011953068897128105,-0.008359084837138655
3.9950003623962402,-1.4683904647827148,9.708325386047365,-0.0013327975757420063,-0.013641392812132835,-0.011156956665217878
4.018051624298097,-1.4381707906723025,9.709914207458498,-0.003244314808398485,-0.01693295128643513,-0.013119081035256386
4.0308804512023935,-1.4389923810958865,9.654515266418459,-0.00593976117670536,-0.015658656135201458,-0.011740163899958135
4.021245002746582,-1.4563645124435427,9.662838935852053,-0.0028325554449111228,-0.014655867591500282,-0.011289014481008055
3.996150016784668,-1.477295756340027,9.635247230529787,-0.00231401133351028,-0.012097370810806753,-0.009690484032034874
4.038866519927979,-1.477501630783081,9.702184677124023,0.00012791996414307508,-0.013622026890516281,-0.011981570161879064
4.04670286178589,-1.455373764038086,9.681787490844727,-0.00028597706113941973,-0.012343155220150948,-0.011446559801697731
4.015088558197022,-1.4594008922576904,9.700521469116211,0.00010085319081554191,-0.010705621913075447,-0.010892760939896108
3.9984889030456543,-1.4619208574295046,9.676946640014648,0.0002381094818701968,-0.01010838430374861,-0.012434404343366623
3.9832677841186523,-1.4851136207580566,9.674816131591797,-0.00021488539641723037,-0.010872357524931433,-0.010843977332115173
3.9762756824493413,-1.4992231130599978,9.701683998107912,0.0001650688936933875,-0.01721298508346081,-0.013759608380496504
4.025678157806397,-1.4552032947540283,9.667390823364258,-1.0466217645443976e-05,-0.018718635663390163,-0.015384761616587639
4.044827938079835,-1.4336795806884766,9.689442634582521,-0.0013702568830922248,-0.017351606860756878,-0.015961870551109314
4.028896331787109,-1.4529156684875488,9.666067123413086,-0.0021520366426557307,-0.01639435440301895,-0.012587777338922026
3.994669675827027,-1.4341259002685547,9.690744400024414,-0.0025567756965756416,-0.019127374514937404,-0.013077492825686933
4.01429319381714,-1.4675092697143555,9.674402236938477,-0.005021505523473025,-0.018536992371082306,-0.012515715323388578
4.026943206787109,-1.4463636875152588,9.690814971923828,-0.004849458113312721,-0.018692247569561005,-0.011886102147400381
4.034498691558839,-1.4465141296386719,9.689554214477539,-0.004602377768605948,-0.018304191529750824,-0.010577849112451078
4.0278077125549325,-1.4626230001449587,9.684953689575195,-0.0032421729993075137,-0.016499608755111694,-0.009205715730786324
4.028554916381836,-1.4720028638839724,9.651870727539062,-0.0021660712081938986,-0.015569385141134262,-0.010491906665265562
4.027793407440186,-1.4521552324295046,9.65850830078125,-0.0020967710297554736,-0.014039405621588232,-0.009298060089349747
4.040355682373047,-1.436075568199158,9.707503318786623,-0.0028499988839030266,-0.015295165590941908,-0.009121319279074669
4.028454303741456,-1.4633586406707764,9.704507827758789,-0.0007338946452364326,-0.013686317019164564,-0.009415323846042158
4.008414268493652,-1.4773979187011719,9.667683601379396,-0.0020826468244194984,-0.01384431403130293,-0.009822182357311249
3.991547822952271,-1.4699376821517947,9.683299064636232,-0.001700028660707176,-0.014587939716875555,-0.010682715103030205
4.028425216674805,-1.447751522064209,9.689263343811037,-0.0029610367491841316,-0.01496765110641718,-0.010987170040607452
4.039665699005128,-1.4389622211456299,9.711401939392092,-0.0036569775547832255,-0.015562182292342186,-0.010572582483291626
4.023544788360597,-1.4654918909072878,9.657112121582031,-0.002595992758870125,-0.01572520472109318,-0.009779803454875946
4.017827987670898,-1.4602321386337282,9.650942802429201,-0.0011404806282371283,-0.01458364725112915,-0.00966166239231825
4.017022132873535,-1.4899227619171143,9.660744667053224,-0.00018747057765722275,-0.014970538206398489,-0.011318322271108627
4.019628047943116,-1.4785579442977907,9.686773300170898,0.0010646716691553593,-0.01524628419429064,-0.013379524461925031
4.013745307922363,-1.497101426124573,9.681320190429688,0.0027913560625165705,-0.013744743540883064,-0.0156910102814436
4.026142120361328,-1.4326050281524658,9.666138648986818,0.003257524454966188,-0.016906475648283962,-0.014700120314955711
4.02706241607666,-1.4285938739776611,9.684459686279297,3.28884125337936e-05,-0.016314843669533733,-0.011422738432884216
3.9832036495208745,-1.4763779640197754,9.70328140258789,-0.0021511996164917946,-0.017942218109965328,-0.014206414110958578
4.016667842864991,-1.4482755661010742,9.67296886444092,-0.0012073080288246276,-0.020425699651241302,-0.014948305673897268
4.014575481414796,-1.4702563285827637,9.655820846557617,-0.004752545151859523,-0.021080506965518,-0.012779856100678444
3.9686989784240723,-1.5073963403701784,9.701746940612795,-0.005649736151099205,-0.022729145362973217,-0.014121396467089653
3.9896423816680913,-1.4725471735000613,9.700329780578615,-0.006372433621436358,-0.026208244264125824,-0.01795709878206253
4.021201133728027,-1.4673556089401247,9.681680679321289,-0.006603640038520099,-0.029427461326122284,-0.01972051896154881
4.050010204315186,-1.4831314086914062,9.65908718109131,-0.004997239913791419,-0.029317555949091915,-0.02070397511124611
4.02712345123291,-1.409027338027954,9.653406143188477,-0.003441066015511751,-0.029307989403605465,-0.01953810825943947
4.028254032135011,-1.4626059532165527,9.622923851013185,-0.0046837939880788335,-0.028185982257127762,-0.018964510411024094
4.006989002227784,-1.4629015922546387,9.697201728820803,-0.005666953045874835,-0.03415665775537491,-0.020916504785418514
4.061132431030273,-1.486717939376831,9.663671493530273,-0.008496680296957495,-0.035077515989542014,-0.02254849672317505
4.068713665008546,-1.4634541273117068,9.659360885620117,-0.006520882248878479,-0.03368340805172921,-0.022218652069568634
4.038226127624512,-1.5370168685913086,9.699037551879883,-0.0027312999591231346,-0.03183394297957421,-0.02519347704946995
4.065288543701172,-1.4838321208953857,9.723909378051758,-6.570421828655527e-05,-0.03482567518949509,-0.027180934324860576
4.082388401031495,-1.4335316419601443,9.687591552734375,-0.00030885706655681133,-0.03624732792377472,-0.027620846405625347
4.150411605834961,-1.4520167112350466,9.655610084533693,0.0002671148104127497,-0.02953052520751953,-0.024266144260764125
4.131034374237061,-1.4308841228485107,9.628865242004396,0.003254424314945936,-0.021161058917641643,-0.020527189597487453
4.112467288970948,-1.4687917232513428,9.649815559387209,0.005634687375277282,-0.01631241664290428,-0.019217519089579586
4.063821792602539,-1.4522950649261475,9.670852661132812,0.007270781323313713,-0.01369420625269413,-0.01906862296164036
4.066730499267578,-1.4713349342346191,9.666848182678224,0.006979245692491531,-0.014871035702526571,-0.018069162964820862
4.040473461151124,-1.45082688331604,9.678900718688967,0.006200081203132869,-0.015199124813079834,-0.018146313726902008
4.07643747329712,-1.4396001100540163,9.67485237121582,0.001597352558746934,-0.01733220182359219,-0.01672631874680519
4.082979202270508,-1.4510829448699951,9.666143417358398,0.00046810359344817703,-0.015380111522972586,-0.014313913881778717
4.098073959350586,-1.4231467247009277,9.697878837585451,-0.0010516352485865355,-0.011839234270155432,-0.01373935304582119
4.110878944396973,-1.4379261732101443,9.699727058410646,-0.0004847138479817659,-0.009595748037099838,-0.010054217651486397
4.112920284271241,-1.435795783996582,9.656696319580078,0.0010223467834293842,-0.0065559227950871,-0.008390368893742561
4.095251083374023,-1.4516056776046755,9.656041145324709,-0.0002481143164914102,-0.0030224591027945284,-0.0054086847230792046
4.053396701812745,-1.4897431135177615,9.64933490753174,0.001994222402572632,-0.0033558688592165713,-0.005137632600963116
4.058519840240479,-1.4622650146484375,9.699687004089357,0.0007453107973560691,-0.003494524629786611,-0.006888718809932471
4.039764881134034,-1.4604016542434695,9.6580810546875,0.00030951236840337515,-0.002080683829262853,-0.0043625738471746445
4.029824256896973,-1.4727463722229004,9.683788299560547,0.0008137180120684208,-0.004213485401123763,-0.006094040349125862
4.075867176055909,-1.469022512435913,9.686351776123047,0.0005796945188194513,-0.004680370446294547,-0.007681363262236118
4.070340633392335,-1.4643421173095703,9.687491416931154,3.6347504646983e-05,-0.003974138293415309,-0.007238160353153945
4.06791877746582,-1.4697393178939822,9.702755928039553,0.0022048144601285458,-0.002949006156995893,-0.006552048027515411
4.06941032409668,-1.4919048547744753,9.668609619140625,0.006128983572125435,0.0003995334845967591,-0.005959466565400363
4.078841209411621,-1.4418784379959109,9.648956298828125,0.009624174796044828,0.004698498174548149,-0.005782905500382186
4.042851924896241,-1.454911231994629,9.674259185791016,0.009714329615235329,0.004806874785572291,-0.006287456955760718
4.015106201171875,-1.4910061359405518,9.684041023254396,0.009799382649362089,0.004536781460046768,-0.007290076930075885
4.019250392913819,-1.4472944736480713,9.668797492980959,0.011832399293780327,0.0021624057553708553,-0.00976675469428301
4.019587516784668,-1.4489408731460574,9.67716693878174,0.009743758477270605,-0.001194588141515851,-0.009926044382154943
4.024405479431152,-1.4434555768966677,9.739869117736818,0.0055675418116152295,-0.003705631010234356,-0.009762031957507133
4.05767822265625,-1.422102451324463,9.7152099609375,0.0033089898061007266,-0.006827722303569317,-0.010891654528677465
4.073941707611085,-1.4197874069213867,9.669911384582521,0.0004930435097776354,-0.008406647481024267,-0.009333593770861626
4.054742336273194,-1.4391001462936404,9.671836853027344,0.00019611004972830415,-0.005779142025858165,-0.008025992661714554
4.045576095581055,-1.4459246397018435,9.651628494262695,0.000771581893786788,-0.006215228233486415,-0.007644216064363719
4.046701431274414,-1.4751871824264529,9.657386779785156,0.004237794317305088,-0.002457792637869716,-0.008303042501211166
4.04688835144043,-1.460132956504822,9.67239284515381,0.004867786541581154,-0.003076082095503807,-0.008754835464060308
4.036314010620117,-1.4644479751586914,9.695271492004396,0.006816331297159195,-0.0018402402056381109,-0.007475988008081913
4.032107830047608,-1.436495065689087,9.687112808227539,0.004676861688494682,-0.004914927762001754,-0.008202665485441686
4.034518241882324,-1.488709092140198,9.687947273254396,0.00620970968157053,-0.00395681755617261,-0.01042507030069828
3.9879279136657715,-1.4664080142974854,9.67718029022217,0.005885758437216282,-0.0065955957397818565,-0.010955425910651686
4.020461559295655,-1.4488625526428223,9.695494651794435,0.0054591489024460324,-0.007860062643885612,-0.011420781724154951
4.0676007270813,-1.4145774841308594,9.70045280456543,0.0041250702925026425,-0.00983387976884842,-0.009992135688662529
4.056725978851319,-1.4471533298492432,9.651496887207031,0.0026458599604666233,-0.00900587532669306,-0.009393846616148949
4.05833625793457,-1.4649693965911865,9.685806274414062,0.0034924403298646216,-0.006820162292569877,-0.008683579042553902
4.044876575469972,-1.4406312704086306,9.660831451416016,0.0034717703238129616,-0.00519835064187646,-0.00914021022617817
4.03781795501709,-1.4796317815780642,9.681509971618654,0.0028319666162133217,-0.005299759563058616,-0.009235684759914877
4.033008575439453,-1.463684320449829,9.689589500427248,0.005285918712615967,-0.00401205336675048,-0.009460244327783585
4.0157928466796875,-1.4423772096633913,9.687972068786623,0.0022071974817663436,-0.005905742291361094,-0.011918021366000175
4.073993206024171,-1.4574546813964844,9.686909675598146,0.0030211985576897864,-0.006365486420691013,-0.009928560815751554
3.9836511611938477,-1.4561120271682741,9.680037498474123,0.0025163788814097647,-0.006708985194563866,-0.010149514302611351
4.049413204193116,-1.4065542221069336,9.677954673767092,0.0027202160563319926,-0.00953211635351181,-0.012163394130766393
4.058147430419922,-1.4285954236984255,9.706593513488771,0.0022553415037691593,-0.00764071848243475,-0.011391690932214262
4.040602684020996,-1.416686773300171,9.681594848632812,0.0017314284341409805,-0.009450532495975494,-0.007904416881501676
4.043352127075195,-1.4642469882965088,9.670347213745117,0.0011314405128359795,-0.009331940673291685,-0.009252578951418402
4.039695739746094,-1.440214514732361,9.691664695739748,0.0022041918709874153,-0.01238790061324835,-0.009754996746778488
3.995175838470459,-1.459177613258362,9.672321319580078,0.0014149344060570002,-0.012333773076534271,-0.011382388882339002
4.024175643920898,-1.4727758169174197,9.693632125854492,-0.0003331086190883071,-0.01473526656627655,-0.013396129943430425
4.0551819801330575,-1.4512972831726074,9.677693367004396,0.003450931748375297,-0.013237124308943748,-0.013318143784999847
4.043952465057374,-1.4128621816635134,9.675782203674318,0.003354278160259128,-0.01231720857322216,-0.011590450070798399
4.045871734619141,-1.4570943117141726,9.711183547973633,-0.0003215526230633259,-0.013635490089654922,-0.00983229372650385
4.052558422088624,-1.446340560913086,9.695078849792482,0.00016992563905660066,-0.013168573379516602,-0.009784924797713758
4.060793399810792,-1.4239146709442139,9.677330017089844,-0.0020563013385981326,-0.012550478801131248,-0.008782818913459778
4.043095111846925,-1.4699952602386475,9.683119773864748,-0.0031518833711743355,-0.011277596466243269,-0.009162439033389091
4.067183017730714,-1.4465641975402832,9.6681604385376,-0.0017150636995211246,-0.01083862315863371,-0.008562309667468071
4.058282852172852,-1.4471615552902224,9.653208732604982,-0.002204780234023929,-0.011171204969286919,-0.007243413943797351
4.03702211380005,-1.4687702655792236,9.672733306884766,-0.0013175471685826778,-0.009662906639277937,-0.008229042403399946
4.035626411437988,-1.471132516860962,9.674293518066406,-0.0001648101751925424,-0.010091586038470268,-0.010146320797502996
4.06174373626709,-1.4513927698135378,9.664504051208498,0.0007626498700119556,-0.00989880505949259,-0.007792968302965164
4.040174961090089,-1.4619292020797732,9.65969753265381,0.003656180808320642,-0.007343314588069916,-0.011473794467747213
4.036127567291261,-1.4591095447540283,9.65130615234375,0.0038183478172868495,-0.00843607448041439,-0.008894817903637886
3.9965240955352788,-1.4717974662780762,9.684206008911133,0.0031034003477543597,-0.010876467451453209,-0.011764182709157469
4.053518772125245,-1.4507174491882324,9.66495990753174,0.00233213440515101,-0.011267191730439665,-0.012546630576252937
4.053607463836671,-1.4326331615447998,9.666513442993164,0.000879381608683616,-0.01300378143787384,-0.01282512489706278
4.041064739227296,-1.437495231628418,9.67194938659668,0.00034937434247694915,-0.012723157182335854,-0.010016128420829773
4.047475814819336,-1.4428071975708008,9.673634529113771,0.0017279650783166291,-0.011202288791537285,-0.010652572847902777
4.048825263977051,-1.4616293907165527,9.681291580200195,0.0004887327086180449,-0.009903104975819588,-0.010818156413733961
4.047914981842042,-1.4743181467056277,9.678997039794922,0.0025575242470949893,-0.008685031905770302,-0.008275869302451612
4.041385173797608,-1.458783030509949,9.687838554382326,0.00022540634381584823,-0.009426432661712171,-0.010309188626706602
4.024895191192628,-1.4586684703826904,9.68544673919678,0.0011509094620123508,-0.008773371577262878,-0.01025539916008711
4.035556316375733,-1.4959187507629395,9.664861679077148,0.00401730788871646,-0.008755535818636419,-0.011190207675099373
4.0450897216796875,-1.459806203842163,9.687227249145508,0.004102649167180061,-0.008466503582894804,-0.01173987053334713
4.058900833129883,-1.4727599620819092,9.675626754760742,0.005314888432621956,-0.00645720073953271,-0.01189038995653391
4.0240187644958505,-1.439014196395874,9.67057991027832,0.007330677006393672,-0.004827931523323059,-0.011143838055431845
4.067293643951417,-1.469569206237793,9.683327674865724,0.008552797138690948,-0.004989803768694401,-0.013141131959855558
4.049333095550538,-1.4557585716247559,9.676563262939453,0.00996206793934107,-0.0034634671173989773,-0.013733929954469206
4.062869071960449,-1.4417049884796143,9.677997589111328,0.009219888597726822,-0.0028471408877521758,-0.012108455412089826
4.078350067138672,-1.398299813270569,9.69682025909424,0.009298492223024368,-0.0004745633050333709,-0.009683724492788315
4.030158042907715,-1.4384104013442995,9.6761474609375,0.009124711155891418,0.0007122327806428075,-0.00862764846533537
4.002956390380859,-1.432615399360657,9.68643569946289,0.005765284411609173,-0.0027768386062234644,-0.008013708516955376
4.028039932250977,-1.4429081678390505,9.674869537353516,0.004698063712567092,-0.0038545019924640656,-0.0074209850281476974
4.0176739692688,-1.4175002574920654,9.712815284729006,0.001038155285641551,-0.005689102690666915,-0.007300257682800293
4.0042219161987305,-1.4022855758666992,9.69515609741211,-0.003314790315926075,-0.008888248354196548,-0.007934994064271452
4.050210952758789,-1.4319159984588623,9.692275047302248,-0.003980823326855899,-0.009974893182516098,-0.007739331107586623
4.0574188232421875,-1.4488505125045779,9.659687042236328,-0.0035357759334146976,-0.0069634108804166326,-0.006817172747105361
4.06900691986084,-1.3527373075485232,9.617388725280763,-0.00447952887043357,-0.004197767935693264,-0.004165242891758681
4.045582294464112,-1.4004820585250857,9.67803478240967,-0.006368176080286503,-0.002854437567293644,-0.0027620352338999514
4.009511470794679,-1.4311022758483887,9.69688606262207,-0.009283272549510002,-0.004473371896892787,-0.0017468524165451527
3.996299028396607,-1.4750556945800781,9.670533180236818,-0.009051524102687836,-0.007010242436081172,0.0004541413218248636
4.011030197143555,-1.441498398780823,9.66927719116211,-0.009855616837739944,-0.006720858160406352,-0.0023825736716389656
3.9597272872924805,-1.549575448036194,9.651365280151367,-0.008884373120963575,-0.00936067942529917,-0.004814556799829006
4.030117034912109,-1.4658805131912234,9.664124488830568,-0.007003244478255511,-0.012325616553425789,-0.00704212160781026
4.064528465270996,-1.405755162239075,9.69895648956299,-0.01032210886478424,-0.00994385499507189,-0.004621113184839488
4.072855472564698,-1.5057219266891482,9.596349716186523,-0.0059229666367173195,-0.004031616728752852,-0.003660106100142002
4.08747148513794,-1.3718721866607666,9.635568618774414,0.0011412660824134948,0.0019507497781887653,-0.0061485059559345245
4.069483280181886,-1.337465763092041,9.715132713317873,-0.0027265830431133513,0.006947341375052929,-0.0002174641558667645
4.040973663330078,-1.4563423395156863,9.708253860473633,-0.0033696510363370184,0.008714931085705757,0.0064455000683665276
4.004334449768066,-1.558326601982117,9.686802864074709,-0.004277529660612346,0.007222464308142662,0.0029083800036460166
3.9564952850341797,-1.5707409381866455,9.676996231079102,-0.0007446761010214686,0.003962529823184013,0.0009221258223988117
3.99569582939148,-1.605889439582825,9.645212173461914,0.005718007683753967,0.0010098699713125827,-0.006089777685701847
4.000101566314698,-1.5417866706848145,9.664963722229006,0.01501626428216696,0.004102730192244053,-0.010943669825792313
4.029626846313477,-1.467107653617859,9.70068359375,0.02052326500415802,0.005837472621351481,-0.013466369360685349
4.079979419708253,-1.439159870147705,9.69056510925293,0.020955167710781097,0.008349040523171425,-0.014620442874729635
4.0213823318481445,-1.3699797391891482,9.695051193237305,0.01973897404968739,0.013819292187690735,-0.010833601467311384
4.009400367736816,-1.3739546537399294,9.73541259765625,0.011234980076551437,0.00912782456725836,-0.006974949967116118
4.010973930358887,-1.510223150253296,9.758392333984375,0.008173552341759207,0.005449049174785614,-0.0037530732806772
3.9754786491394043,-1.3488080501556396,9.706322669982912,0.0021611503325402737,0.00335162365809083,0.0009074771660380067
3.934810161590576,-1.4426548480987549,9.690070152282717,-0.007032936904579402,-0.007878759875893593,-0.004984034691005946
3.916447162628174,-1.4338111877441406,9.686141967773438,-0.012105800211429596,-0.012747076340019705,-0.008373145945370199
3.964353561401367,-1.3462182283401491,9.69050693511963,-0.015870768576860428,-0.01914671622216702,-0.009371357038617134
3.983746767044068,-1.4993517398834229,9.677826881408693,-0.017973834648728374,-0.019256679341197017,-0.010383496060967445
4.075972080230714,-1.3225789070129395,9.706608772277834,-0.017519496381282806,-0.016251021996140484,-0.00851106084883213
4.115432262420655,-1.295997142791748,9.690884590148928,-0.028123263269662857,-0.014430918730795385,0.00028447914519347256
4.053728580474854,-1.517259120941162,9.681842803955078,-0.030961211770772934,-0.013924491591751577,0.004453663714230061
4.038941383361816,-1.6379623413085938,9.621801376342773,-0.016188507899641994,-0.007321971934288741,0.0010440247133374214
3.9790701866149902,-1.4817796945571902,9.650944709777834,-0.007471480406820774,-0.0031564685050398116,-0.0011400768999010324
3.9736239910125737,-1.5743794441223145,9.681499481201172,-0.0030663830693811183,0.001330068800598383,-0.0012429135385900736
4.049433231353761,-1.5103896856307986,9.658172607421875,0.0005262490012682975,0.003348243422806263,-0.003454289166256786
4.0209622383117685,-1.4850633144378662,9.666994094848633,0.005496358964592219,0.008220738731324674,-0.006217852234840393
4.042800426483155,-1.4619837999343874,9.700492858886719,0.01142705511301756,0.011173371225595474,-0.005547763314098121
4.104787826538086,-1.406221866607666,9.737370491027834,0.009321987628936768,0.01611883379518986,-0.0038054923061281447
4.001463413238526,-1.4936764240264893,9.729799270629883,0.008654179982841017,0.015297973528504372,-0.0007881776546128095
3.9593784809112553,-1.5034924745559695,9.725923538208008,0.00699499947950244,0.00802989210933447,-0.0031565302051603794
3.9286782741546635,-1.5462671518325808,9.73726558685303,0.008167880587279798,0.002457140479236841,-0.008776209317147734
3.977992534637451,-1.5139496326446533,9.76038455963135,0.011481322348117828,-0.00028475225553847855,-0.014677918516099455
3.98694920539856,-1.4472190141677859,9.754934310913086,0.00884500239044428,-0.006458759307861328,-0.016420679166913036
3.9989147186279297,-1.4020333290100098,9.782083511352539,0.001611847314052284,-0.010339499451220037,-0.017082639038562775
4.003370761871339,-1.4662019014358523,9.745074272155763,-0.00600150041282177,-0.01564441062510014,-0.017611607909202576
4.007285594940186,-1.4996919631958008,9.736457824707031,-0.008406322449445724,-0.020976202562451366,-0.016046335920691494
3.9869847297668457,-1.529695987701416,9.672471046447756,7.275020470842719e-05,-0.021301927044987682,-0.01862485334277153
3.9219529628753667,-1.56498384475708,9.680652618408203,0.008983442559838295,-0.024758771061897278,-0.027269067242741588
3.9246757030487065,-1.4895944595336914,9.70813846588135,0.010906533338129522,-0.029071293771266937,-0.034914460033178336
3.9601471424102788,-1.444180965423584,9.71775531768799,0.01040275674313307,-0.03641919046640396,-0.03829227387905121
4.0102033615112305,-1.4120644330978396,9.710829734802248,0.0060058897361159325,-0.040840562433004386,-0.038374289870262146
4.015442848205566,-1.3890072107315066,9.692756652832031,-0.0007031133281998337,-0.043550189584493644,-0.03427433222532272
3.986696004867554,-1.4926812648773193,9.694549560546875,-0.00489241536706686,-0.04417198523879052,-0.034485697746276855
3.9250090122222905,-1.5251208543777468,9.65953254699707,-0.0032083697151392703,-0.047314584255218506,-0.04016365110874176
3.9488995075225835,-1.5189900398254395,9.683416366577148,0.007172962184995414,-0.05129881948232651,-0.04956477507948876
3.9607779979705815,-1.5460662841796875,9.620538711547852,0.010073486715555191,-0.05109328776597977,-0.05099236592650414
3.8016760349273686,-1.7485873699188232,9.657532691955568,0.03593777492642403,-0.057887718081474304,-0.07168207317590715
3.786862134933472,-2.047138214111328,9.58144283294678,0.08597480505704881,-0.05599907785654068,-0.10936440527439117
3.9704048633575444,-1.5557333230972292,9.686046600341797,0.10935256630182268,-0.05286110192537308,-0.13552869856357577
4.173242568969727,-1.1713248491287234,9.683667182922365,0.09994253516197205,-0.052323244512081146,-0.12897516787052157
4.132737159729004,-1.1926916837692263,9.722676277160646,0.0749371349811554,-0.05356706306338311,-0.1071271300315857
4.117635250091554,-1.2440115213394167,9.699439048767092,0.06399256736040117,-0.05834340304136276,-0.0971115380525589
4.194531917572022,-1.022600054740906,9.771281242370607,0.044169280678033836,-0.06247653067111969,-0.07631159573793413
4.104662895202637,-1.2598118782043457,9.68541145324707,0.019180621951818466,-0.0622439980506897,-0.05573316290974618
4.045602798461914,-1.2623919248580935,9.768470764160156,0.007351749576628208,-0.07529494911432268,-0.05247845500707626
4.115899085998535,-1.171579122543335,9.724310874938967,-0.011378750205039978,-0.08343040198087694,-0.04195160791277886
3.9701073169708256,-1.1680450439453125,9.747230529785156,-0.041281841695308685,-0.09799069911241533,-0.02951648458838463
4.0531511306762695,-1.0769541263580322,9.787684440612795,-0.0782822296023369,-0.11550497263669969,-0.02079150080680847
4.085363388061523,-0.9812474250793457,9.780370712280273,-0.12328706681728363,-0.1311466842889786,-0.004556396044790745
4.155853271484375,-1.0581189393997195,9.750310897827148,-0.15875191986560824,-0.14207905530929565,0.014599785208702087
4.111763954162598,-1.2013889551162722,9.714365959167482,-0.1773948520421982,-0.14733463525772095,0.025997051969170574
4.104211807250977,-1.376010298728943,9.68960475921631,-0.17674222588539124,-0.16180282831192017,0.03321048244833947
4.014626026153565,-1.7859220504760742,9.609034538269045,-0.15042345225811007,-0.17408078908920288,0.018540369346737865
4.084810256958008,-1.7084645032882693,9.59127712249756,-0.12982051074504855,-0.1775023341178894,-0.0015796152874827385
4.014399051666261,-1.5702527761459353,9.621009826660156,-0.11358471959829332,-0.18817269802093506,-0.0226838905364275
4.123831748962402,-1.5348222255706787,9.61764144897461,-0.10755660384893419,-0.19954319298267367,-0.037659503519535065
4.036602020263672,-1.6809518337249756,9.450297355651857,-0.09939561784267426,-0.20755682885646823,-0.05604427307844162
4.1414289474487305,-1.4483259916305544,9.566006660461428,-0.08946756273508073,-0.22474253177642822,-0.07277745008468628
4.298944950103761,-1.3163397312164307,9.660192489624023,-0.10193827003240587,-0.2323751151561737,-0.06932809203863145
4.183155059814453,-1.3237800598144531,9.637104988098146,-0.12093593180179596,-0.2504112720489502,-0.06382896751165391
4.113059997558594,-1.3769936561584473,9.738890647888185,-0.125986248254776,-0.2865539491176606,-0.062096476554870605
3.931954145431519,-1.6653318405151367,9.749800682067873,-0.10392362624406816,-0.33274292945861816,-0.07144130766391754
3.819797992706299,-1.9265625476837158,9.656043052673342,-0.08114380389451982,-0.4042901396751404,-0.09726478904485704
3.922337055206299,-1.598987340927124,9.826028823852539,-0.06998057663440704,-0.4854700565338135,-0.12093875557184221
4.029987335205078,-1.4824104309082031,9.774022102355959,-0.0730763152241707,-0.5724387168884277,-0.11725079268217088
3.9754419326782227,-1.5752416849136355,9.654454231262209,-0.06946948915719987,-0.6537661552429199,-0.1281442940235138
4.160752296447754,-1.2192603349685671,9.847388267517092,-0.07894385606050493,-0.7507458925247192,-0.11260897666215898
3.9599421024322514,-1.211421012878418,9.804841041564943,-0.09701534360647203,-0.861406981945038,-0.09433029592037201
3.8119223117828374,-1.3375818729400635,9.857707977294922,-0.11453802138566972,-0.9964514970779419,-0.10409400612115861
4.173996448516847,-1.2447687387466433,9.891327857971193,-0.15285944938659668,-1.1366435289382937,-0.1253602355718613
4.1607728004455575,-1.45349657535553,9.71758556365967,-0.1783193498849869,-1.2587156295776367,-0.14279972016811374
4.328516960144043,-1.7325656414031982,9.722155570983888,-0.1912484019994736,-1.4096633195877077,-0.16780441999435425
4.677480697631836,-1.5536022186279297,9.750893592834474,-0.1989629864692688,-1.5278769731521609,-0.1749066710472107
4.281743049621582,-1.7732865810394287,9.656829833984375,-0.20285390317440036,-1.661170482635498,-0.2081986665725708
4.756453037261964,-1.4586777687072754,9.672604560852053,-0.21447500586509705,-1.8181365728378298,-0.22796431183815002
5.027799129486085,-1.3165725469589236,9.653582572937013,-0.25890296697616577,-1.9508306980133057,-0.23547361791133883
5.233290672302246,-0.7602652311325073,9.777484893798828,-0.29952090978622437,-2.0755622386932377,-0.22360160946846008
5.046598434448242,-1.3181426525115967,9.598536491394045,-0.3194099962711335,-2.2431392669677734,-0.20778292417526245
4.729475021362305,-2.0238864421844487,9.290145874023438,-0.25076219439506536,-2.4760665893554688,-0.24854220449924472
4.576074600219727,-2.578939914703369,8.940576553344727,-0.1090557724237442,-2.7958178520202637,-0.36134216189384466
4.945147991180421,-3.4808981418609624,9.329743385314943,0.07879301905632019,-3.2241146564483647,-0.5126522779464722
5.425052642822266,-3.9498982429504395,9.742882728576662,0.2701456546783447,-3.632501840591431,-0.653307855129242
6.554099082946777,-3.744399785995484,10.593879699707031,0.38024708628654486,-3.9901676177978516,-0.7784473299980165
8.230549812316896,-3.851007223129273,11.769917488098146,0.4194782674312592,-4.230426311492921,-0.8704218864440918
10.401264190673828,-3.4639601707458496,12.31118392944336,0.4267476201057434,-4.244667530059815,-0.9265141487121582
11.64645290374756,-4.13567876815796,12.537535667419435,0.5683848857879639,-4.190457820892335,-1.0188504457473757
15.269244194030763,-3.596729993820191,13.674140930175781,0.6926254630088807,-4.046709060668945,-1.0362769365310671
20.599735260009766,-3.690088033676148,12.859611511230469,0.6975067257881166,-3.826053380966187,-1.0524311065673828
24.93508529663086,-5.21696424484253,9.655683517456055,0.8521040081977845,-3.6940364837646484,-1.1966093778610232
26.821990966796875,-6.801909923553468,8.26705074310303,1.65393602848053,-3.5525565147399902,-1.5204870700836182
28.451309204101562,-4.702121734619141,8.464611053466797,2.4741854667663574,-3.192633390426636,-1.5426294803619385
24.32212638854981,-0.09547337889671326,4.457123279571534,2.7066133022308354,-3.327617406845093,-1.488204002380371
35.7318115234375,1.7197608947753906,14.06420421600342,1.6303142309188845,-3.2171578407287598,-1.3426271677017214
27.53482246398926,0.43390300869941717,14.838850975036623,0.3368606865406037,-2.3276734352111816,-0.9153860807418823
23.02096939086914,-0.8030076026916504,12.327149391174318,-0.8986253142356874,-2.052560329437256,-0.5981721282005311
20.632274627685547,-4.23444414138794,11.561398506164553,-1.4538216590881348,-1.9654853343963623,-0.44392129778862005
17.08256340026856,-6.844081878662109,10.438209533691406,-1.305019021034241,-2.0045418739318848,-0.3978708684444428
15.622218132019045,-8.077368736267092,10.95235824584961,-0.6559154987335205,-2.0477292537689213,-0.4611742794513703
14.140604972839357,-7.269710540771484,11.928128242492678,0.13553257286548617,-1.92106294631958,-0.46175298094749456
12.412822723388672,-5.391484260559082,13.587156295776367,0.6184815764427186,-1.6094986200332644,-0.34822529554367065
11.017721176147461,-3.988426685333252,14.8045129776001,0.7401446104049683,-1.0614894628524782,-0.1271725296974182
7.893480777740479,-2.8633358478546147,14.115427970886232,0.7410109043121338,-0.3614575564861298,0.12387054413557054
3.416986703872681,-2.1886742115020756,12.06953239440918,0.7271344661712646,0.2245760411024094,0.26898330450057983
0.3254213631153107,-1.2562923431396484,9.84021854400635,0.7060776948928833,0.6325067281723022,0.3065009415149689
-2.191922187805176,-0.6126022338867188,7.462579727172852,0.6871318817138672,0.8308209776878358,0.30922412872314453
-3.832798480987549,0.20584826171398166,6.366765022277832,0.6688980460166932,0.9584451913833618,0.3436565399169922
-4.507616519927979,0.337901771068573,6.342145919799805,0.61354798078537,1.1243619918823242,0.4079334437847138
-4.775870323181152,-0.422707349061966,6.439324378967285,0.6213653087615967,1.4053292274475098,0.4954145252704621
-5.348458290100098,-0.6757656931877137,5.814735889434815,0.7479248046875,1.752242684364319,0.6393190622329712
-6.421567916870117,0.20663176476955417,4.665578842163086,0.8282212018966675,2.0558469295501713,0.7827302813529969
-7.667324066162109,1.485736966133118,3.0031256675720215,0.7539454102516175,2.287933826446533,0.8570107817649842
-8.494966506958008,1.8627490997314453,1.952815890312195,0.5488638877868652,2.39503812789917,0.8633781075477601
-7.975390911102296,1.5740320682525635,2.158144474029541,0.3317320048809052,2.5100064277648926,0.8599632382392884
-6.980464458465577,1.1636844873428347,2.3943946361541752,0.19526460766792297,2.7568924427032475,0.8756497502326966
-6.866761207580566,0.7154382467269897,1.852954983711243,0.17813341319561007,3.0347251892089844,0.8643741011619569
-5.977911949157715,0.7783213257789613,1.4945396184921267,0.14483778178691867,3.261903524398804,0.8749771118164062
-5.021379470825195,0.8554770350456239,0.9293636679649354,0.0802648887038231,3.4809556007385254,0.9197981953620912
-4.33604383468628,0.6987216472625732,0.15268276631832126,0.009357757866382599,3.614552736282349,0.9747285246849061
-2.690985679626465,0.6720691919326782,0.3015876710414887,-0.07876899093389512,3.6647520065307617,1.0751525163650515
-1.086066484451294,1.2489055395126345,0.6700988411903382,-0.15924437344074252,3.7241070270538335,1.1727395057678223
0.4922989010810852,2.2705001831054688,0.8885682225227357,-0.28481990098953247,3.7846562862396245,1.2020421028137207
2.836975574493408,2.5691154003143315,1.3223587274551394,-0.42396605014801025,3.818992376327515,1.1251355409622195
4.960970401763917,1.5448272228240967,1.0233948230743408,-0.3606282770633698,3.8410282135009766,0.9147865176200868
6.588698387145996,1.2921534776687624,0.24260163307189941,-0.11416586488485338,3.7514770030975346,0.673635721206665
8.16263198852539,1.9829987287521365,-0.3288309276103974,0.01892603747546673,3.5064735412597656,0.4843949377536774
10.517959594726562,1.6521267890930176,0.050953224301338196,0.01276150532066822,3.216260194778443,0.3719307482242585
12.729272842407227,0.4470262229442597,0.7272662520408631,0.05657631531357766,2.9326562881469727,0.31259515881538397
14.875233650207521,-0.34050545096397405,2.218765497207642,0.1557274013757706,2.6442873477935795,0.2992285490036011
16.92705535888672,-0.6803807020187378,3.6435399055480957,0.24421387910842896,2.458913087844849,0.33874601125717163
17.91131591796875,-0.1976008117198944,3.5910875797271733,0.24759803712368014,2.2882213592529297,0.41362500190734863
17.33292961120606,-0.0007834210991859436,2.348975658416748,0.17518827319145203,1.9925149679183962,0.44508421421051025
16.765848159790043,-0.38106822967529297,1.8567124605178835,0.15563614666461947,1.5742586851119997,0.41668516397476196
16.257085800170902,-0.4065222144126892,1.9676364660263064,0.21496848762035373,1.1177620887756348,0.38518032431602484
15.169299125671388,-0.27342322468757635,2.0727379322052006,0.2787187695503235,0.6716451048851014,0.3284926116466523
13.77932643890381,0.2507365942001343,2.3744993209838867,0.36306333541870117,0.21469940245151523,0.21441221237182617
12.84798812866211,1.116275191307068,2.9256420135498047,0.36628806591033936,-0.193746417760849,0.027516657486557964
12.740129470825195,4.198281288146973,0.7164099216461182,0.3001375198364258,-0.6006992459297181,-0.3214593529701233
12.694856643676758,3.9387137889862065,2.7809810638427734,0.10705724358558655,-0.8821704983711244,-0.9557955861091615
19.436990737915043,4.81066656112671,7.6337904930114755,-0.67893385887146,-0.9479312300682069,-0.5626450777053833
37.355548858642585,3.6883745193481445,33.575157165527344,-3.2369046211242676,0.3582167625427246,0.5107042193412782
5.255716323852539,-6.688545227050781,2.7389132976531987,-0.8773946762084961,2.0302827358245854,0.35105907917022705
7.680276393890382,4.473877906799316,14.270397186279297,-0.9497544169425965,1.3111388683319092,1.0053184032440186
2.96362853050232,0.7256653308868408,11.170490264892578,-0.8260239958763124,1.8795838356018066,0.4173124730587006
5.067594051361085,-8.924293518066406,11.75303840637207,-0.5032711029052734,1.8121676445007324,0.03297254815697671
1.3816946744918825,-12.909359931945803,8.757182121276857,-0.06392666697502136,1.6961730718612673,-0.11064818501472473
1.1088079214096072,-5.0193986892700195,11.600659370422365,0.19508983194828036,0.9673547744750977,-0.01060996949672699
1.780877232551575,-0.4413985013961792,12.135430335998537,0.16109699010849,0.3752569258213044,-0.2621117830276489
4.079133033752441,1.402998447418213,11.263269424438477,0.023353423923254013,0.032335273921489716,-0.22558967769145968
5.547273635864258,1.3525260686874392,10.263252258300781,-0.09438090771436693,-0.12086255848407745,-0.06217187270522118
5.980483055114746,-1.404292345046997,8.833058357238771,-0.13861075043678284,-0.06879819184541704,0.05973799899220467
5.229307174682617,-3.5902018547058105,8.51399898529053,-0.039533954113721854,0.06578010320663452,0.04507667943835259
4.891654491424561,-2.5514428615570073,8.919915199279787,0.060129374265670776,0.16790127754211426,-0.011606727726757528
4.951150417327882,-0.9104432463645936,9.499363899230959,0.06182144582271576,0.2134000509977341,0.0014756578020751476
4.636495590209961,-0.16043978929519653,9.822846412658693,-0.02298904396593571,0.21345648169517517,0.07193545997142792
4.554967403411866,-1.1957138776779177,9.618871688842773,-0.07195714116096497,0.18031956255435946,0.11853265762329102
4.293445110321046,-1.8748562335968018,9.472706794738771,-0.06897269189357758,0.13783973455429077,0.12354566901922227
3.8879904747009277,-1.7560856342315674,9.801259040832521,-0.08255346119403839,0.06508804112672807,0.1037997454404831
3.881514072418213,-1.8308537006378174,9.81278705596924,-0.10376301407814026,-0.018043363466858867,0.07845228165388109
4.070354938507081,-1.7303731441497803,9.718633651733398,-0.09049368649721147,-0.09594801068305969,0.054242845624685294
4.21369743347168,-1.568678379058838,9.658018112182617,-0.09567391127347948,-0.1599332541227341,0.04294031858444214
4.385797023773194,-1.384800672531128,9.616035461425781,-0.11693744361400604,-0.20256595313549045,0.042690180242061615
4.318553924560547,-1.3010454177856445,9.672019958496094,-0.15899418294429782,-0.249018132686615,0.05161559581756592
3.8839001655578613,-1.5477432012557986,9.666189193725586,-0.18503738939762118,-0.31526094675064087,0.039186220616102226
4.443857669830323,-1.8376593589782715,9.903411865234375,-0.16502805054187777,-0.5176035761833192,-0.04774343967437744
3.3083631992340092,-2.177490234375,8.642440795898438,-0.19792772829532626,-0.4539104700088501,-0.037552129477262504
5.392023563385011,-1.667807221412659,10.125079154968263,-0.14601930975914001,-0.5894342064857484,-0.10248275846242906
4.6509504318237305,-2.189992904663086,9.093183517456055,-0.1770184338092804,-0.4865213334560395,-0.06156869977712631
4.539294719696046,-1.9308391809463503,9.003654479980469,-0.1356876790523529,-0.634890079498291,-0.14484961330890658
5.113595962524414,-1.0038957595825195,9.737333297729492,-0.2999669909477234,-0.5037382245063783,-0.09536316990852356
3.0793371200561523,-3.298670053482056,8.559000968933107,-0.07003722339868547,-0.6978994607925415,-0.12511488795280457
5.766510486602784,-0.6657930612564087,9.859938621520998,-0.09451600909233093,-0.7158039212226869,-0.08654117584228516
3.8175902366638184,-2.227388381958008,8.769275665283203,-0.07163035869598389,-0.774687647819519,-0.09771823137998582
5.0066728591918945,-1.2822700738906863,9.644505500793459,-0.08734434098005296,-0.8640655279159546,-0.08300340920686723
4.796599864959718,-2.1611557006835938,9.38542366027832,-0.08886490017175676,-0.8792523145675659,-0.09818761050701141
4.378108024597168,-2.793398857116699,8.857603073120117,0.012900360859930517,-1.0546276569366455,-0.20139883458614352
5.378196239471436,-2.282104015350342,8.881392478942873,-0.010202287696301939,-1.018588185310364,-0.22474968433380127
4.908182144165039,-2.3318123817443848,8.493548393249513,0.04631279781460763,-1.070580244064331,-0.2854426205158234
5.628061771392823,-1.4379760026931765,8.793243408203125,0.03453863039612771,-1.0381605625152588,-0.28110557794570923
5.668259143829347,-1.4979292154312136,8.654895782470703,0.02179408073425293,-0.9993310570716859,-0.26310765743255615
5.685185909271241,-1.971343994140625,8.319493293762209,0.06107044219970703,-1.0649538040161133,-0.30382594466209417
6.225301265716554,-1.5853270292282107,8.439092636108398,0.025357244536280635,-0.9766464233398438,-0.2799487411975861
5.535851955413819,-2.0107891559600835,8.50294589996338,0.08727490156888963,-1.0225708484649658,-0.32862693071365356
5.606524467468262,-1.5769132375717165,8.48458480834961,0.07085806131362915,-0.9861976504325868,-0.32193994522094727
5.648674011230469,-1.8377064466476443,8.49400520324707,0.1130756512284279,-1.0978857278823855,-0.36853647232055664
6.081778526306152,-1.4232628345489502,8.200478553771974,0.08826708048582078,-1.0772809982299805,-0.3638602197170258
5.775005340576172,-1.4791656732559206,8.276079177856445,0.08447151631116868,-1.1432011127471924,-0.4058905243873596
5.8351850509643555,-1.267104744911194,8.471872329711914,0.06277272850275041,-1.1635777950286865,-0.38197597861289984
5.708561420440675,-1.385657787322998,8.135529518127443,0.0927201360464096,-1.3008935451507568,-0.40780708193779
6.141410350799561,-0.655204176902771,8.24605941772461,0.03778529912233353,-1.3629285097122195,-0.37433719635009766
5.729901790618897,-1.3370636701583865,8.728543281555178,0.031998660415411,-1.4907097816467285,-0.38538938760757446
5.228986740112305,-2.350255727767945,7.920947074890137,0.08926919102668762,-1.6638349294662478,-0.47571927309036255
6.809214115142823,-0.6649938821792603,7.868204116821289,0.09069302678108215,-1.803715467453003,-0.4697724282741547
6.873532295227051,-1.136465907096863,7.769376277923585,0.08851621299982072,-1.9032204151153564,-0.4337164461612702
6.6209001541137695,-1.9250452518463135,7.741873741149902,0.1498564034700394,-2.0342516899108887,-0.43960386514663696
7.165739536285401,-1.680464506149292,6.8008131980896005,0.1958001405000687,-2.118786334991455,-0.43797037005424505
7.567403793334961,-1.1802449226379395,6.6949920654296875,0.20064246654510498,-2.24644136428833,-0.4508382976055146
6.973262310028077,-0.9032114744186401,6.914716243743897,0.15421044826507568,-2.420916318893433,-0.39717286825180054
7.000235557556152,-1.1342055797576904,7.399381637573242,0.16046990454196933,-2.714143753051758,-0.38588565587997437
6.935953140258789,-1.1944509744644167,7.603191375732422,0.19137728214263916,-3.0609505176544194,-0.3922361135482788
7.048462390899659,-0.7085878849029541,7.128917694091797,0.17106235027313232,-3.4848427772521973,-0.36611166596412664
7.253985881805421,-0.6060640811920166,7.451341152191163,0.10884156078100206,-3.9867005348205566,-0.3397787511348725
7.642848491668702,-0.28209125995635986,7.660696983337402,0.01733044534921646,-4.514060497283936,-0.3075763881206513
8.705387115478516,0.33451002836227417,7.689064502716065,-0.09988804161548615,-4.969078540802003,-0.1804967224597931
10.550848007202148,0.5911287665367128,8.317075729370117,-0.2566955089569092,-5.393868446350098,0.052842039614915855
11.04148578643799,1.6868128776550293,9.758036613464357,-0.5522591471672059,-5.586224555969238,0.4409445226192475
15.349298477172852,-0.039663076400756836,10.100193977355959,-0.9627419114112855,-5.3536577224731445,0.8842204809188843
19.96716117858887,0.22095300257205966,9.488000869750977,-1.4520167112350466,-4.637214660644531,1.3193362951278689
24.507371902465824,-2.4465346336364746,8.920973777770998,-1.691131353378296,-3.8001747131347656,1.561524271965027
22.07501983642578,-4.051111221313477,5.736767768859863,-1.8351218700408936,-2.9957039356231694,1.5964505672454834
19.661449432373047,-3.1305408477783203,-1.3271920680999756,-2.147329330444336,-2.7165386676788335,1.1409515142440798
20.048030853271484,-5.772327423095703,0.5143646001815796,-2.2775707244873047,-2.922981977462769,0.37906545400619507
22.031984329223636,-7.2177276611328125,2.8751893043518066,-1.7922108173370361,-2.602965831756592,-0.2272814363241196
21.011659622192386,-3.4913344383239746,-2.840981721878052,-1.646003603935242,-2.589569568634033,-0.7305083870887757
18.039047241210938,-1.776159167289734,-6.166603088378906,-1.8626679182052615,-3.1027917861938477,-1.4588446617126465
16.529396057128906,-2.3709266185760502,-8.925708770751953,-1.6990554332733154,-4.104521274566651,-2.658088207244873
29.343177795410156,-4.721619606018066,1.4705568552017214,-1.6228089332580566,-4.581334114074707,-3.3116896152496342
26.242235183715824,-5.099921226501465,5.856271743774414,-1.7385506629943848,-3.7477700710296635,-3.6044650077819824
22.143983840942386,-4.854726314544679,4.179392337799073,-1.839130163192749,-3.3579671382904057,-3.8690402507781987
20.805770874023438,-5.898560523986816,6.027760028839112,-1.7230244874954226,-2.9763078689575195,-4.066065311431886
15.555006980895998,-6.22475290298462,5.053716659545898,-1.5140165090560915,-2.6996386051177983,-4.129962921142578
12.577102661132812,-7.3048200607299805,5.710392951965332,-1.1087366342544558,-2.694547176361084,-4.194529056549073
10.276681900024414,-7.586574554443359,6.567104339599609,-0.6029489040374756,-2.671838998794556,-4.121065616607667
8.18343734741211,-7.192150115966797,7.618617534637452,-0.20529074966907504,-2.5871706008911133,-3.892657041549683
6.293967723846436,-6.704546451568604,9.039192199707031,0.05982878431677819,-2.4142692089080815,-3.524104118347168
5.034889698028565,-6.333097934722901,10.034945487976076,0.13957144320011142,-2.146312713623047,-3.0035231113433842
3.608178853988648,-6.334711551666261,10.67463493347168,0.2038211226463318,-1.7406321763992312,-2.449109315872193
2.1723821163177495,-5.882591724395753,11.187793731689453,0.2890856862068176,-1.1925283670425417,-1.8896920680999756
1.5612668991088867,-4.4503846168518075,12.235736846923828,0.2380172610282898,-0.555849552154541,-1.309237837791443
1.6554334163665771,-3.8373050689697266,12.983265876770021,0.024281758815050125,0.20971061289310458,-0.7499713897705078
1.520845890045166,-3.798235177993775,13.358482360839844,-0.10953748971223833,1.052933692932129,-0.29800260066986084
1.6758378744125368,-3.4178307056427006,13.366106033325195,-0.17298199236392978,1.903604507446289,0.0785263702273369
2.1513919830322266,-3.156476259231568,13.023606300354006,-0.19041381776332858,2.793174505233765,0.3843359351158142
1.5775220394134521,-2.6808655261993413,11.831382751464844,-0.13670779764652255,3.6141467094421387,0.6347052454948426
0.07325988262891771,-2.0078320503234863,9.982205390930178,-0.13004387915134433,4.170385360717773,0.8804850578308105
-1.453019618988037,-1.7573471069335938,8.073796272277834,-0.22086189687252047,4.49165153503418,1.2092884778976443
-2.7781255245208745,-2.0519580841064453,6.154436111450195,-0.2930766642093659,4.598564624786378,1.544952154159546
-3.4916281700134277,-1.9111180305480957,4.886646270751953,-0.31438755989074707,4.521147251129151,1.8795619010925293
-3.297762870788574,-1.5700515508651736,4.488214015960694,-0.3028315305709839,4.3522047996521005,2.2100689411163335
-1.496965527534485,-1.3192011117935183,5.523147106170655,-0.29202970862388616,4.213445663452148,2.4804542064666752
1.1099776029586794,-1.0524705648422243,7.208845615386964,-0.25751075148582464,4.309675693511964,2.660409927368164
2.4129133224487305,-0.7607881426811219,8.003486633300781,-0.15244650840759277,4.609914302825929,2.757446765899658
2.9230768680572514,-0.014858022332191467,8.204225540161133,-0.11044856905937195,4.9491028785705575,2.7881567478179936
3.5331065654754643,0.800512433052063,8.434558868408203,-0.13814982771873474,5.254287242889405,2.760974407196045
4.423728942871094,1.8037159442901611,8.784895896911623,-0.22725561261177063,5.557469367980957,2.6609947681427006
5.155178070068359,2.5335571765899663,8.961668968200685,-0.3720033466815949,5.872500419616699,2.4676439762115483
5.818926334381104,3.03213381767273,8.834635734558107,-0.5526042580604554,6.154361724853516,2.2235679626464844
6.2301602363586435,3.1900875568389897,8.600792884826662,-0.7303785085678101,6.336743831634522,1.9396278858184814
7.092140197753906,3.1361284255981445,8.80754280090332,-0.86469566822052,6.395437240600586,1.6458834409713747
8.620745658874513,3.197171211242676,9.391848564147951,-0.9576159119606019,6.397356033325195,1.3668466806411745
10.119669914245607,3.6126496791839604,9.933168411254883,-1.0507893562316895,6.411015987396241,1.0495699644088747
11.703704833984375,4.044925689697266,10.733530998229982,-1.2330626249313357,6.396771430969238,0.704272210597992
13.567049980163576,3.9375863075256348,11.192315101623537,-1.4455370903015137,6.384206771850586,0.3566035926342011
15.473498344421388,3.8086192607879643,11.309760093688967,-1.6480705738067627,6.345102787017823,0.007516875863075256
17.537321090698246,3.9887142181396484,11.294551849365234,-1.8489148616790771,6.221275806427003,-0.32529005408287054
19.157052993774418,4.893479824066163,11.177423477172852,-2.060941696166992,6.015372753143311,-0.6583672761917114
19.80132293701172,6.460367679595948,10.69497299194336,-2.3245565891265874,5.725841999053956,-1.0678255558013916
19.990802764892578,9.17357921600342,9.628729820251467,-2.723556756973267,5.351127624511719,-1.5989626646041872
20.07337188720703,12.04756832122803,7.81885862350464,-3.3768708705902104,4.868666648864746,-2.2293310165405273
20.492687225341797,12.178324699401857,6.297698497772218,-3.9863021373748784,4.259148597717285,-2.9439060688018803
22.080335617065433,11.62643337249756,6.110404491424561,-4.249385356903077,3.6053984165191655,-3.644587516784668
24.140182495117188,11.953881263732912,5.982982635498047,-4.332370281219483,3.120865821838379,-4.139235973358155
24.081300735473636,12.036976814270021,3.5221071243286133,-4.39069938659668,2.7641527652740483,-4.3888306617736825
23.275541305541996,11.251646995544435,0.15747568011283875,-4.342508792877198,2.2717947959899902,-4.446887493133546
23.396732330322266,9.613592147827148,-1.8457324504852295,-4.071044921875,1.7287368774414062,-4.340995311737061
22.982767105102543,7.784417152404785,-2.1914167404174805,-3.5616152286529545,1.2868177890777588,-4.082125186920167
21.154981613159183,6.3587646484375,-2.208460807800293,-2.9117553234100346,0.9292964935302734,-3.6742095947265625
17.388320922851562,4.194722652435304,-2.723434686660767,-2.1830782890319824,0.5297643542289735,-3.1230411529541016
11.05967903137207,-15.301857948303224,0.3877199590206147,0.8365486860275269,-0.31664741039276123,-2.57955813407898
18.373023986816406,-9.69235610961914,16.89801788330078,3.1759414672851562,-0.44182965159416204,-2.082775115966797
10.961628913879396,-26.25530242919922,13.039556503295898,3.4223444461822514,0.5880481004714966,-0.8444937467575073
-4.110759735107422,-6.4193925857543945,8.628363609313967,2.253140449523926,0.16934369504451754,-0.32849395275115967
2.468425750732422,10.352100372314453,12.093661308288576,1.9005943536758425,-0.7040470242500306,-0.6724681854248047
11.948802947998047,12.5506591796875,18.963930130004886,1.1313470602035525,0.10934951901435852,-0.9393779635429383
4.416094779968262,0.006323173642158508,7.92983102798462,0.7046392560005189,0.38338702917099,-0.6225326061248779
5.226056098937988,0.3025109469890595,11.699646949768068,0.598045825958252,-0.08297095447778703,-0.26507633924484253
4.180361747741699,3.2486269474029545,11.394598960876467,0.4711965620517731,-0.0914815440773964,-0.2426707148551941
4.091233253479004,0.9780519008636475,10.137992858886719,0.22369074821472168,-0.09056038409471513,-0.19988170266151428
4.82093095779419,0.18500176072120667,10.395236015319826,0.13171595335006714,-0.06108436360955239,-0.1356533914804459
4.1884779930114755,0.2072625905275345,10.229113578796388,0.03708130121231079,-0.030076349154114727,-0.07839861512184143
4.100431442260742,-1.2720510959625244,10.007065773010256,-0.028924321755766872,-0.006474877241998912,-0.0623093917965889
3.064297437667847,-2.3453772068023686,9.479247093200685,-0.04123719036579132,-0.03602138534188271,-0.08321584761142731
3.9644124507904057,-1.8479866981506348,9.822942733764648,-0.0762820839881897,-0.062113109976053245,-0.12760411202907565
5.182683944702148,-2.049197196960449,9.664514541625977,-0.05466781556606293,-0.0399174876511097,-0.10822336375713348
4.732760906219483,-1.4796926975250244,9.75022602081299,-0.023313345387578014,-0.013351107947528364,-0.046602763235569
4.540601253509522,-1.883788824081421,9.762055397033693,-0.004132593981921673,-0.0005221908795647324,-0.030414171516895294
4.313246726989746,-1.980518460273743,9.781309127807617,0.027296343818306926,0.007483112625777721,-0.026139918714761734
4.036402225494386,-1.8124573230743408,9.730473518371584,0.04100841283798218,0.0002462507400196046,-0.034746088087558746
4.16811466217041,-1.6661890745162966,9.70079231262207,0.039835106581449516,-0.009979196824133398,-0.03334612399339676
4.131655216217042,-1.0876240730285645,9.838232040405273,0.023155029863119125,-0.013562629930675031,-0.01638265699148178
3.982346534729004,-1.1538828611373904,9.792830467224123,0.005836702417582274,-0.021306592971086502,-0.010053467005491257
3.518270492553711,-1.5422334671020508,9.577084541320803,0.045754142105579376,-0.056848581880331046,-0.04346512258052826
3.573021411895752,-1.8251155614852907,9.759639739990234,0.04834638163447381,-0.11964555829763414,-0.07992061972618103
4.218289375305176,-1.6377269029617312,9.68813705444336,0.03178522735834122,-0.13672579824924472,-0.08333726227283478
4.056423187255859,-1.2736812829971316,9.621218681335451,0.004455036483705044,-0.13501523435115817,-0.06487189978361131
4.187361717224121,-1.1742608547210693,9.719889640808107,-0.03577633202075958,-0.14596353471279147,-0.04310233145952225
4.068227291107179,-1.6170144081115723,9.646983146667482,-0.05841803550720215,-0.154560387134552,-0.028778249397873882
4.178475856781007,-1.5922460556030273,9.517895698547365,-0.07283435761928558,-0.16297449171543124,-0.030285824090242386
4.320185661315918,-1.3123352527618408,9.596853256225586,-0.08519849926233293,-0.14488521218299866,-0.027433685958385468
4.3381757736206055,-1.3114871978759766,9.635449409484865,-0.11151584237813951,-0.12464016675949097,-0.01159284543246031
4.139172554016113,-1.7370198965072634,9.523404121398928,-0.13591697812080383,-0.11543619632720947,0.002861318411305547
3.8732051849365234,-1.6201134920120241,9.41975498199463,-0.17008043825626376,-0.11657588183879852,0.004979016724973918
4.043560504913331,-1.558047652244568,9.604371070861818,-0.187118336558342,-0.12366826832294464,-0.014920100569725037
3.939677000045777,-1.5979583263397217,9.517752647399904,-0.1521046757698059,-0.13162685930728915,-0.0506630465388298
3.893658876419068,-2.0810897350311284,9.514782905578615,-0.08339714258909227,-0.14826832711696628,-0.11830340325832367
4.0358595848083505,-2.328319311141968,9.460740089416506,-0.021329561248421672,-0.15253189206123352,-0.18334092199802401
4.429349422454835,-1.7964924573898318,9.499778747558594,0.004127311054617167,-0.1392369270324707,-0.2063990831375122
4.488785266876222,-1.4264411926269531,9.66841220855713,-0.01080173719674349,-0.13145840167999268,-0.1739790886640549
4.136798381805421,-1.5337780714035036,9.650556564331055,-0.03409535437822342,-0.1318783462047577,-0.13815374672412875
3.8580892086029057,-1.8032299280166628,9.721586227416992,-0.04765355587005615,-0.17480616271495822,-0.15462446212768555
4.330870151519776,-1.736295223236084,9.638206481933594,-0.053425393998622894,-0.21119661629199984,-0.18762062489986422
4.4314727783203125,-1.0767590999603271,9.7418212890625,-0.0844888836145401,-0.2304586321115494,-0.15483534336090088
4.59529972076416,-1.2161037921905518,9.666249275207521,-0.1422657072544098,-0.25818049907684326,-0.10062610357999803
4.312899589538574,-1.4095679521560671,9.577805519104006,-0.16548053920269015,-0.2791837453842163,-0.09563275426626207
4.156207084655762,-1.6107277870178223,9.59743881225586,-0.16199938952922824,-0.3253817558288574,-0.11149471998214722
4.232578277587891,-1.803671479225159,9.511886596679688,-0.14532564580440524,-0.36102890968322754,-0.14809285104274753
4.205287456512452,-1.7654809951782227,9.54959487915039,-0.12466591596603394,-0.406555712223053,-0.17865543067455295
4.176233768463136,-1.9599506855010986,9.504179000854492,-0.12012077122926713,-0.43656307458877563,-0.22292144596576693
4.025071620941163,-2.3698027133941655,9.49383068084717,-0.10953196138143541,-0.48763906955718994,-0.2738294005393982
4.003850936889648,-2.1564645767211914,9.534111022949219,-0.0836358368396759,-0.5567558407783509,-0.31854069232940674
4.512399673461914,-1.8100460767745974,9.508852958679201,-0.08171994984149933,-0.6373435258865356,-0.31473597884178167
4.146222591400147,-1.1031920909881592,9.60176181793213,-0.13496053218841553,-0.7389318346977235,-0.2714073657989502
4.049715042114258,-1.3225177526474001,9.747320175170898,-0.18434658646583557,-0.903845250606537,-0.263111025094986
4.0894532203674325,-1.0701733827590945,9.71888542175293,-0.24459026753902438,-1.0573055744171143,-0.25347879528999334
4.138896465301515,-1.1033432483673096,9.64843273162842,-0.3370527923107148,-1.210611939430237,-0.25737690925598145
4.05323362350464,-0.9820048809051514,9.716951370239258,-0.4108754694461823,-1.3918519020080566,-0.2600410878658295
3.7684502601623535,-1.2444260120391846,9.841184616088867,-0.4714280366897583,-1.6171227693557741,-0.27000817656517034
3.882145166397095,-0.8669283390045166,10.101581573486328,-0.5565080046653749,-1.8881001472473145,-0.2781026661396027
4.084039688110352,-0.4753153920173645,10.053996086120607,-0.6721715331077577,-2.174662351608277,-0.24097853899002075
4.251913070678711,-0.4164093434810639,9.965681076049805,-0.8283528089523315,-2.4581906795501713,-0.1816292405128479
4.204856872558594,-0.68097060918808,9.941481590270998,-0.9511042833328247,-2.814668416976929,-0.13851533830165866
3.4781324863433842,-0.1960185617208481,9.881505966186523,-1.0728942155838015,-3.4573965072631836,-0.22541590034961703
2.7541561126708984,-0.8909074664115907,9.395858764648438,-1.315460801124573,-4.016979694366456,-0.08991532027721405
4.588288307189941,0.6202789545059204,10.915541648864748,-1.3968548774719238,-5.03473711013794,-0.06393161416053772
4.507521152496339,0.5384827852249146,11.981651306152344,-1.7102811336517334,-6.0317397117614755,0.13133011758327487
5.137754440307617,-1.7333476543426514,12.921568870544435,-1.9519461393356325,-6.947464942932129,0.36981812119483953
6.306425571441651,-2.195104837417603,14.9854211807251,-2.246474981307984,-7.788015842437745,0.528429388999939
11.839345932006836,-3.0524916648864746,17.72274971008301,-2.885526180267334,-8.077662467956545,0.7322531938552856
16.89146232604981,-4.315485000610352,17.822551727294922,-3.771613121032715,-8.11416530609131,0.728728473186493
22.782720565795902,-6.9580278396606445,17.90060043334961,-4.495356559753418,-7.76917314529419,0.5120455026626587
22.781509399414062,-8.42178249359131,20.787090301513672,-4.920977592468262,-7.027374267578125,0.0963345691561699
21.28023719787598,-8.452322006225586,17.717958450317386,-5.581354618072511,-6.308235168457031,-0.26308265328407293
23.96076202392578,-9.786714553833008,15.665895462036133,-6.831935882568359,-5.718961238861085,-0.03787165507674218
24.9710865020752,-6.764719009399414,19.969720840454105,-8.879643440246584,-3.8838343620300293,0.5527694821357728
16.894159317016605,-6.1816143989563,16.53768539428711,-9.996221542358398,-1.9039955139160156,0.33206537365913397
19.608404159545902,-12.96592903137207,15.133956909179688,-7.806628704071046,-0.34631943702697754,-1.6675344705581667
29.804986953735355,-23.269903182983402,26.030658721923828,-4.211455821990968,2.5574512481689453,-2.6068649291992188
10.30169200897217,-15.509722709655763,16.923152923583984,-1.3233346939086914,4.398749828338624,-2.3746118545532227
5.244124412536621,-6.438537120819093,8.810323715209961,0.22984965145587924,4.844103336334229,-2.429530620574951
3.340022087097168,-0.9641059041023256,6.5384626388549805,0.6314208507537842,4.818207263946534,-2.557495594024658
3.3890078067779545,3.033326387405396,6.0290894508361825,0.02538465149700642,4.7151031494140625,-2.346802234649658
3.025695323944092,2.7243602275848393,5.1251235008239755,-0.7848376631736756,4.836278915405273,-1.9266940355300906
0.4537948966026306,0.17758283019065857,3.421469926834107,-0.9796379208564759,5.060913562774659,-1.5633044242858887
-2.3337256908416752,-0.984258770942688,1.6489738225936892,-0.6581342816352845,4.896533012390137,-1.272869944572449
-3.1765360832214355,-0.10441025346517564,1.3408594131469727,-0.22136858105659485,4.50489091873169,-0.9992910027503968
-1.9912574291229248,2.0753421783447266,2.975431442260742,-0.048369571566581726,4.289982318878175,-0.6873499155044556
0.03393963724374771,3.0077064037323002,4.801175117492676,-0.25349563360214233,4.425505638122559,-0.27375039458274847
0.8015762567520142,2.0515882968902592,5.00050973892212,-0.3800370693206787,4.749511241912843,0.13188281655311584
0.6062586903572084,1.079752326011658,4.0297913551330575,-0.2419155240058899,5.045917987823487,0.4139841496944428
0.14507423341274264,1.4915460348129275,2.5511095523834233,0.07882143557071686,5.153104305267335,0.5886094570159912
0.3945586681365967,3.232281923294068,1.6877028942108154,0.24262145161628723,5.149436950683594,0.6684744954109193
0.749945878982544,4.3955078125,0.9490045905113221,0.16936445236206055,5.1138625144958505,0.6543916463851929
0.7927985191345215,4.893974304199219,0.6112511754035951,0.005167952273041011,5.032703399658203,0.5241953134536743
2.160928249359131,5.1543898582458505,1.3796857595443728,-0.16159316897392273,4.963181018829347,0.2986854314804077
4.804622173309327,4.181699752807617,2.3727869987487793,-0.2590166628360749,5.039213657379151,-0.02152775228023529
6.747308731079102,2.7452144622802734,2.01206111907959,-0.14622196555137634,5.14976453781128,-0.3573744297027588
7.83380937576294,1.8061734437942507,0.5559880137443544,0.043424032628536224,5.105156421661378,-0.582598388195038
8.840215682983398,1.4904794692993164,-0.3932239711284638,0.22050514817237854,4.847426891326905,-0.5996907949447632
11.088837623596193,1.4600696563720703,-0.6167176365852357,0.3008693158626557,4.518656253814698,-0.4564177989959717
14.201800346374513,0.048246722668409354,-0.4755547940731049,0.3761124014854431,4.1380581855773935,-0.22219204902648926
16.964786529541016,-1.339752197265625,-0.8530583977699281,0.6236853003501893,3.6622047424316406,0.12751251459121704
18.258758544921875,-1.3093305826187136,-2.1193785667419434,0.9658532738685609,3.071385383605957,0.5234095454216005
18.67351531982422,0.32304805517196655,-3.280111789703369,1.1614748239517214,2.3733236789703374,0.8624131679534912
19.354200363159183,1.1754876375198366,-3.9587428569793706,1.152151346206665,1.6113892793655398,1.054724931716919
19.902662277221683,0.8630107641220093,-4.228864192962647,1.1060781478881836,0.8558450341224672,1.0950669050216677
20.015792846679688,0.4028049111366272,-4.182173728942871,1.152703404426575,0.11876730620861053,1.0138646364212038
19.301733016967777,0.8897100687026978,-4.587404727935792,1.2057181596755984,-0.5721847414970399,0.8437836170196533
22.107219696044922,3.55662751197815,-6.587137222290039,1.0270187854766846,-1.3982957601547243,0.6321525573730469
66.85955047607423,7.993621349334718,18.45830535888672,-1.5568395853042605,-2.520669937133789,0.9773858785629272
44.47857666015625,16.495834350585938,20.900177001953125,-2.0708651542663574,1.0267273187637331,0.09288915991783142
-3.14072060585022,-1.835554599761963,5.829750061035156,-0.24227325618267062,1.412570118904114,-0.0710086077451706
2.595711946487427,-12.763164520263672,11.86140537261963,0.006928019225597382,0.5322037339210511,0.1882551908493042
-6.443517684936523,2.6863715648651127,10.680150032043459,-0.059246223419904716,0.29492610692977905,0.0015662163496017456
3.983354806900025,-5.243497371673585,11.130227088928224,-0.08110030740499498,0.301761269569397,-0.7019323706626893
1.6625089645385742,-10.425049781799318,9.724749565124513,0.21878066658973694,0.06634102761745453,-0.711206614971161
6.082680702209473,1.374847650527954,9.836965560913086,0.4113415181636811,-0.042322367429733276,-0.897851049900055
7.425368785858155,3.135239601135254,9.692654609680178,0.31810545921325684,0.03571918979287148,-0.7104232907295228
8.062389373779297,1.6228367090225222,9.4102783203125,0.16874884068965915,0.1801418960094452,-0.3170516192913056
5.990072250366211,0.7630903720855713,9.450742721557617,0.11438679695129395,0.2678678035736084,0.0010061344364658
4.449047088623047,-2.6657943725585938,9.631282806396484,0.08055507391691209,0.31297314167022705,0.03576095774769784
3.4699573516845703,-2.9902269840240483,10.033935546875,0.15671446919441223,0.24224750697612765,-0.057898100465536124
3.3840718269348145,-0.522602140903473,10.555705070495607,0.13178990781307223,0.09655019640922546,-0.10120103508234025
4.011454105377198,0.8802940845489502,10.56702995300293,0.0015459257410839202,-0.05687746778130532,-0.010047385469079018
4.192632675170898,0.2755979895591736,10.282828330993654,-0.11900944262742998,-0.16505587100982666,0.09831019490957262
4.384247303009034,-1.0583434104919434,9.964885711669922,-0.17258799076080322,-0.21274106204509738,0.1374713331460953
4.007484912872315,-1.3835012912750244,9.732931137084961,-0.17965684831142428,-0.24842944741249084,0.10190130025148393
3.923949718475342,-1.2002649307250977,9.93692398071289,-0.1429368555545807,-0.32655221223831177,0.044225882738828666
4.364005565643311,-1.144015192985535,9.95027256011963,-0.1672385334968567,-0.38043960928916937,0.0145390834659338
4.588452816009522,0.03003804385662079,10.031542778015138,-0.26244410872459417,-0.40997761487960815,0.059072159230709076
4.384721755981445,-0.7062790393829346,9.825408935546875,-0.3030711710453034,-0.4258209466934204,0.1002422794699669
3.770875930786133,-1.850760340690613,9.170364379882812,-0.29846376180648804,-0.5083804130554199,0.06829290837049486
5.010720252990723,-1.5324428081512451,9.843015670776367,-0.2826220989227295,-0.5515496134757997,0.028124704957008362
4.2837724685668945,-1.5969560146331787,9.202850341796875,-0.2823154926300049,-0.5308992266654969,0.011705863289535047
5.177268028259277,-1.231159329414368,9.54632568359375,-0.2537241578102112,-0.5238463282585145,-0.004942205734550953
4.213996887207031,-2.0900001525878906,8.839357376098633,-0.23200337588787082,-0.47221085429191595,0.009489921852946281
5.227985382080078,-0.85593581199646,9.907851219177248,-0.23765443265438083,-0.504482626914978,0.042541991919279105
3.7753562927246094,-1.8707252740859988,8.63560676574707,-0.20540395379066467,-0.4633117616176606,0.08019699901342393
4.990623474121094,-1.5305569171905518,9.908323287963867,-0.16620527207851413,-0.6285132169723511,0.028339760378003124
4.057721614837647,-1.5250099897384646,8.933163642883303,-0.21914133429527283,-0.5572549104690552,0.07776726037263872
4.726541996002198,-1.7886292934417725,9.520294189453125,-0.14554794132709506,-0.7169744968414307,-0.008854961954057218
4.659688949584961,-1.9935458898544314,8.80724620819092,-0.20149800181388855,-0.6096330285072328,0.0032392612192779784
4.83312749862671,-1.7923508882522585,8.991839408874513,-0.12689571082592013,-0.7336781024932861,-0.09547827392816545
5.690354824066163,-1.2947497367858887,9.019579887390138,-0.17981252074241638,-0.6280186176300049,-0.06844510883092882
4.435277938842773,-1.5731590986251833,8.351114273071289,-0.129595622420311,-0.6562650203704834,-0.0956506058573723
5.733794212341309,-1.2453998327255251,9.201394081115724,-0.15518802404403687,-0.593128263950348,-0.07287728041410448
5.340094566345215,-1.7603713274002077,8.659221649169922,-0.1420970857143402,-0.5255547165870668,-0.058556102216243744
4.629743576049805,-2.0116848945617676,8.52690315246582,-0.07883384823799133,-0.5944368839263916,-0.11137638241052629
5.883481979370117,-1.3900620937347412,9.266902923583984,-0.09111173450946808,-0.543366849422455,-0.09478381276130676
5.100941181182862,-2.037654399871826,8.406938552856445,-0.039922796189785004,-0.5328944325447084,-0.10165513306856157
5.28405523300171,-2.027119398117066,8.969208717346193,-0.01449536718428135,-0.5461269021034242,-0.1090332567691803
5.0914626121521005,-2.1064741611480717,8.812032699584961,0.0040472480468451985,-0.5613035559654237,-0.13368970155715942
5.047566890716554,-1.8502204418182373,8.730072021484375,0.02762029320001602,-0.6108116507530214,-0.17882806062698364
5.058619499206543,-2.041742563247681,8.753865242004396,0.08003281801939012,-0.7338252067565918,-0.25656813383102417
5.901928901672363,-1.0248351097106934,9.133277893066406,0.019602188840508464,-0.6866379976272583,-0.2257359474897385
5.220700263977051,-1.4733744859695437,9.11958122253418,0.029610782861709595,-0.7588051557540894,-0.22896020114421847
5.134169578552246,-1.79121994972229,8.923276901245117,0.014053430408239365,-0.7995851635932923,-0.22461378574371338
4.909892559051515,-2.0029699802398686,9.464573860168459,0.10761870443820953,-1.053969979286194,-0.3231466710567475
5.833252906799316,-0.9975799322128296,9.524042129516602,0.08351691812276842,-1.0666418075561523,-0.27970311045646673
4.589149475097656,-1.3734835386276247,8.69045925140381,0.05101488903164864,-1.1780217885971072,-0.29747074842453003
5.952416896820069,-0.8366367220878602,9.663097381591797,0.04801873117685318,-1.407245755195618,-0.3435446619987488
5.71003293991089,-0.7370938658714296,9.125086784362795,-0.04705679044127465,-1.5034301280975342,-0.318761944770813
5.591373920440675,-0.6192247271537782,9.373468399047852,-0.07038114964962006,-1.7272287607192995,-0.3004266023635864
5.323323726654054,-1.165360927581787,8.763837814331055,-0.07182683795690538,-1.9896758794784548,-0.33201777935028076
5.445622444152832,-1.2504073381423952,8.650259017944336,-0.0794682502746582,-2.293399572372437,-0.36746323108673096
5.423576354980469,-1.0724472999572754,8.712115287780763,-0.0447290763258934,-2.683083295822144,-0.39915689826011663
5.888614654541016,-0.7209715247154237,8.773626327514648,0.006272637750953437,-3.131345272064209,-0.3870802223682404
6.076782703399659,-0.064149871468544,9.274885177612305,0.017683889716863632,-3.629802703857422,-0.31277319788932806
7.2121644020080575,-1.0586493015289307,10.310493469238281,-0.0032489944715052847,-4.094084739685059,-0.21735458076000216
8.903759002685547,-1.488450050354004,11.33132076263428,-0.06965545564889909,-4.34804630279541,-0.006070278584957123
10.88888168334961,-1.1835129261016846,12.354662895202638,-0.3568123877048493,-4.401598930358887,0.18334759771823886
14.187185287475586,-1.843449592590332,12.510407447814943,-0.7894922494888306,-4.107023239135742,0.3673196732997895
17.838390350341797,-2.957706928253174,12.94802761077881,-0.8733634352684022,-3.7592391967773438,0.4797650873661042
20.44329643249512,-2.425422191619873,11.892542839050295,-1.2564287185668945,-3.2864806652069096,0.5636314749717714
23.87317657470703,-5.629958152770996,7.9158997535705575,-1.5345768928527832,-3.0165760517120366,0.376542866230011
23.504407882690433,-10.15625,1.128892421722412,-0.7761446237564087,-3.177356243133545,-0.16236416995525363
27.162372589111328,-11.807720184326172,3.3503401279449467,0.7704639434814453,-3.2671015262603764,-0.6204217672348022
25.20213127136231,-9.519092559814453,2.4335587024688725,1.9793280363082888,-3.4294257164001465,-0.7155201435089111
34.525779724121094,-6.076410770416261,9.598108291625977,2.258739233016968,-3.519510269165039,-0.6810380816459657
35.42831039428712,-3.4558029174804688,19.455047607421875,1.6307742595672607,-1.9831511974334717,-0.5472424626350404
22.91293525695801,-1.8170472383499148,14.671012878417969,0.5843753218650819,-0.8084605932235718,-0.42153427004814154
18.047977447509766,-1.4138548374176025,12.598956108093263,-0.3833988904953003,-0.4158150255680085,-0.6130368113517762
13.18690586090088,-2.0573644638061523,10.504929542541506,-1.1115788221359255,-0.3574697971343994,-0.998140037059784
11.931143760681154,-4.029535293579102,10.398126602172852,-1.4875127077102663,-0.4703477323055268,-1.4714984893798828
10.549789428710938,-6.477510929107667,10.862467765808107,-1.3216326236724854,-0.3812787830829621,-1.8577651977539062
8.89395046234131,-7.9298601150512695,11.86314105987549,-0.6578480601310731,-0.1955711841583252,-2.081193447113037
6.770352840423585,-7.344907760620117,12.489631652832031,0.041672974824905396,0.09415035694837572,-2.1084580421447754
4.523945331573487,-5.13068437576294,12.581339836120607,0.4376999437808991,0.45298674702644354,-2.0063748359680176
1.8601025342941286,-3.484426498413086,11.812808036804201,0.454007089138031,0.8426390290260316,-1.7792086601257324
-1.201375961303711,-3.2586343288421635,9.739078521728516,0.410863071680069,1.1812644004821777,-1.5074291229248047
-4.463462352752686,-3.2941963672637944,7.441390037536621,0.5075594186782837,1.3319960832595827,-1.3019845485687256
-6.3259735107421875,-1.9991472959518435,6.203669071197511,0.5101712942123413,1.3544344902038574,-1.0978335142135622
-6.62476396560669,-0.7482986450195312,6.449925422668457,0.3009660243988037,1.3991314172744753,-0.8246301412582397
-6.054069995880128,-0.6926810145378114,7.2438859939575195,-0.031503733247518546,1.6740999221801758,-0.4612200856208801
-7.193215847015382,-2.050429344177246,6.652925968170167,-0.12155367434024811,2.041106462478638,-0.1592663824558258
-8.327447891235352,-1.9624454975128174,5.120084762573242,-0.04113831743597985,2.295434713363648,0.07908684015274048
-9.038353919982912,-0.39306557178497314,3.8750464916229252,-0.0305419284850359,2.3891701698303223,0.24649204313755038
-8.371038436889648,0.5916783213615419,3.577222108840943,-0.24653442203998568,2.521057605743408,0.42018771171569824
-7.526188850402832,0.1272895634174347,3.6684441566467285,-0.44719046354293823,2.7132570743560795,0.5582864284515381
-6.5720062255859375,-0.20272010564804077,3.577125787734986,-0.5155723690986634,2.97479796409607,0.6673166751861572
-6.331321716308594,0.2676979899406433,2.7997295856475835,-0.5000560879707338,3.2078213691711426,0.7609463334083558
-5.463734149932862,1.1874189376831055,2.6275498867034917,-0.5848404169082642,3.3715636730194096,0.8662293553352357
-3.6412158012390137,1.597351312637329,3.1741902828216557,-0.7231452465057373,3.580598115921021,0.9772393703460693
-2.252433061599732,1.7884118556976318,3.0497608184814453,-0.7835283279418945,3.8274593353271484,1.0460084676742556
-0.7805324196815492,2.5199496746063237,2.645467758178711,-0.7954376339912416,3.986680030822754,1.042490601539612
1.3390971422195437,3.384723663330078,2.4503338336944585,-0.8370265364646913,4.07221794128418,0.9872030019760132
3.353506565093994,3.349667310714722,2.312851190567017,-0.8015781044960023,4.107944488525391,0.8640418648719789
5.685931205749512,3.6710734367370605,2.301218032836914,-0.6678089499473573,4.0702786445617685,0.6865527629852295
8.444892883300781,3.7111005783081055,1.8340803384780886,-0.4907595813274384,3.969754219055176,0.487482100725174
10.510612487792969,3.4426212310791016,0.6274326443672181,-0.27533933520317083,3.7144718170166016,0.28705155849456787
12.49910640716553,2.9418318271636967,0.3051562607288361,-0.05620415508747101,3.2823512554168706,0.1370125412940979
15.465553283691406,2.031065702438355,1.1376944780349734,0.1628241688013077,2.8505599498748784,0.05600404739379883
17.51346206665039,0.8597556352615356,1.5805016756057741,0.45144230127334595,2.4983613491058354,0.05859825760126114
18.5767993927002,0.2905743718147278,1.661304235458374,0.7163583040237427,2.170270204544068,0.1611142605543137
18.421142578125,-0.13099893927574158,0.6931470632553101,0.9158203601837158,1.86377489566803,0.32824885845184326
16.948013305664062,0.13799011707305908,-0.6165713667869569,1.0102719068527224,1.480685591697693,0.5807470083236694
15.219349861145021,-0.1010289564728737,-1.7488682270050049,0.9702966213226318,1.0572010278701784,0.8868368864059448
38.36347198486328,7.917765140533448,0.7217792868614198,-1.026707649230957,0.19565741717815402,2.0206439495086674
59.06090927124024,22.98240470886231,16.016126632690433,-2.6656429767608647,0.7046964168548584,1.764238476753235
17.454664230346683,6.492333889007569,13.321086883544922,-1.9636037349700928,2.4099631309509277,1.0356868505477907
3.309917449951172,-12.702604293823242,9.229637145996094,-0.7028841972351074,2.7402369976043706,1.00848388671875
-8.386415481567383,-10.655563354492188,12.061939239501953,-0.2747650146484375,1.5614942312240603,0.5330880284309388
-4.938190937042237,-13.561664581298828,11.06338405609131,0.37042832374572754,0.562829077243805,-0.35544323921203613
-1.1288350820541384,-9.502132415771484,12.418622970581055,0.5782694816589355,0.005622154101729393,-0.7316337227821351
3.0490708351135254,2.9822504520416264,11.567416191101076,0.4934335052967072,-0.30504685640335083,-0.9540922045707704
9.293346405029297,4.8829922676086435,9.788543701171875,0.2600715756416321,-0.32949784398078924,-0.6524704098701478
8.59110736846924,4.636476993560792,8.792986869812013,0.015269948169589043,-0.13574261963367465,-0.19580501317977905
6.804542541503906,0.7860913276672363,8.884707450866701,-0.0970565676689148,0.1424776017665863,0.16614006459712985
4.644559860229492,-3.8524811267852788,8.916934013366701,-0.07603832334280015,0.3250839114189148,0.1731793433427811
3.528821229934693,-4.340335369110108,9.413013458251953,0.14968028664588928,0.32131978869438177,-0.011247600428760053
3.659404754638672,-1.6272120475769043,9.903230667114258,0.21464258432388306,0.2636441290378571,-0.12697845697402954
4.514620304107667,0.5985444784164429,10.14349365234375,0.13947004079818726,0.22765779495239258,-0.08634994179010393
4.381025791168214,0.8267679214477539,10.158885955810547,-0.005024055019021034,0.18086595833301547,0.04202326387166977
3.872194290161133,-0.6040555238723755,10.134667396545412,-0.09707734733819963,0.11556126177310944,0.11063931882381439
3.5196788311004643,-1.8137025833129883,10.115633010864258,-0.11417544633150102,0.03564684838056564,0.08694034069776536
3.652775764465332,-1.7193989753723145,10.084665298461914,-0.08184339851140977,-0.057752098888158805,0.018231581896543503
4.164080619812012,-0.8065680861473085,10.019764900207521,-0.10515587031841278,-0.1038917973637581,0.0053481170907616615
4.429666042327882,-0.3752276301383972,9.813425064086914,-0.1558685749769211,-0.11376096308231354,0.057372115552425385
4.344093799591065,-0.568480670452118,9.804417610168459,-0.209469735622406,-0.11766802519559862,0.12075401842594147
3.6419014930725098,-1.142601728439331,9.77400016784668,-0.23836399614810946,-0.14700649678707126,0.14460143446922302
4.756432056427003,-1.2740929126739502,10.109301567077638,-0.22720447182655334,-0.26121470332145696,0.09215749800205231
4.010960578918457,-1.574155569076538,9.469841957092287,-0.23257192969322205,-0.2038744240999222,0.13918940722942355
3.7356007099151616,-1.4825595617294314,9.133121490478516,-0.21480661630630493,-0.23631818592548373,0.09717075526714325
5.408422470092773,-0.7222516536712646,10.286971092224123,-0.2526057958602905,-0.2502977252006531,0.0975443944334984
3.441031694412232,-1.5033881664276123,9.214265823364258,-0.2769741415977478,-0.24790494143962863,0.11401383578777313
4.783294677734375,-1.004370927810669,10.05867099761963,-0.283253699541092,-0.28936415910720825,0.08654892444610596
3.8941466808319096,-1.6440380811691286,9.120022773742678,-0.30612882971763616,-0.23375287652015686,0.11662956327199937
4.98991346359253,-1.8489856719970703,9.69703006744385,-0.2600281238555908,-0.2844642996788025,0.03313307091593743
4.790397644042969,-1.5244600772857666,9.367530822753906,-0.28069859743118286,-0.14756737649440768,0.11851373314857483
3.997044563293457,-2.118111371994019,9.018320083618164,-0.2060716450214386,-0.24140323698520663,0.036066498607397086
5.122103214263917,-0.9982619285583496,9.572761535644531,-0.2626674175262451,-0.08167696744203569,0.09646539390087128
3.6986846923828125,-1.767001032829285,8.570985794067383,-0.19068442285060885,-0.07996705919504167,0.10294368863105774
4.892580986022949,-1.4896372556686404,10.025693893432617,-0.15578514337539673,-0.18284608423709872,0.015614286065101624
3.9086575508117676,-2.3727526664733887,8.901510238647461,-0.1304765194654465,-0.11445249617099762,0.04044216126203537
4.347955703735352,-2.0844006538391113,9.227861404418945,-0.07340750843286516,-0.10361161828041077,0.0040400256402790555
4.640728473663331,-1.6230063438415527,9.479364395141602,-0.05712516978383065,-0.07246423512697221,0.013439895585179329
4.225994586944581,-1.974630951881409,9.02692985534668,-0.056619439274072654,-0.054936520755290985,0.0004602090048138053
4.275297641754151,-1.7954225540161133,9.410094261169435,-0.03757096454501153,-0.11962741613388062,-0.03598449379205704
3.899835824966431,-1.617504358291626,9.405854225158693,-0.042792651802301414,-0.10378840565681458,-0.030014568939805034
4.375996112823487,-1.689406394958496,9.576059341430664,-0.04132344573736191,-0.146662175655365,-0.05467860028147698
4.277942180633546,-1.489889979362488,9.377935409545898,-0.036704007536172874,-0.146070659160614,-0.06623277813196184
4.270133495330811,-1.2010921239852907,9.606658935546875,-0.044962111860513694,-0.18448024988174438,-0.07825231552124023
4.456659793853761,-1.1278603076934814,9.481475830078125,-0.06789063662290575,-0.20907413959503174,-0.06194664910435677
3.686614990234375,-1.8431804180145264,9.399396896362305,-0.05189952999353409,-0.3039318323135376,-0.08373340219259263
4.268024921417237,-1.5886291265487673,9.677190780639648,-0.0557900071144104,-0.3516010940074921,-0.10944904386997223
3.6610279083251953,-1.5158513784408572,9.664152145385742,-0.03962739557027817,-0.4727665483951569,-0.14625032246112826
3.6315197944641113,-1.4600203037261963,10.041341781616211,-0.06473077088594438,-0.6106976270675659,-0.16523905098438266
3.7361655235290527,-1.6825416088104248,10.001489639282227,-0.0806584879755974,-0.7644674181938172,-0.18523705005645752
3.7650628089904785,-1.394500494003296,9.931472778320312,-0.08754234760999681,-0.9364246129989624,-0.19540031254291537
4.54931402206421,-1.119476556777954,10.138303756713867,-0.09995535016059875,-1.163856625556946,-0.1868862956762314
4.22441053390503,-0.9010432362556459,9.938887596130373,-0.1736029535531998,-1.3006703853607178,-0.10242360085248949
3.960044622421265,-0.9861930012702943,10.142101287841797,-0.22484886646270752,-1.5466282367706299,-0.05423234030604363
4.052405834197999,-0.5607031583786011,10.246209144592287,-0.36487832665443426,-1.7892887592315674,-0.03785892948508263
3.482266902923584,-1.099485516548157,9.838743209838867,-0.5075375437736512,-2.093730926513672,-0.051807962357997894
4.509723186492921,-1.1911906003952029,9.929244995117188,-0.6259728670120239,-2.434306383132935,-0.09868474304676056
4.116849422454835,-2.9537031650543217,10.140902519226076,-0.488972157239914,-2.7841451168060307,-0.2024446427822113
3.5752518177032475,-0.8454074263572694,9.936707496643068,-0.28787702322006226,-3.367836713790894,-0.28790169954299927
3.796841621398926,-1.661665916442871,10.594468116760256,-0.21192356944084167,-4.050158023834229,-0.4129116237163544
3.8913769721984863,-2.882540702819824,10.57411289215088,-0.06961929798126221,-4.7834134101867685,-0.3822735548019409
5.777339458465577,-3.6524994373321538,11.25272846221924,0.023611582815647125,-5.428386688232422,-0.4008400738239289
9.017109870910646,-3.851588726043701,13.922369956970217,0.0022433334961533546,-5.733952999114991,-0.37476933002471924
12.52796745300293,-5.833115577697754,14.815339088439943,-0.047840986400842674,-5.658012390136719,-0.36757922172546387
16.483297348022464,-7.347957611083984,14.251384735107422,0.29563313722610474,-5.47790288925171,-0.5203169584274292
26.4417724609375,-5.531521797180176,12.783871650695803,0.7133617401123047,-5.086336135864258,-0.8164947628974916
32.37267684936524,-6.523105144500733,8.530899047851562,0.7820910215377808,-4.6944317817688,-1.0978076457977295
32.65600967407227,-7.879086494445801,2.8839156627655034,1.1058524847030642,-4.508733749389648,-1.4089078903198242
35.81346130371094,-6.6285109519958505,6.291545867919922,1.9707218408584597,-4.052995681762695,-1.6362293958663943
32.57253646850587,-0.49788135290145874,4.858634471893311,2.118302822113037,-3.870847702026367,-1.8040720224380495
45.6087989807129,0.9749587774276733,21.009960174560547,0.9395609498023988,-2.8054981231689453,-1.9321206808090212
29.559555053710938,-1.0617252588272097,18.906749725341797,-0.4074632823467255,-0.7838892936706543,-1.6324987411499023
20.77518081665039,-2.8852944374084473,14.450619697570803,-1.5108138322830202,-0.041137948632240295,-1.2812138795852663
14.650803565979006,-6.531640529632569,11.980581283569336,-1.8460659980773926,0.15199324488639832,-1.1675130128860476
7.583071231842042,-9.290252685546875,9.133195877075195,-1.2571947574615479,-0.04244078323245049,-1.1685025691986084
5.004603385925293,-9.418233871459961,9.529028892517092,-0.08799393475055695,-0.41440543532371527,-1.3116477727890017
3.724180936813355,-6.400065898895265,11.737318992614748,0.8382648825645448,-0.548658013343811,-1.3202668428421023
3.0106713771820073,-2.4293179512023926,13.97683620452881,1.033299446105957,-0.33557355403900146,-1.1405659914016726
0.7791152596473695,-0.30394157767295843,13.817338943481445,0.7125422954559326,0.23112632334232333,-0.8481305837631226
-3.4031960964202885,-0.6265685558319092,11.592656135559084,0.4231410622596741,0.8212013840675355,-0.6460976004600526
-6.749274730682374,-1.6199351549148562,9.293144226074219,0.3732592463493347,1.1739755868911745,-0.5538793802261353
-8.659708976745607,-2.284493923187256,7.6869707107543945,0.5470393896102905,1.3095576763153076,-0.5296064019203187
-8.556620597839357,-1.5324393510818484,7.464712619781495,0.6856804490089418,1.4355862140655518,-0.4582339823246003
-8.716031074523928,-0.7168070077896118,7.1873517036438,0.6097766160964966,1.6877950429916384,-0.29726299643516546
-9.92431640625,-0.7250948548316957,6.4710659980773935,0.40113714337348944,1.9335455894470215,-0.12178611010313035
-10.326925277709961,-1.4476921558380127,5.467592716217042,0.24590893089771274,2.1617462635040288,0.08231547474861145
-10.649139404296875,-1.830954194068909,4.475363731384277,0.2160717695951462,2.329730987548828,0.27729240059852606
-10.277835845947266,-1.3567423820495605,4.039048194885254,0.1383916884660721,2.4841175079345703,0.4872521758079529
-8.990275382995607,-1.071608901023865,4.129367828369141,-0.03588540852069855,2.6936805248260502,0.688823938369751
-8.293116569519045,-1.380460262298584,3.543668270111084,-0.1925436705350876,2.9556720256805424,0.8917763233184814
-7.403260231018066,-1.3207252025604248,2.9159753322601323,-0.28341558575630194,3.180385112762451,1.0851887464523318
-6.135980129241944,-0.8497953414916992,2.390984535217285,-0.36460033059120184,3.3825321197509766,1.2548072338104248
-4.43414306640625,0.20449994504451754,2.2180531024932866,-0.5187996029853822,3.5809850692749023,1.4242576360702517
-2.3166704177856445,0.9144113063812256,2.2682509422302246,-0.7439274191856385,3.769753217697144,1.573667049407959
-0.09099696576595306,1.3276885747909548,2.433256149291992,-0.9082319736480713,3.9592807292938237,1.6528611183166504
2.334896326065064,2.2798912525177006,2.3232498168945312,-0.9893571734428407,4.13902473449707,1.6353352069854736
5.020824432373047,3.061489343643189,1.8466460704803467,-1.0604683160781863,4.225560188293457,1.5186935663223269
8.567357063293459,2.165347099304199,1.698582410812378,-1.0161325931549072,4.20928955078125,1.313294291496277
11.713119506835938,1.70516574382782,1.229421854019165,-0.7244836688041688,4.118593215942383,1.0684486627578738
14.601062774658203,2.634334802627564,0.19899852573871615,-0.4432923197746277,3.9426949024200444,0.8107801079750062
16.749740600585938,2.7898895740509038,-1.646172285079956,-0.2827818095684052,3.5889229774475098,0.5571783185005189
18.5005054473877,1.822559714317322,-2.855654716491699,-0.10487475246191026,3.0067703723907475,0.3385171890258789
19.726930618286136,1.3462795019149782,-3.4075188636779785,0.14903900027275085,2.317449808120728,0.2092733085155487
20.818161010742188,2.1929600238800053,-3.708125114440918,0.32393684983253485,1.6276109218597412,0.1679638922214508
20.903104782104496,2.3676316738128667,-4.265151500701905,0.41816049814224243,0.9513888955116273,0.13798880577087402
18.097476959228516,2.1485671997070312,-6.543544769287109,0.665077805519104,0.26122528314590454,0.01892608962953091
31.894315719604496,11.149784088134766,-9.863100051879883,0.1129402369260788,-0.923293173313141,0.19591310620307922
80.00735473632812,8.31736469268799,52.051246643066406,-3.053403377532959,0.3157797753810883,0.8936516642570497
-3.0381646156311035,-5.259733200073242,-13.55129623413086,-0.3555554151535034,3.1474115848541264,0.6631436347961426
11.77483654022217,-11.862401008605959,15.439608573913576,0.15832303464412692,3.001263856887818,0.8857393264770508
-6.553679943084718,-3.063470602035523,9.597370147705078,0.07379325479269029,2.939356803894043,0.13152776658535006
-1.5962866544723513,-12.902570724487305,12.410701751708984,0.8861109614372255,2.0798497200012207,-0.2665466070175171
-6.078129768371582,-0.662539303302765,16.563341140747074,0.8602589964866639,0.8874847888946533,-0.45534500479698187
0.17395049333572388,3.023256063461304,13.504456520080568,0.35988870263099676,0.03933932259678841,-0.5726864337921143
5.0941362380981445,2.3512904644012456,10.187390327453615,0.0779051259160042,-0.33626192808151245,-0.3821136057376862
8.020074844360352,2.364654541015625,9.3685302734375,-0.07321781665086748,-0.38081997632980347,-0.12290138006210327
6.728717803955078,-1.673565745353699,8.28948974609375,-0.10937400907278062,-0.11871162056922913,-0.002631664508953691
5.638513565063477,-2.931812286376953,8.640827178955078,0.032904807478189475,0.1293131858110428,-0.0687146931886673
4.512555599212647,-0.971579909324646,9.574701309204102,0.12213705480098724,0.239752933382988,-0.08999957144260406
3.975841522216797,0.7426811456680298,10.240791320800781,0.04149778187274933,0.22158180177211764,-0.015578092075884344
3.925592184066773,0.2947620153427124,10.35930061340332,-0.11267511546611786,0.1594408601522446,0.08745478093624115
3.7598447799682617,-0.7804659605026245,10.142389297485352,-0.1926754117012024,0.08349776268005371,0.13280566036701205
3.7958245277404785,-1.320435404777527,10.006365776062013,-0.1961667984724045,0.007841428741812706,0.12087831646203996
3.7281250953674316,-1.2672225236892702,10.13803482055664,-0.20245508849620822,-0.060765817761421204,0.10198631882667542
3.882060289382935,-1.3179597854614258,10.097101211547852,-0.20808511972427368,-0.11443065851926805,0.09036412835121155
4.100823402404785,-1.0669926404953005,10.028005599975586,-0.21341782808303833,-0.16025996208190918,0.09163030236959459
3.625385999679566,-1.296926498413086,9.560280799865724,-0.2284727394580841,-0.19944499433040622,0.09800183773040771
5.1306166648864755,-1.0984125137329102,10.236172676086428,-0.22547194361686707,-0.25408867001533514,0.08108956366777421
4.210179805755616,-1.7734860181808474,9.346310615539553,-0.22650396823883057,-0.15690697729587558,0.13936060667037964
4.353500843048097,-1.9613032341003418,9.449041366577148,-0.1546163260936737,-0.15909424424171448,0.0863429680466652
4.017367362976074,-2.2365982532501225,9.166409492492678,-0.10628223419189453,-0.1903292685747147,0.020275350660085678
4.953451156616211,-1.2195045948028564,9.528827667236328,-0.10535850375890733,-0.025492113083600998,0.07709012925624847
4.375090599060059,-1.8928469419479372,9.387214660644531,-0.0027493941597640514,-0.12451326102018358,0.005487419664859772
4.716694355010987,-1.2744880914688113,9.619114875793459,-0.0317031666636467,0.007287362590432167,0.06620431691408159
3.8471324443817143,-1.3214905261993408,9.189316749572756,-0.02288583852350712,-0.015295445919036865,0.06717706471681596
4.728207588195801,-1.2226214408874512,9.785999298095703,-0.05069881305098534,0.013059204444289207,0.07579633593559265
4.335634231567383,-1.4390857219696045,9.56460952758789,-0.04992125183343887,0.04944727942347527,0.12115015089511871
3.778872013092041,-2.133369684219361,9.233139038085938,0.015550047159194946,-0.006668544374406338,0.03009484522044659
4.0277466773986825,-1.5911673307418825,9.427615165710451,2.8505108275567185e-05,0.04980524629354477,0.037063140422105796
3.8758170604705815,-1.6361737251281738,9.374305725097656,0.03340831771492959,0.05354413390159607,0.02709774672985077
3.7575500011444096,-1.735867977142334,9.538702964782717,0.05718976631760598,-0.0008732972200959921,-0.026559347286820415
4.021450042724609,-1.2502301931381228,9.439291000366211,0.04413756728172302,0.028114449232816696,-0.02965125255286694
3.9921166896820073,-1.516493558883667,9.43818473815918,0.06690864264965057,0.010305990464985372,-0.03874720633029938
4.1835675239563,-1.3191694021224978,9.310447692871094,0.07808996737003326,0.01557790581136942,-0.04155269637703896
3.314821720123291,-1.2698945999145508,9.316787719726562,0.06330783665180206,0.0007434399449266494,-0.047010429203510284
3.2922868728637695,-1.7819273471832275,9.952466011047365,0.06578790396451951,-0.11554669588804246,-0.10294561088085175
3.9210093021392827,-0.9645077586174012,10.098301887512209,0.042924411594867706,-0.1879866570234299,-0.11345890164375305
3.7564184665679936,-1.0252078771591189,9.782689094543459,0.005287638399749995,-0.24439558386802673,-0.12146852910518646
3.5874991416931152,-1.041008472442627,10.059324264526367,-0.041153185069561005,-0.3169995248317719,-0.1343839466571808
3.262404441833496,-1.4133914709091189,9.956871986389162,-0.0562218688428402,-0.42145285010337835,-0.15691348910331726
3.5384888648986816,-2.0980927944183354,10.203188896179201,-0.03985080122947693,-0.545358717441559,-0.2037068009376526
3.608449935913086,-1.803969740867615,9.997274398803711,0.010713307186961174,-0.6881806254386903,-0.23932032287120822
3.5290822982788086,-1.6478096246719363,10.137216567993164,0.0587051846086979,-0.8805364370346069,-0.3056855499744416
4.037174224853516,-0.940433442592621,10.375223159790039,0.015084376558661461,-0.9820754528045654,-0.2918412387371064
3.5616881847381596,-1.2641502618789675,9.887009620666506,0.032589118927717216,-1.1978967189788818,-0.28448751568794256
3.99051308631897,-0.9386143684387207,10.131550788879396,0.003163027111440897,-1.4081541299819949,-0.24136765301227572
3.644998073577881,-0.9954213500022889,9.745102882385256,-0.03235920891165734,-1.6664879322052002,-0.21363760530948642
4.532879352569581,-0.2604525089263916,11.363798141479492,-0.16539715230464938,-1.8954576253890993,-0.19951528310775757
3.257598161697388,-1.4942244291305544,9.970129013061523,-0.1105867698788643,-2.1083879470825195,-0.22640256583690646
4.804045200347901,-0.18484222888946533,10.207063674926758,-0.19925418496131897,-2.387457132339478,-0.2570237815380097
4.835042476654054,-0.3498966097831726,10.051164627075195,-0.32288962602615356,-2.5687139034271245,-0.2566264867782593
4.835501194000245,-0.4720949232578278,10.010912895202638,-0.4229498207569123,-2.742604017257691,-0.2756437063217163
4.564335823059082,-1.5518368482589724,9.182891845703125,-0.40384864807128906,-2.9645035266876225,-0.3435230255126953
4.099173069000245,-2.005864143371582,8.733720779418945,-0.23119056224822998,-3.406556367874146,-0.46911427378654486
4.5260281562805185,-1.8327890634536745,8.915824890136719,-0.0028202268294990063,-3.946189165115357,-0.5908513069152832
5.984560966491699,-1.1657841205596924,9.823550224304201,0.14241060614585876,-4.547593116760254,-0.6030247807502748
7.504706382751465,-2.2045423984527592,11.695115089416506,0.2008838653564453,-4.98995065689087,-0.5072833299636841
9.834266662597656,-2.830146312713623,13.183882713317873,0.1387808918952942,-5.179306507110597,-0.36007377505302435
15.476464271545412,-5.017964839935304,15.359247207641602,-0.0275928657501936,-5.009356498718262,-0.25204953551292425
17.932352066040043,-7.095380783081055,15.515120506286623,0.35814699530601507,-4.698760509490968,-0.494451642036438
27.045936584472656,-7.080301284790039,16.180154800415043,0.8647950887680054,-4.251341342926026,-0.8365516662597656
28.479619979858402,-9.521444320678711,9.975017547607422,1.5358824729919434,-3.861127614974976,-1.1681045293807986
27.05087661743164,-10.201562881469727,2.3740878105163574,3.0627605915069585,-4.257729530334473,-1.7361828088760378
31.178600311279297,-4.422449111938477,4.081579208374023,4.136411666870117,-4.559861183166504,-1.8629235029220583
36.83506393432618,6.014086246490479,7.354743003845215,3.6604461669921875,-4.7507033348083505,-1.842526912689209
45.50761413574219,6.412946701049805,21.365158081054688,1.317988395690918,-3.181963205337525,-1.4683190584182741
31.325504302978516,2.009442567825318,17.771959304809574,-0.8315239548683168,-1.515883445739746,-1.063507676124573
23.858516693115234,-2.5623912811279297,13.353679656982422,-1.7629039287567139,-0.9485934972763062,-1.0491963624954226
16.719684600830078,-4.94536018371582,9.860775947570803,-1.9587062597274782,-1.0237479209899902,-0.9978280663490297
12.877305030822756,-7.540922641754151,9.526771545410156,-1.4559928178787234,-1.3061721324920654,-1.0636265277862549
11.236451148986818,-8.009063720703125,12.491783142089844,-0.6317185759544374,-1.3728125095367432,-1.0749901533126833
8.124928474426271,-6.463231563568116,14.745798110961914,0.028348518535494808,-1.0417755842208865,-0.8961036205291748
3.2664852142333984,-3.6561899185180664,14.994476318359375,0.34260690212249756,-0.4982969462871552,-0.6994085311889648
-1.244369149208069,-1.55076539516449,14.426110267639162,0.24126461148262024,0.13513477146625522,-0.5124977231025697
-4.727517604827882,-1.194944143295288,13.33802890777588,-0.011808602139353752,0.7972810864448548,-0.3661160469055176
-8.335725784301758,-2.070388555526734,10.418387413024904,-0.11931545287370683,1.3223959207534792,-0.29591864347457886
-11.82455348968506,-1.924737095832825,7.237226009368897,-0.039301972836256034,1.5363891124725342,-0.29971966147422796
-13.081478118896484,-0.26588681340217596,5.901311874389648,-0.13486368954181674,1.543372631072998,-0.2720834016799927
-13.197632789611818,0.6278731226921083,5.871968746185304,-0.5006800889968872,1.6023458242416384,-0.16232246160507202
-12.177935600280763,-0.8582866191864014,6.861344337463379,-0.7673580050468446,1.8272587060928347,-0.0019733160734176636
-11.999823570251467,-2.1235539913177495,7.330492496490479,-0.7514997720718384,2.217406034469605,0.1865025758743286
-12.05652713775635,-1.3268940448760986,6.478569030761719,-0.6565980911254883,2.691142797470093,0.41706898808479315
-12.91526508331299,-0.034833226352930076,4.275965690612793,-0.6817800998687744,3.0157396793365483,0.6333469152450562
-13.026763916015625,0.652422606945038,2.6967728137969975,-0.8304585218429565,3.1094655990600586,0.8132236599922181
-11.240531921386719,0.7703940272331239,3.5570628643035893,-1.0111814737319949,3.1746439933776855,0.9724683165550233
-8.847022056579592,0.33983057737350464,5.136446475982667,-1.0797740221023562,3.447164535522461,1.1125285625457764
-7.077960491180421,0.344104528427124,4.983304023742676,-1.0227577686309814,3.8485877513885502,1.2373838424682617
-5.695754051208496,1.113163709640503,3.8762557506561284,-0.9582607746124268,4.140151023864746,1.3653467893600466
-3.2752807140350346,2.6720225811004643,3.4255685806274414,-1.025668501853943,4.335431098937988,1.507712244987488
0.424355685710907,3.4483680725097656,3.650887966156006,-1.2072607278823855,4.533125877380371,1.619504690170288
4.021940231323242,3.043965101242066,3.5653450489044194,-1.2381683588027956,4.722105026245117,1.6926399469375613
7.995621681213379,4.476430416107179,2.9142813682556152,-1.1363307237625124,4.798950672149659,1.7551283836364746
12.734556198120117,4.359091758728027,1.2991138696670534,-1.0563567876815798,4.738075256347656,1.7350946664810183
16.885545730590824,2.421142578125,-0.8943161964416504,-0.686302900314331,4.380862712860108,1.6604343652725222
20.50634765625,1.9616219997406006,-2.6539177894592285,-0.12640994787216187,3.7259809970855717,1.599724531173706
23.254770278930668,0.8395133018493652,-3.584850788116455,0.37686714529991155,2.975098848342896,1.5236845016479492
24.10887718200684,0.11419078707695007,-4.670270919799805,0.7477158308029175,2.1979706287384038,1.6132416725158691
24.1640796661377,0.7443921566009521,-5.867234230041504,0.786844313144684,1.3751471042633057,1.8311054706573486
23.530321121215824,0.00555109977722168,-6.234730243682862,0.6896476149559022,0.5496300458908081,1.969088912010193
22.81054496765137,-0.2968864738941193,-6.06462049484253,0.6539751291275024,-0.17985880374908447,1.9905627965927126
19.033687591552734,0.6566752195358276,-6.889784336090089,0.6617932915687562,-0.7617276906967163,1.8096050024032595
57.57769775390625,5.044732093811035,9.262074470520021,-0.3260373771190644,-1.7076339721679688,1.327408790588379
30.59571075439453,9.343101501464844,25.17978286743164,-1.639008164405823,3.0704493522644043,0.7800065875053407
6.132972717285156,-10.013153076171875,6.236135482788086,-0.5855332612991333,2.314028739929199,0.27465555071830755
-1.4724310636520388,-15.36808490753174,12.892862319946289,0.37442708015441895,2.8921554088592534,0.20465287566184998
-2.282087087631226,-6.061387538909913,13.061108589172365,1.0051890611648562,2.301516532897949,-0.46910667419433594
-2.3522527217864995,-4.636270999908448,14.228331565856935,0.9786866903305054,1.4330106973648074,-0.6319589614868164
-2.1467232704162598,7.348996162414551,16.348356246948246,0.41562667489051824,0.1334415823221207,-0.6586765050888062
4.3702850341796875,2.9211039543151855,11.847844123840334,-0.1266268789768219,-0.41077432036399847,-0.3833038806915283
8.026006698608398,-1.4017560482025146,8.184964179992678,-0.059336625039577484,-0.4953611791133881,-0.21347184479236606
7.866211414337159,-3.554112434387207,6.7153425216674805,0.018226180225610733,-0.11423415690660478,-0.07443839311599731
6.754795074462891,-1.8125526905059814,8.237980842590334,0.14767719805240634,0.24492983520030978,-0.09180817008018494
4.5502638816833505,-1.1640056371688845,9.590306282043459,0.1743864566087723,0.3937731981277466,-0.06610585004091264
3.7471320629119877,-0.422348827123642,10.217212677001953,0.10566221922636033,0.34359264373779297,-0.011686459183692932
4.266144752502441,-0.5645842552185059,9.954477310180664,-0.008857561275362968,0.26217922568321234,0.06024371087551117
4.210420608520508,-1.2855114936828613,9.686386108398438,-0.04944604262709618,0.19963915646076205,0.09078328311443329
4.178759098052979,-1.7248364686965945,9.671087265014648,-0.05409689247608185,0.16178603470325473,0.08904716372489929
4.043278694152832,-1.5247629880905154,9.826968193054201,-0.04887619242072106,0.10461556911468506,0.08347585797309875
3.8887593746185307,-1.319762945175171,10.00465202331543,-0.07547502219676971,0.029638869687914852,0.08928754925727844
4.128438472747804,-1.4644982814788818,9.754589080810547,-0.10012451559305192,-0.031761679798364646,0.08328554034233093
4.495046615600586,-1.2784509658813477,9.646275520324709,-0.11343445628881456,-0.04748012125492096,0.10122468322515489
4.410906314849854,-1.3079614639282227,9.639213562011719,-0.1334482729434967,-0.05746071413159371,0.12395886331796648
3.950185775756836,-1.6826491355895996,9.231717109680178,-0.14398065209388733,-0.06582891196012498,0.12373378872871399
5.345468997955323,-1.3699820041656494,10.02885150909424,-0.12916067242622375,-0.11651258170604706,0.08435202389955522
4.040032386779785,-1.7384257316589355,9.280301094055178,-0.1558899432420731,-0.026420775800943375,0.17251922190189364
3.773488283157349,-2.036924362182617,8.998570442199709,-0.08832452446222307,-0.08835992217063904,0.09722399711608887
5.432345390319824,-1.5306708812713623,10.104085922241211,-0.1176600828766823,-0.07884718477725983,0.08443642407655717
3.7046949863433842,-1.757749915122986,9.067721366882326,-0.11602217704057695,-0.04232050850987435,0.1348084807395935
4.659058094024659,-1.5424528121948242,9.753218650817873,-0.08576916903257371,-0.09103389084339142,0.08530306071043016
4.050347805023194,-1.8104413747787478,9.249464988708498,-0.11748316138982774,-0.038573749363422394,0.12443524599075317
4.661458969116211,-1.8012145757675173,9.647868156433107,-0.09641212970018388,-0.08282765746116638,0.072246752679348
4.481781959533691,-1.4811319112777712,9.407644271850586,-0.10453201830387115,0.007205739617347717,0.12638457119464877
4.479926109313965,-2.123733758926392,9.286443710327148,-0.05363946035504342,-0.04197727143764496,0.060047339648008353
4.803699493408203,-1.5288509130477907,9.430086135864258,-0.08405739068984985,0.038658436387777335,0.12013880163431169
3.876448154449463,-2.29002046585083,9.09853267669678,-0.052992012351751334,0.0729735940694809,0.12897978723049167
4.211312770843507,-2.4171760082244877,9.155579566955568,-0.007865801453590393,0.0073713818565011024,0.03238204494118691
4.7469987869262695,-1.5571357011795046,9.319079399108888,-0.023339217528700832,0.097808837890625,0.07104320079088212
4.2810730934143075,-2.052212476730347,9.20651626586914,0.028794495388865474,0.12942185997962952,0.08177033066749573
3.922238111495972,-2.388108730316162,8.92142105102539,0.06594637036323547,0.12809501588344577,0.03294191509485245
4.509906291961671,-1.5484858751297,9.410853385925295,0.07738803327083588,0.14895284175872803,0.01393715012818575
3.7057754993438725,-1.6059921979904177,9.433561325073242,0.08318748325109483,0.12491358816623688,0.011895813979208471
3.4752638339996342,-1.7556382417678835,9.678775787353516,0.0867050290107727,0.07310112565755846,-0.016919614747166637
3.3015611171722417,-1.8360403776168825,9.560130119323732,0.06491908431053162,0.0023955253418535,-0.05217397212982178
3.6897096633911133,-1.62669038772583,9.65889644622803,0.054458439350128174,-0.0807264894247055,-0.0943303480744362
3.8857471942901616,-1.6119498014450075,9.595346450805664,0.05360176786780358,-0.13213244080543518,-0.11457664519548418
3.312168598175049,-1.535510778427124,9.76028823852539,0.04931492730975152,-0.20081356167793274,-0.14392778277397156
3.2815992832183842,-2.029959201812744,9.974729537963867,0.03683919459581375,-0.30521747469902044,-0.19632920622825623
3.915726661682129,-1.909861207008362,10.01115608215332,0.016662869602441788,-0.3908626437187195,-0.23393537104129794
4.113325595855714,-1.5466890335083008,9.648290634155273,-0.006751013919711113,-0.4462417662143708,-0.2551318407058716
4.256295680999757,-1.4655009508132937,9.818299293518068,-0.00793394260108471,-0.5221793055534364,-0.2516013681888581
4.380260467529297,-1.3352543115615847,10.067764282226562,-0.030902497470378876,-0.6030086874961854,-0.22205442190170288
4.32647466659546,-1.0141004323959353,10.18051052093506,-0.07993630319833757,-0.7209662795066835,-0.19725021719932556
3.574070453643799,-0.948040246963501,10.10865592956543,-0.1447979658842087,-0.8734898567199707,-0.1843235939741135
3.940924644470215,-0.999936878681183,10.828475952148438,-0.2025362700223923,-1.1321640014648438,-0.18252229690551758
4.249890327453613,-0.918230414390564,10.880088806152344,-0.35769593715667725,-1.3092876672744753,-0.15885162353515625
1.2251570224761963,-2.3941838741302495,10.851149559020998,-0.3561436831951142,-1.7235528230667116,-0.20252934098243713
2.6581351757049565,-2.2855300903320312,10.083307266235352,-0.23034074902534485,-2.197145223617554,-0.2786991596221924
3.9702272415161133,-1.996598243713379,10.2421350479126,-0.3114366829395295,-2.441488742828369,-0.3537825345993042
3.6538190841674805,-1.457212209701538,10.024682998657227,-0.3328311145305634,-2.7818102836608887,-0.41634866595268255
4.611995697021484,-1.5867564678192139,10.04025650024414,-0.3712295889854431,-3.0980653762817383,-0.4737312495708466
3.752782583236695,-1.7257392406463623,9.332089424133303,-0.2426308244466782,-3.5540528297424316,-0.5805609822273256
4.134982109069824,-1.1026355028152468,10.091217994689943,-0.08626797050237657,-4.21468448638916,-0.6818394660949707
4.673828125,-1.0524140596389773,10.587735176086428,0.06309893727302551,-4.9998841285705575,-0.7312963008880615
6.982271194458008,-2.976277112960816,12.655481338500977,0.13712818920612338,-5.576858043670655,-0.5538049936294556
10.640176773071289,-3.276254653930664,15.10039806365967,0.0150484349578619,-5.875565052032472,-0.3819829821586609
15.763469696044922,-6.36834716796875,16.143899917602543,-0.09204885363578796,-5.697600841522218,-0.3199335634708405
20.860179901123047,-7.344182968139648,16.380407333374027,0.18711583316326144,-5.248315811157227,-0.6144861578941346
24.4641284942627,-6.621339797973633,11.737298011779787,0.3296095132827759,-4.925373077392578,-0.9888738989830018
26.95316886901856,-7.398097038269043,4.843940734863281,0.4825540482997895,-4.927223205566406,-1.257852911949158
31.37777328491211,-8.087254524230959,3.177456855773926,1.1469081640243532,-5.068639755249023,-1.5600733757019043
30.118919372558594,-3.7675905227661133,2.049528121948242,1.4990607500076296,-4.829357147216797,-1.6861397027969363
33.75233459472656,0.2971171736717224,3.343179702758789,1.3575482368469238,-4.961252212524414,-2.004344701766968
37.543781280517585,0.005250334739685059,14.03500270843506,0.3861954510211945,-3.8796606063842773,-1.9313985109329226
26.688270568847656,0.7716540098190308,11.255910873413086,-0.8839733004570008,-2.759526252746582,-1.729595422744751
23.632225036621094,-1.1801491975784304,11.232106208801271,-1.7808834314346316,-2.1509785652160645,-1.7432676553726199
19.489915847778324,-2.4117057323455815,10.78570079803467,-2.297052621841431,-1.6837378740310671,-1.7235009670257568
15.576073646545412,-4.037814140319824,10.699378967285156,-2.555097341537476,-1.3038477897644043,-1.736178278923035
11.100364685058594,-6.791224002838136,11.090384483337404,-2.336476087570191,-1.0324699878692627,-1.794323205947876
8.687418937683107,-9.874067306518555,11.603569984436037,-1.5434747934341433,-0.7818408012390137,-1.608884930610657
6.198929786682129,-9.746983528137209,12.168914794921875,-0.3520092070102692,-0.41024413704872137,-1.2998263835906982
2.938454866409302,-7.177599430084229,12.385600090026857,0.6491540670394897,0.11369126290082933,-0.9976675510406494
-0.4371684789657593,-3.575265407562256,11.740498542785646,1.0642225742340088,0.6702314019203187,-0.6659989953041078
-3.2148337364196777,-0.8639981746673584,10.405059814453125,0.9487893581390381,1.2021008729934695,-0.3941587805747986
-5.508872509002686,-0.6527774930000306,8.333266258239748,0.6464173793792725,1.6458163261413574,-0.17366223037242892
-7.894500732421875,-1.576550602912903,6.169559478759766,0.5242547392845155,1.859992265701294,-0.043978374451398856
-8.712053298950195,-1.9623082876205447,5.332959651947022,0.5476503968238832,1.862487554550171,0.0430121123790741
-8.298033714294435,-1.8011702299118044,5.335809707641602,0.5703648328781128,1.8691626787185671,0.1699964702129364
-7.776291370391847,-1.5405927896499636,5.849005699157715,0.5226177573204042,1.9954680204391482,0.3306867480278015
-7.031475543975831,-1.143338680267334,6.4312405586242685,0.3377828598022461,2.2797529697418217,0.5579177141189575
-6.86735725402832,-1.2543326616287234,6.004961967468262,0.16065570712089539,2.669289350509644,0.8114871382713319
-7.7520203590393075,-1.6039441823959353,4.278720855712891,0.0790557712316513,2.9892599582672124,1.0256860256195068
-8.036017417907717,-1.2594414949417116,2.7559432983398438,0.11442305147647858,3.1135334968566895,1.1709281206130984
-7.480597972869874,-0.42274290323257446,2.075541257858277,0.09373858571052551,3.1778724193573002,1.308974027633667
-5.7946062088012695,0.23915259540081027,2.3454880714416504,-0.042013682425022125,3.3035652637481694,1.4431988000869753
-4.518012523651124,0.057538915425539024,2.0938282012939453,-0.17541594803333285,3.50205135345459,1.5718637704849245
-3.4765298366546635,0.6237494945526123,1.4679195880889893,-0.2538667917251587,3.6696839332580566,1.703360199928284
-2.503377199172974,2.2301471233367924,0.7659284472465516,-0.3697128593921662,3.7518811225891113,1.7808288335800173
-0.48370397090911865,3.1542563438415527,0.9220330715179443,-0.5962042212486268,3.783632278442383,1.7366068363189697
2.507001161575318,2.91197419166565,1.5878868103027344,-0.7471253275871278,3.8596696853637695,1.6073392629623415
5.112142086029054,2.345909595489502,1.5906842947006228,-0.6903151273727417,3.9715867042541504,1.4084089994430544
7.043478965759277,1.6589330434799197,0.8492017388343812,-0.44376105070114136,4.01210641860962,1.165421485900879
8.950349807739258,2.1546387672424316,0.31165084242820745,-0.19655469059944153,3.912195444107056,0.9470556378364564
11.170895576477053,2.4007740020751953,-0.010144364088773727,-0.11068685352802277,3.7511408329010014,0.7585632801055908
13.12696647644043,1.8518075942993164,-0.42832231521606445,-0.06872763484716417,3.530006647109986,0.6087050437927246
14.72281265258789,1.4631484746932986,-0.7731426954269409,-0.035514060407876975,3.2224388122558594,0.5235729813575746
15.942973136901857,1.0054451227188113,-0.7729765176773071,0.0016605918062850835,2.8412704467773438,0.4701988101005554
16.422872543334964,0.5359432697296143,-0.7247954607009888,0.06258594989776611,2.4291307926177983,0.4193710684776306
16.89206314086914,0.4526337087154389,-0.7610257863998413,0.12773042917251587,1.989870548248291,0.4270413219928742
16.894676208496094,-0.3037617504596711,-0.7545791268348695,0.1787484586238861,1.5204375982284548,0.478085458278656
15.722483634948732,-0.90188866853714,-0.7122274041175843,0.3313797116279602,1.0141261816024782,0.5383759140968324
14.199140548706055,-0.4391576647758484,-0.4277677237987519,0.4593343138694763,0.5048833489418031,0.6312702894210815
56.66989517211915,9.416921615600586,10.247693061828615,-0.990903377532959,-0.3994913697242737,0.68240624666214
40.635353088378906,6.267986297607422,25.025619506835938,-1.2132369279861452,2.9592103958129883,0.1938610225915909
6.524950504302979,1.3061728477478027,2.539921283721924,-0.3094930648803711,2.2094752788543706,0.7131357789039613
5.758262157440186,-5.566902160644531,14.45020389556885,-0.5155072212219238,2.6733119487762456,0.9401957988739014
-7.261998653411866,-1.671337366104126,11.776774406433107,0.05912754684686661,2.3421711921691895,0.5778442025184632
0.12753732502460483,-7.79856014251709,12.218088150024414,0.28752794861793524,1.8018720149993896,-0.44234964251518255
0.26193439960479736,-13.069543838500977,10.60439968109131,0.6894481182098389,1.0807446241378786,-0.48267599940299993
-1.214756965637207,1.126685380935669,13.930713653564453,0.530863881111145,0.3251958787441254,-0.2882254719734192
2.6739904880523686,4.505010604858398,12.242916107177734,0.2311294972896576,-0.13785600662231445,-0.49418959021568304
7.491052150726319,2.867306470870972,10.130420684814453,-0.12965142726898193,-0.28570988774299627,-0.2786272168159485
6.910219669342042,0.74386864900589,8.736677169799805,-0.15526333451271057,-0.1188471242785454,0.0471879355609417
6.134147167205811,-2.692883729934693,7.988128662109375,-0.14312298595905307,0.14340674877166748,0.13418255746364596
4.6264238357543945,-3.8825125694274902,8.68150043487549,0.02788929454982281,0.2879414260387421,0.05553065240383148
3.5768442153930664,-2.049041748046875,9.707521438598633,0.10576423257589342,0.28564369678497314,-0.025587437674403194
3.8294200897216797,0.13989831507205966,10.264260292053224,0.033499933779239655,0.2219190746545792,-0.0057784426026046285
4.112272262573242,0.1948717683553696,10.21081066131592,-0.0986451655626297,0.15533445775508883,0.07756315171718597
3.560801267623902,-1.067355513572693,10.138750076293945,-0.18373803794384005,0.07213664799928667,0.13238197565078735
3.4760680198669434,-2.3213808536529545,10.019363403320312,-0.17036506533622742,-0.04242241010069848,0.09121662378311157
3.793436765670777,-2.234164953231812,9.926959037780763,-0.14026662707328796,-0.1269290000200272,0.02990263141691685
4.122757911682129,-1.5177545547485352,9.807044982910156,-0.14047770202159884,-0.17111939191818237,0.0012552257394418123
4.409130573272706,-0.8271110653877259,9.87080478668213,-0.17310786247253418,-0.19557729363441467,0.028877055272459987
4.437739372253418,-0.9121493101119995,9.771400451660156,-0.21846610307693481,-0.21217913925647738,0.08555744588375092
4.237909317016602,-1.3512994050979616,9.62376594543457,-0.24801047146320346,-0.2340306043624878,0.10819558799266815
4.1228299140930185,-1.6998729705810547,9.700260162353516,-0.25504532456398016,-0.2622542381286621,0.10417950898408891
4.029395580291749,-1.7743711471557617,9.746289253234865,-0.2656009495258332,-0.30396458506584173,0.08003361523151398
4.155948638916016,-1.674084782600403,9.708867073059084,-0.274486243724823,-0.33824011683464056,0.06063922494649887
4.598686218261719,-1.321012020111084,9.985311508178711,-0.29608830809593206,-0.49329882860183716,-0.015142528340220451
4.100255966186523,-1.2998069524765017,9.483462333679201,-0.37046271562576294,-0.34305903315544134,0.07218623161315918
3.025790929794312,-2.056400775909424,8.396156311035156,-0.3403923511505127,-0.5269925594329834,-0.021584765985608104
5.748161792755128,-1.113340497016907,11.27688217163086,-0.42465957999229437,-0.5030041933059692,0.024225043132901195
3.2644555568695073,-2.4199502468109135,9.051626205444336,-0.40816995501518255,-0.6640087366104126,-0.00739910826086998
4.03175163269043,-1.3182733058929443,9.174351692199709,-0.43596443533897405,-0.61318039894104,0.0022573408205062155
5.3599138259887695,-1.5984653234481814,10.401573181152344,-0.4118388295173645,-0.7697114944458008,0.016237458214163784
3.766525030136109,-2.6560325622558594,8.47349262237549,-0.4099699854850769,-0.7614908814430238,0.011732392013072968
5.737555503845215,-1.28934907913208,9.914370536804201,-0.4345443844795227,-0.716750204563141,0.06292449682950975
2.9203355312347417,-3.1747565269470215,7.191152572631836,-0.38473790884017944,-0.7377716898918153,0.014794154092669487
6.412127017974854,-1.0061193704605105,10.870922088623047,-0.36297059059143066,-0.808611273765564,-0.00853801053017378
4.713422775268555,-2.6832540035247807,8.433389663696289,-0.41202110052108765,-0.6462196707725526,0.08354179561138153
4.706000804901124,-2.5053534507751465,8.950459480285646,-0.2556931674480439,-0.9220433235168457,-0.09861572086811066
5.62990665435791,-2.6554832458496094,8.341795921325685,-0.35837253928184515,-0.5758898258209229,0.006280407775193454
4.714659214019776,-3.006255626678467,7.982292175292969,-0.17263118922710421,-0.829054892063141,-0.1278325915336609
5.993996620178223,-2.2276208400726323,8.682972908020021,-0.2627507150173188,-0.47944706678390503,-0.06506813317537309
4.90484380722046,-3.1614210605621342,8.169883728027344,-0.08092981576919556,-0.687995731830597,-0.16531674563884738
6.060566425323487,-2.2812330722808842,8.740833282470703,-0.15064753592014316,-0.4092752933502197,-0.12100156396627428
5.254931449890137,-3.0778093338012695,8.152775764465334,-0.029794810339808468,-0.41578194499015814,-0.14567485451698303
5.54534912109375,-2.570503950119019,8.511529922485352,-0.0053373859263956555,-0.36902332305908203,-0.1883022636175156
5.320770740509034,-2.2273125648498535,8.500699996948242,0.022155484184622768,-0.34583544731140137,-0.1766906976699829
5.279450416564941,-2.367490768432617,8.626565933227539,0.0590297244489193,-0.3743096590042114,-0.1870505660772324
