AccX,AccY,AccZ,GyrX,GyrY,GyrZ
3.2315449061570696e-05,-6.610161108255852e-06,7.424563227687031e-05,6.779615535634776e-09,-9.38974409336879e-08,-8.815184315835724e-08
4.2064175605773935,-0.8455844521522523,9.70234489440918,0.000682816782500595,-0.009853117167949677,-0.00971948727965355
4.15816354751587,-0.8607523441314697,9.66948127746582,0.0038619691040366892,-0.007639742456376553,-0.009471927769482138
4.165436267852784,-0.8553178310394287,9.675081253051758,0.0035842317156493664,-0.007180956192314625,-0.012818970717489721
4.160741329193116,-0.8764487504959106,9.704000473022461,0.0038572738412767653,-0.009754639118909836,-0.015099016018211843
4.139339447021484,-0.9166308641433716,9.688868522644045,0.0039913211949169644,-0.015074707567691803,-0.014972897246479988
4.165290355682374,-0.8525294661521913,9.698482513427734,0.0030432366766035557,-0.015869231894612316,-0.016399942338466644
4.183830261230469,-0.8465182781219482,9.701653480529787,0.000175621040398255,-0.020107481628656387,-0.016794806346297268
4.17002010345459,-0.8519009947776796,9.685464859008789,0.00016493169823661447,-0.019729146733880046,-0.01710616797208786
4.184930324554444,-0.8182353973388672,9.714141845703125,-0.0019311072537675502,-0.022019043564796448,-0.015872709453105927
4.203469753265382,-0.847722351551056,9.68542003631592,-0.004126050043851138,-0.02246236801147461,-0.012977619655430319
4.19010066986084,-0.8455161452293397,9.655423164367678,-0.004591139499098063,-0.01968791149556637,-0.011899501085281372
4.173431396484375,-0.845264196395874,9.667477607727053,-0.005751410499215126,-0.01867875270545483,-0.009547920897603035
4.181769371032715,-0.8779705166816713,9.680512428283693,-0.006497642956674099,-0.018218116834759716,-0.009244867600500585
4.182645320892335,-0.8521040081977845,9.686315536499023,-0.007557892240583897,-0.017955420538783077,-0.009161150082945824
4.206197261810304,-0.8682928085327148,9.647793769836428,-0.005244715604931117,-0.01880309544503689,-0.01040843315422535
4.2087249755859375,-0.8595582842826844,9.698647499084474,-0.005487500224262477,-0.01875697821378708,-0.010400763712823393
4.229029655456543,-0.8921245336532593,9.666874885559084,-0.004320221953094006,-0.014376468025147917,-0.007364012766629458
4.21613359451294,-0.8357263803482056,9.656865119934084,-0.005830673035234214,-0.012092271819710732,-0.007080031093209983
4.2208571434021005,-0.8674980401992798,9.682702064514162,-0.0022730412892997265,-0.007868334650993347,-0.00713523617014289
4.200011253356934,-0.8836534023284912,9.680316925048828,-0.0006815426168031992,-0.005698957480490208,-0.00824916083365679
4.161010265350343,-0.8569708466529847,9.697398185729982,0.0002430037275189534,-0.0058006905019283295,-0.007879452779889107
4.176705360412598,-0.8885756134986879,9.691349029541016,-0.003907079342752696,-0.007869184017181396,-0.0075729680247604856
4.177888870239258,-0.8846498131752015,9.680113792419435,-0.003823247971013189,-0.010587827302515508,-0.007405278272926807
4.146204471588136,-0.888737678527832,9.651651382446289,-0.003926073666661979,-0.0110846608877182,-0.010800299234688284
4.168485641479492,-0.8965481519699097,9.700411796569826,-0.003549494780600071,-0.013520820997655393,-0.009556411765515806
4.160657405853272,-0.8853684663772583,9.685419082641602,-0.0014463238185271623,-0.015684887766838074,-0.009695771150290968
4.187325477600098,-0.8998606204986572,9.679214477539062,-0.003054423956200481,-0.020224260166287426,-0.01204383559525013
4.201556682586671,-0.8728536367416382,9.709693908691406,-0.004195163957774639,-0.020998800173401836,-0.009068701416254044
4.225401878356934,-0.8746322989463807,9.698241233825685,-0.0044914702884852895,-0.019792824983596802,-0.009949931874871254
4.1868958473205575,-0.8872792124748231,9.679298400878906,-0.002328971866518259,-0.018250452354550365,-0.010309018194675446
4.1710572242736825,-0.9000547528266908,9.665221214294435,-0.0008853163453750313,-0.01879503391683102,-0.010765913873910904
4.180306434631348,-0.9320918321609497,9.637789726257326,0.0026224455796182156,-0.019776253029704097,-0.012525325641036034
4.156440734863281,-0.92521071434021,9.68038845062256,0.004410762805491687,-0.02042407914996147,-0.01641509309411049
4.183146953582765,-0.8796237707138062,9.683272361755373,0.004390073008835316,-0.02326777391135693,-0.020231012254953384
4.1858487129211435,-0.899290919303894,9.696905136108398,0.00565977254882455,-0.02270581014454365,-0.020629428327083588
4.20330572128296,-0.8631224036216737,9.660162925720217,0.0053458050824701795,-0.02345491200685501,-0.019745672121644024
4.218513488769531,-0.8736647963523866,9.662664413452148,0.007445899769663811,-0.02199383638799191,-0.020468214526772503
4.2200469970703125,-0.8532059192657471,9.669119834899904,0.005800860468298198,-0.021137479692697525,-0.01908730156719685
4.202447414398194,-0.8856961727142334,9.653697967529297,0.005957188084721565,-0.019751623272895813,-0.017435079440474514
4.203648567199707,-0.8624539971351625,9.658571243286133,0.007105807773768902,-0.02127170376479626,-0.020855247974395752
4.206260681152344,-0.8652265667915345,9.681316375732422,0.007198600564152003,-0.02084381878376007,-0.02016425132751465
4.208308219909668,-0.866349756717682,9.697193145751953,0.006026268005371094,-0.022552171722054485,-0.02003978192806244
4.19389533996582,-0.8677656054496766,9.679991722106935,0.004686831496655941,-0.02126842364668846,-0.02031595073640347
4.20451545715332,-0.8640154004096986,9.68096446990967,0.004584735259413719,-0.02271995879709721,-0.022051282227039337
4.231795310974121,-0.8596083521842958,9.680421829223633,0.0034241580870002513,-0.023358259350061417,-0.02033066749572754
4.214432716369629,-0.8545136451721191,9.675094604492188,0.0020376225002110004,-0.022623615339398388,-0.020054716616868973
4.205068111419679,-0.8696054220199585,9.70320224761963,0.002136188326403499,-0.02330265007913113,-0.01903729885816574
4.250744819641113,-0.8507497310638428,9.678871154785156,0.0023482120595872402,-0.022272067144513134,-0.018010500818490982
4.230665683746339,-0.8505783081054688,9.664721488952638,0.0015716644702479245,-0.02027072012424469,-0.015008768066763878
4.194411754608155,-0.87224680185318,9.66976547241211,0.0012321572285145521,-0.019036324694752697,-0.015982218086719513
4.23484754562378,-0.8882578611373901,9.684518814086914,0.0021000029519200325,-0.01724550500512123,-0.016408713534474376
4.204715251922608,-0.8735479116439819,9.658422470092773,0.0025509048718959097,-0.019721094518899918,-0.01690989919006825
4.211944580078125,-0.8526310920715332,9.678689956665039,0.0017602978041395547,-0.020006347447633743,-0.01836230978369713
4.182538509368897,-0.8735309243202211,9.67970085144043,0.00029504197300411766,-0.024720486253499985,-0.018427265807986263
4.206713199615479,-0.8194806575775146,9.73678970336914,-0.002881730673834682,-0.027510745450854305,-0.017016444355249405
4.2175750732421875,-0.8425233364105225,9.701343536376953,-0.004655675962567329,-0.030553413555026058,-0.017425984144210815
4.24375867843628,-0.8769783973693848,9.693018913269045,-0.005827455315738917,-0.034278467297554016,-0.016993913799524307
4.24349308013916,-0.8339682817459106,9.671844482421875,-0.006325040943920612,-0.03132788464426995,-0.017692305147647858
4.279037952423097,-0.8584775924682617,9.64487934112549,-0.003315318608656526,-0.026150079444050792,-0.015405794605612755
4.2303433418273935,-0.8887301683425903,9.634493827819826,-0.0017161600990220907,-0.021340075880289078,-0.015501822344958784
4.231019973754883,-0.9371487498283387,9.638338088989258,0.0027842747513204817,-0.0177680142223835,-0.017034441232681274
4.2271084785461435,-0.8891138434410096,9.644501686096193,0.008864785544574262,-0.015081087127327919,-0.02016914822161198
4.219830513000488,-0.908738374710083,9.672905921936037,0.009845525026321411,-0.014584537595510483,-0.021379331126809124
4.2256178855896005,-0.8467063903808594,9.655545234680178,0.011327147483825684,-0.016027679666876796,-0.022827010601758957
4.22596549987793,-0.8521960973739624,9.688778877258303,0.011369528248906136,-0.015360088087618353,-0.024081995710730556
4.245478153228761,-0.8528589010238647,9.696762084960938,0.011749513447284698,-0.015346008352935316,-0.023507103323936462
4.233899116516113,-0.8425496816635132,9.65840816497803,0.010164795443415642,-0.014285735785961151,-0.02487081475555897
4.236945152282715,-0.8306716680526733,9.670022010803224,0.007202798034995795,-0.01691129058599472,-0.022118257358670238
4.235419273376465,-0.839092791080475,9.67959213256836,0.005515838973224163,-0.01650596968829632,-0.018004203215241436
4.245580673217773,-0.833199143409729,9.67001247406006,0.005315707065165043,-0.01637489534914494,-0.018584735691547394
4.261404991149902,-0.840088188648224,9.666940689086914,0.0032248920761048794,-0.01364816166460514,-0.01666991971433163
4.237453460693359,-0.852359712123871,9.673007011413576,0.0018996937433257701,-0.009923659265041351,-0.013490566052496435
4.243377208709718,-0.853927731513977,9.66046142578125,0.0037823363672941927,-0.006663455627858639,-0.013608640059828758
4.227688789367676,-0.8901489377021791,9.663333892822266,0.006095913238823414,-0.007469148840755225,-0.015507502481341362
4.232709407806397,-0.8526207804679872,9.660760879516602,0.0062535107135772705,-0.007293622940778732,-0.01670225523412228
4.200010776519776,-0.8647431135177612,9.68075180053711,0.006963097956031562,-0.010397359728813171,-0.017851544544100765
4.236602306365968,-0.8276519775390625,9.689288139343263,0.005358066409826279,-0.010775393806397917,-0.017788382247090343
4.241294860839844,-0.8125710487365723,9.659699440002443,0.001988822361454368,-0.01087183691561222,-0.015427130274474623
4.239200115203858,-0.8145614862442017,9.699369430541992,0.001151390955783427,-0.01306781265884638,-0.01237691193819046
4.254471302032472,-0.8378709554672241,9.675942420959474,5.477383092511445e-05,-0.010222758166491987,-0.009953705593943596
4.251423358917237,-0.7970633506774902,9.670841217041016,-0.0019410236272960901,-0.010241962037980558,-0.007861456833779814
4.224246978759766,-0.8499785661697388,9.684786796569826,-0.002642533276230097,-0.011094865389168264,-0.007912298664450645
4.215729236602784,-0.8459316492080688,9.68447780609131,-0.0030523154418915515,-0.013041998259723188,-0.009475426748394966
4.231764793395996,-0.8763203620910645,9.677433013916016,-0.005940139293670654,-0.014173074625432493,-0.008512690663337708
4.22420597076416,-0.9009734988212587,9.69114398956299,-0.0009345668368041515,-0.016615675762295726,-0.012840242125093939
4.218985080718995,-0.8502970933914185,9.672187805175781,-0.0011619894066825511,-0.019369356334209442,-0.01361192297190428
4.242422103881836,-0.8568062782287598,9.69777584075928,-0.002268634038046003,-0.02026368118822575,-0.01435885764658451
4.2329206466674805,-0.8620926141738892,9.681363105773928,-0.0023409461136907343,-0.021220430731773376,-0.014285582117736341
4.229349136352539,-0.8314368724822998,9.691131591796875,-0.0009661646909080447,-0.019673079252243042,-0.013620173558592796
4.260147571563722,-0.8589074611663818,9.686494827270508,-0.002438974799588323,-0.020962312817573547,-0.013522322289645674
4.247605323791504,-0.8361340761184692,9.656464576721193,-0.003777360077947378,-0.021974675357341766,-0.011954850517213346
4.23947811126709,-0.8398178815841675,9.639789581298828,-0.005758135579526424,-0.022667115554213527,-0.01055634580552578
4.291816234588624,-0.8183601498603822,9.678713798522951,-0.005104855168610812,-0.01864270493388176,-0.012957803905010223
4.257618427276612,-0.8632398843765259,9.641712188720703,-0.0027180023025721316,-0.017184920608997345,-0.011448717676103117
4.227199077606202,-0.8798445463180542,9.667239189147951,-0.003216555342078209,-0.014065373688936234,-0.012811225838959219
4.259618282318116,-0.8889458775520326,9.642818450927734,0.000714145484380424,-0.012522290460765364,-0.013561416417360306
4.240003108978272,-0.859274446964264,9.672296524047852,0.004154384601861239,-0.00997953675687313,-0.015651412308216095
4.250799179077148,-0.8416271209716797,9.658421516418459,0.005142106208950282,-0.008738815784454346,-0.0145530728623271
4.242327213287354,-0.8399019837379457,9.681821823120117,0.005104821175336838,-0.0069979103282094,-0.015020799823105337
4.224602699279785,-0.8043710589408876,9.704747200012209,0.0033967196941375732,-0.010313265956938268,-0.012245243415236473
4.22110652923584,-0.8150472044944764,9.696371078491211,-0.0005617715069092811,-0.015165654942393303,-0.013539602980017662
4.2338056564331055,-0.8277034759521484,9.685984611511232,-0.004504228476434947,-0.01733861118555069,-0.01015965733677149
4.214946746826172,-0.8527075648307801,9.662074089050295,-0.006925689522176982,-0.021915076300501827,-0.010173957794904709
4.262881278991699,-0.8623232841491699,9.648822784423828,-0.007486578077077866,-0.024850843474268917,-0.011691266670823097
4.266579151153565,-0.8559386134147645,9.655890464782717,-0.0057702939957380295,-0.022032542154192928,-0.01073605287820101
4.27241325378418,-0.843681037425995,9.622072219848633,-0.00404395442456007,-0.017186379060149196,-0.011646835133433342
4.283463478088379,-0.8497932553291322,9.65826416015625,-0.004708964843302966,-0.013593872077763082,-0.011474547907710075
4.250444412231445,-0.8523122072219849,9.653976440429688,-0.0026036265771836047,-0.011281147599220276,-0.009956809692084791
4.248529434204102,-0.867416501045227,9.669570922851562,-0.0014427298447117212,-0.01106932945549488,-0.009515799582004547
4.255381107330323,-0.848892331123352,9.643219947814943,-0.0007125490228645505,-0.009217863902449608,-0.010715969838202001
4.2425689697265625,-0.8555179238319398,9.641254425048828,0.00023388139379676434,-0.009258140809834005,-0.010668424889445305
4.240067958831788,-0.8694396018981934,9.677971839904787,0.0015631726710125806,-0.009516751393675804,-0.010881532914936544
4.2433061599731445,-0.8679657578468324,9.676095962524414,0.0013483029324561357,-0.011202930472791197,-0.013599391095340254
4.246821403503418,-0.8785229325294496,9.6583251953125,0.00118370377458632,-0.012963752262294294,-0.011822355911135674
4.250786304473878,-0.849744737148285,9.646550178527834,0.0021575067657977347,-0.010148038156330587,-0.012727025896310806
4.2344207763671875,-0.8510833978652954,9.669315338134766,0.0023078913800418377,-0.011910003609955313,-0.010905977338552475
4.251748561859132,-0.8421757817268373,9.673008918762209,0.000799069763161242,-0.015385095961391928,-0.011846398003399374
4.243326187133789,-0.847749173641205,9.685090065002443,0.0005250287940725684,-0.017182318493723873,-0.010418668389320374
4.261843681335449,-0.8330878019332886,9.663751602172852,5.256139775156044e-05,-0.01919575966894627,-0.009336858987808228
4.24914312362671,-0.8512185215950013,9.666344642639162,-0.0026859657373279337,-0.017376046627759933,-0.009620654396712782
4.260445594787598,-0.8497005105018617,9.644841194152834,-0.0018576572183519602,-0.01618929393589497,-0.010179829783737661
4.250090122222901,-0.862837553024292,9.604321479797365,0.0005094458465464414,-0.015554163604974747,-0.010154145769774916
4.252544879913331,-0.8826096057891846,9.651796340942383,0.002147253602743149,-0.011606400832533836,-0.014005360193550588
4.2328290939331055,-0.8757818341255189,9.658933639526367,0.0010321099543944003,-0.01650439202785492,-0.014599543996155264
4.243562698364258,-0.8693656921386719,9.636939048767092,0.0019041677005589008,-0.015785003080964092,-0.012296364642679693
4.266810417175293,-0.8622812032699585,9.659452438354492,0.000874366902280599,-0.017891064286231995,-0.013057573698461057
4.274724006652832,-0.8566181659698486,9.660715103149414,0.002441015793010593,-0.014063422568142416,-0.011665688827633858
4.254240036010742,-0.8300413489341737,9.66252326965332,0.002694477792829275,-0.01237375568598509,-0.011754371225833893
4.242146015167237,-0.8723986744880677,9.680225372314453,0.0003716836799867451,-0.011427319608628752,-0.011343152262270452
4.252234935760499,-0.883771538734436,9.609379768371584,0.005110164638608695,-0.010933004319667816,-0.01324202958494425
4.242735385894776,-0.8600229024887085,9.639883995056154,0.005848460830748081,-0.012755604460835457,-0.015117882750928404
4.263954162597656,-0.851938009262085,9.659726142883303,0.005057745147496463,-0.011506473645567894,-0.013515931554138662
4.254278182983398,-0.8473402857780458,9.613885879516602,0.006823691073805095,-0.010562121868133545,-0.014831675216555595
4.250400543212891,-0.8454841375350952,9.64986801147461,0.0074994158931076535,-0.010621713474392891,-0.016016026958823208
4.257390022277832,-0.8465946912765503,9.645033836364748,0.00720583787187934,-0.011225541122257711,-0.01648079603910446
4.253002166748047,-0.82533860206604,9.687196731567383,0.005407257936894894,-0.012402906082570555,-0.013813881203532219
4.276101112365723,-0.8278564214706421,9.655955314636232,0.002952109789475799,-0.014053363353013992,-0.014395587146282196
4.289441108703613,-0.8383136391639711,9.660656929016115,0.0028219886589795355,-0.012498043477535248,-0.011489114724099638
4.241528511047363,-0.8737049102783203,9.660283088684084,0.004131617955863476,-0.011696474626660347,-0.011436692439019682
4.23776912689209,-0.8786109685897827,9.661519050598146,0.004618171602487564,-0.011768366210162641,-0.015469992533326149
4.279828071594238,-0.8497107028961182,9.623417854309084,0.006905305664986373,-0.010884327813982964,-0.016566120088100433
4.259086132049561,-0.8533592820167543,9.642979621887209,0.007258819416165352,-0.007264655549079181,-0.01716748997569084
4.275420188903809,-0.848447620868683,9.689306259155273,0.009791916236281395,-0.005796224810183048,-0.01661940105259419
4.265118598937988,-0.8467339277267456,9.62680435180664,0.0099994158372283,-0.004360727034509182,-0.017050554975867275
4.240240097045898,-0.8389687538146973,9.652555465698242,0.009428534656763077,-0.005074587184935809,-0.01839646510779858
4.255224227905273,-0.8307418823242188,9.663341522216797,0.00913025438785553,-0.005042543169111014,-0.016242187470197678
4.249591827392578,-0.8357244729995728,9.664784431457521,0.007950774393975736,-0.004636358004063369,-0.014852412045001984
4.262105464935304,-0.8249407410621644,9.683929443359375,0.008528198115527632,-0.005690824240446091,-0.01232066471129656
4.272474765777589,-0.8336839079856874,9.659434318542482,0.0036144331097602844,-0.00845944229513407,-0.011679825372993948
4.252176761627198,-0.8427203297615052,9.648232460021974,0.00576429720968008,-0.007385134231299163,-0.01479850709438324
4.2445220947265625,-0.8788330554962158,9.631149291992188,0.008006487041711807,-0.005967466160655022,-0.01452551316469908
4.24653196334839,-0.8702617287635804,9.647212982177734,0.009274057112634184,-0.004877702333033085,-0.016038103029131893
4.265009403228761,-0.8400078415870668,9.678726196289062,0.010030920617282392,-0.0028835763223469257,-0.016182076185941696
4.290078639984132,-0.7813510298728944,9.665646553039553,0.010908312164247038,-0.001269013388082385,-0.01396628934890032
4.283274173736573,-0.8047882318496704,9.671767234802248,0.008869443088769913,0.001727398717775941,-0.011353344656527044
4.276485443115234,-0.8351880311965942,9.653773307800295,0.008891047909855843,0.004168901126831771,-0.011148454621434212
4.2535552978515625,-0.8550430536270142,9.655766487121584,0.010856303386390211,0.006285566836595535,-0.010674742981791496
4.241969585418702,-0.8863406181335449,9.66910171508789,0.0115113677456975,0.007426000200212002,-0.013509209267795088
4.277814388275147,-0.8063195347785951,9.649604797363281,0.011003797873854637,0.011805495247244835,-0.011237234808504583
4.282423496246339,-0.8110425472259521,9.675770759582521,0.008707772940397263,0.013267948292195799,-0.010493014007806778
4.29115915298462,-0.8054454326629639,9.66583251953125,0.01062338799238205,0.016393097117543224,-0.007766017224639655
4.275261878967285,-0.8483942151069642,9.664306640625,0.010231124237179756,0.021294726058840755,-0.006492954678833485
4.234355449676515,-0.818268895149231,9.657498359680178,0.010287683457136154,0.024439837783575058,-0.007672196719795466
4.266476631164551,-0.7045918107032777,9.620098114013672,0.007210461888462306,0.02431398630142212,-0.006080845836549998
4.1617493629455575,-0.8729171156883241,9.693920135498047,0.003214916680008173,0.02222174219787121,-0.003922568168491126
4.210192203521729,-0.7187134623527528,9.69386100769043,0.002518237102776766,0.012957892380654814,-0.0021643666550517082
4.186391830444336,-0.7645394206047059,9.691816329956055,-0.004373047966510058,0.01045836415141821,0.0030137156136333942
4.1824493408203125,-0.8127511739730835,9.698432922363281,-0.007480320520699024,0.005006685387343169,0.004406353458762169
4.22400712966919,-0.798720419406891,9.688655853271484,-0.009672305546700956,0.0017979382537305355,0.005956958048045635
4.240819454193116,-0.8277535438537598,9.659770011901857,-0.010538479313254356,0.004207397345453502,0.004993177019059658
4.239214420318604,-0.8087212443351747,9.648137092590334,-0.01191052794456482,0.005337134003639221,0.002934599528089166
4.248023509979249,-0.823190450668335,9.67127799987793,-0.009932728484272957,0.007582249585539103,0.002749190665781498
4.224580764770508,-0.8479351997375488,9.646751403808594,-0.009625351056456566,0.008250455372035505,0.004352683667093516
4.190301895141602,-0.8963325023651123,9.681567192077638,-0.00816255807876587,0.010089444927871229,0.003398783039301634
4.200204849243164,-0.9142998456954956,9.657569885253906,-0.003399273380637169,0.007836150005459785,-0.0008962043211795391
4.218523502349854,-0.858942985534668,9.66282367706299,0.00018827457097359002,0.00856499094516039,-0.0031196060590445995
4.218260288238526,-0.8584878444671631,9.672560691833498,0.002136160619556904,0.010558101348578932,-0.005288072396069766
4.185232162475586,-0.8584154248237611,9.685529708862305,0.002578276908025146,0.011483529582619667,-0.0045313150621950635
4.224679470062257,-0.8334206342697144,9.65933132171631,0.0031950422562658787,0.011463530361652374,-0.005160321947187186
4.156277656555176,-0.8669657707214355,9.6515588760376,0.0033160103484988213,0.013625820167362692,-0.00471896305680275
4.225238323211671,-0.783362627029419,9.668551445007326,0.004660100210458041,0.012831473723053932,-0.005888919346034527
4.210055351257324,-0.7657595872879028,9.689091682434084,0.0016531702131032944,0.015490242280066015,-0.003912239335477352
4.180054664611816,-0.7971432209014893,9.686468124389648,-0.0052200797945261,0.011922916397452354,-0.0006297382642515005
4.176398754119874,-0.8369642496109009,9.68917751312256,-0.007478445302695037,0.009828511625528336,0.0034740867558866744
4.211027622222901,-0.8406257629394531,9.728295326232912,-0.00913121271878481,0.010787857696413994,0.005624767392873764
4.215378761291504,-0.8533627986907959,9.671140670776367,-0.006921901833266021,0.013052064925432205,0.0065276804380118856
4.109215259552003,-0.8908206820487977,9.675244331359865,-0.007805944420397282,0.011777941137552261,0.0052661322988569745
4.205639362335206,-0.8638291358947754,9.708510398864748,-0.005312477238476276,0.0073376460932195195,0.0037178616039454937
4.19119930267334,-0.8668146133422852,9.722095489501953,-0.007153409533202648,0.006327844690531493,0.003107208060100675
4.191510200500488,-0.8489040732383729,9.701420783996584,-0.008763620629906654,0.0070716175250709066,0.004403659142553806
4.230709075927734,-0.8436068892478944,9.658088684082031,-0.0066154152154922485,0.009202005341649055,0.0038139547687023882
4.239194869995117,-0.8503445386886597,9.638916015625,-0.0037688764277845625,0.01611662656068802,0.0043661906383931645
4.2156524658203125,-0.8468884229660034,9.655797004699709,0.0011130869388580322,0.026059290394186977,0.0055566863156855115
4.207531929016113,-0.8166604042053223,9.740834236145021,0.0010582397226244211,0.02866080962121487,0.011094218119978905
4.209272861480714,-0.8415833711624146,9.725367546081545,-0.002182668307796121,0.03070796094834805,0.015207981690764427
4.187172412872315,-0.8049398064613343,9.695819854736328,-0.00485170166939497,0.026382124051451687,0.0156705304980278
4.1453595161438,-0.8152768611907959,9.72130870819092,-0.009866010397672653,0.025084579363465313,0.018851669505238536
4.1395978927612305,-0.8668519258499146,9.625282287597656,-0.01179597992449999,0.025550782680511475,0.02264509163796902
4.0738587379455575,-1.018872380256653,9.605792045593263,-0.005924360360950232,0.02386795543134213,0.0115133635699749
4.130846977233887,-0.8786468505859375,9.678281784057617,-0.0005968698533251882,0.02540315873920918,0.00406939722597599
4.220139980316163,-0.7062124609947206,9.71500015258789,-0.008037229068577291,0.030778776854276657,0.013816401362419128
4.219225883483887,-0.8580261468887329,9.661575317382812,-0.007257065735757351,0.03693939372897149,0.02149989828467369
4.1669936180114755,-0.9392150640487671,9.645088195800781,-0.0014768445398658514,0.043474048376083374,0.02125865407288075
4.182600021362305,-0.9160580635070801,9.705682754516602,0.0064466078765690335,0.051331937313079834,0.020673090592026714
4.1824445724487305,-0.8198734521865845,9.698982238769531,0.008030792698264122,0.055574182420969016,0.021916927769780162
4.164610862731934,-0.8982921242713929,9.69650650024414,0.010290701873600485,0.061599649488925934,0.02632360346615315
4.164006710052491,-0.8676746487617494,9.61825466156006,0.016180483624339107,0.06674159318208696,0.02429191768169403
4.132078170776367,-0.9121170639991761,9.623321533203125,0.02296913973987103,0.07758258283138275,0.021372644230723385
4.090477466583253,-0.9090616703033447,9.680414199829102,0.027784544974565506,0.08595677465200426,0.018045747652649883
4.052104473114015,-0.8850662708282471,9.776333808898928,0.028205011039972305,0.08716479688882829,0.017419587820768356
4.091936588287354,-0.9057257175445557,9.791707992553711,0.02430122345685959,0.08260762691497803,0.019153704866766933
4.054827213287354,-0.8349177837371826,9.81987190246582,0.023548673838377,0.0794658586382866,0.01611814647912979
4.022110462188722,-0.8271138072013856,9.854963302612305,0.013046874664723875,0.06667850911617279,0.019197821617126465
3.9965853691101074,-0.8119962811470033,9.86308479309082,0.003791441675275564,0.04850647225975991,0.021139822900295258
3.985030889511109,-0.8673160672187806,9.831379890441896,-0.001517116790637374,0.035711295902729034,0.02086528949439526
3.971394777297974,-0.7959473133087158,9.880352020263672,-0.006926316302269698,0.023149773478507996,0.016997298225760463
3.987100124359131,-0.8097317218780518,9.835859298706055,-0.016126036643981934,0.008343198336660864,0.0180348102003336
3.8834829330444336,-0.9358971714973451,9.779944419860842,-0.02126874960958958,-0.005103827454149723,0.014767660759389402
3.889376640319824,-0.9198705554008485,9.806279182434084,-0.022179022431373596,-0.023862212896347046,0.003908782731741668
3.982094049453736,-0.9291093349456787,9.742449760437013,-0.022687897086143494,-0.03170401975512505,-0.006646216847002506
3.916188478469849,-0.8743119239807129,9.809428215026857,-0.021718308329582214,-0.041583452373743064,-0.013489485718309881
4.046682834625245,-0.9272138476371766,9.765290260314943,-0.02403572760522366,-0.05090225487947464,-0.018387800082564357
4.053462982177734,-0.8980077505111694,9.71534824371338,-0.02416403219103813,-0.05149894952774048,-0.020987881347537044
4.053792953491211,-0.8337051272392274,9.782185554504396,-0.026912944391369823,-0.055514149367809296,-0.017024638131260875
4.045805454254151,-0.866619348526001,9.764719009399414,-0.032925445586442954,-0.06086637079715729,-0.01753697544336319
4.019876956939698,-0.6678892970085145,9.781662940979006,-0.043950911611318595,-0.06875886023044586,-0.011778767220675947
3.9940631389617924,-0.6806793212890625,9.839292526245117,-0.06575916707515717,-0.08166541159152985,-0.0010211070766672494
3.988056898117066,-0.7171753644943237,9.766293525695803,-0.08907047659158708,-0.10051567852497101,0.00819020625203848
4.088684558868409,-0.9260118603706361,9.722605705261232,-0.10273270308971405,-0.11101923137903215,0.01240809913724661
4.086032867431641,-0.9391525983810425,9.69900417327881,-0.10802537202835083,-0.11331097036600114,0.014841035008430481
4.137882709503175,-0.8411449790000917,9.76711177825928,-0.1204756647348404,-0.1157115250825882,0.022913103923201564
4.206840991973878,-1.0221654176712038,9.653261184692383,-0.11887518316507341,-0.10525287687778473,0.027380952611565593
4.171133518218995,-0.9829764366149902,9.661823272705078,-0.11549483239650726,-0.1004120782017708,0.026191106066107753
4.148972988128663,-1.0425150394439697,9.698022842407227,-0.11255405098199846,-0.09995649755001068,0.026499742642045025
4.184104919433594,-1.1598819494247439,9.597681999206545,-0.10188895463943481,-0.09529800713062286,0.020363414660096172
4.209840774536133,-1.1086373329162598,9.576431274414062,-0.08698512613773346,-0.08334950357675554,0.012232135981321335
4.190515041351319,-1.123340725898743,9.645185470581055,-0.07543873041868211,-0.07303236424922943,0.007707211188971996
4.173708438873292,-1.0790771245956423,9.625100135803224,-0.07042969763278961,-0.0673581287264824,0.005025932565331459
4.063380241394043,-0.8565245866775513,9.739525794982912,-0.07830148935317993,-0.07421261072158813,0.008394584991037847
4.057526111602784,-0.985860049724579,9.812579154968263,-0.08962646126747131,-0.0897820219397545,0.01579878106713295
4.085706233978272,-1.00759494304657,9.842287063598633,-0.0979495868086815,-0.11475180089473724,0.01972174271941185
4.115366458892823,-0.7975189685821533,9.839393615722656,-0.11118018627166748,-0.1389986425638199,0.027360692620277405
4.138357162475586,-0.8759926557540894,9.741952896118164,-0.13312827050685885,-0.15963761508464816,0.041284702718257904
4.109840393066406,-1.052731990814209,9.713333129882812,-0.1410641372203827,-0.16993151605129245,0.03721038997173309
4.12779188156128,-1.1468040943145752,9.65120601654053,-0.1420363485813141,-0.1863883584737778,0.03125355765223504
4.187878131866456,-1.3948016166687012,9.552916526794435,-0.12489817291498186,-0.19061216711997986,0.016771821305155758
4.269220352172852,-0.9113211631774902,9.627953529357912,-0.11770225316286088,-0.19495986402034762,0.015980467200279236
4.314263820648194,-0.8922871351242065,9.50850009918213,-0.12498278170824052,-0.1876046359539032,0.028580477461218837
4.074690341949464,-1.2507014274597168,9.556862831115724,-0.12223051488399506,-0.19381026923656466,0.023833984509110454
4.143912792205811,-1.301072597503662,9.65989875793457,-0.1115436851978302,-0.2216056436300278,0.004625581204891205
4.196166515350343,-0.9457575082778931,9.648719787597656,-0.11988741159439087,-0.25486040115356445,0.001454013981856406
4.209796905517578,-1.069005608558655,9.632244110107422,-0.13484346866607666,-0.28462603688240057,-0.0008474248461425304
4.1710171699523935,-0.9937826991081239,9.681192398071289,-0.15711219608783725,-0.32091158628463745,-0.007361257448792458
3.875487089157105,-1.2209336757659912,9.429575920104982,-0.15021915733814242,-0.36047494411468506,-0.03494187071919442
3.732716798782349,-1.4961470365524294,9.58250141143799,-0.1041676253080368,-0.4222615957260132,-0.09421824663877489
4.394447803497315,-1.35664963722229,9.7548303604126,-0.09655392915010454,-0.4791221618652344,-0.11815837770700456
4.401694297790527,-0.4804208278656006,9.831045150756836,-0.13699264824390414,-0.5273205041885376,-0.10655617713928223
3.9371273517608647,-0.7622342109680176,9.929314613342287,-0.18934778869152072,-0.6113739013671875,-0.09977055341005327
4.029737949371339,-1.192523717880249,10.029592514038086,-0.22624143958091736,-0.7434126138687134,-0.0986921712756157
3.7754657268524174,-1.1065762042999268,10.004337310791016,-0.2501743137836457,-0.8959701061248779,-0.09667048603296281
3.052143096923828,-1.4289360046386719,10.080225944519045,-0.25285950303077703,-1.1197028160095215,-0.10861681401729584
3.3612043857574467,-1.4362826347351074,10.024040222167969,-0.24361471831798556,-1.4175493717193604,-0.15010838210582736
3.4564850330352788,-1.9145188331604004,9.981534004211428,-0.20978139340877536,-1.6432083845138552,-0.25305211544036865
3.2157254219055176,-1.9740054607391357,10.116269111633303,-0.12329357117414476,-1.9408340454101562,-0.37174454331398016
3.835838794708252,-1.8248376846313477,10.10779666900635,-0.04096377640962601,-2.2182176113128667,-0.45712092518806463
4.401148796081543,-1.1898231506347656,10.139407157897951,-0.008915243670344353,-2.460840463638306,-0.453909695148468
4.434460163116456,-0.8461390137672425,9.66276264190674,0.007869306020438673,-2.6810138225555424,-0.46368134021759033
4.624584197998047,-0.6751810312271118,9.9990930557251,0.10881645232439043,-2.969527244567871,-0.47419837117195135
4.524867534637452,-0.9094232320785522,9.582409858703615,0.2618959248065949,-3.295380115509033,-0.485978901386261
4.2743878364563,-2.025510787963867,9.344296455383303,0.43623915314674383,-3.7817230224609375,-0.5192281603813172
5.285182476043702,-2.2251584529876713,9.98845100402832,0.5811053514480591,-4.339911460876465,-0.5365410447120668
6.519146442413331,-2.3321721553802495,10.36477279663086,0.624490797519684,-4.780327796936035,-0.5001309514045716
8.831937789916992,-2.6027488708496094,11.597333908081055,0.6773321628570557,-5.010596752166749,-0.4841605722904206
11.1398401260376,-3.2346427440643315,13.425722122192383,0.6626979112625122,-5.02120065689087,-0.43132686614990234
13.370335578918459,-4.025914192199707,13.116383552551271,0.9132968187332153,-4.938455581665039,-0.4665613472461701
18.407058715820312,-5.114225864410401,14.83955478668213,1.3543018102645876,-4.658575057983398,-0.640796720981598
21.399259567260746,-4.653275489807129,13.580965995788576,1.9550803899765017,-4.4012041091918945,-0.8252663612365723
27.884256362915043,-2.686357021331787,12.588027000427248,2.1233355998992924,-3.9715466499328613,-1.0316277742385866
26.903911590576172,-5.160792350769043,6.5208330154418945,2.7171764373779297,-3.9236655235290527,-1.4751425981521609
30.518365859985355,-4.028665065765382,8.234562873840334,3.402644157409668,-3.5819017887115483,-1.5124750137329102
27.25157928466797,0.7463994026184082,5.290740966796875,3.641075611114502,-3.4345657825469975,-1.4057720899581911
42.67709732055665,5.008691787719727,20.143115997314453,2.4508490562438965,-3.153988122940064,-1.2758634090423584
31.46965599060059,2.6570329666137695,20.738174438476562,1.0256344079971316,-1.3648461103439333,-0.9407341480255127
22.22836685180664,2.1974310874938965,15.483312606811523,-0.48044341802597046,-0.7866674065589906,-0.639725923538208
16.30542755126953,-0.8852790594100952,11.523756980895998,-1.3567566871643066,-0.7297313809394838,-0.5711924433708192
11.911088943481445,-3.331156492233277,8.869895935058594,-1.6267746686935427,-1.0317540168762207,-0.6262992024421693
10.892362594604492,-5.406377315521241,9.054135322570803,-1.2938116788864138,-1.3025490045547488,-0.8185261487960815
10.902915954589844,-6.2399492263793945,11.12422275543213,-0.5624462366104126,-1.2362610101699831,-0.9613544940948486
9.706221580505373,-5.623226165771484,13.37063980102539,0.13195262849330905,-0.8304482698440552,-0.9505281448364258
8.510002136230469,-3.5404217243194585,14.633854866027834,0.5105577707290649,-0.15275277197360995,-0.8124728202819824
5.062590122222901,-2.033322334289551,13.510979652404787,0.583267629146576,0.6638826727867128,-0.678027868270874
0.10303953289985657,-1.3942114114761355,10.506511688232422,0.508525311946869,1.2953190803527832,-0.6203004717826844
-3.1609899997711186,-1.3558813333511355,7.505169391632081,0.420480102300644,1.5905375480651855,-0.6233385801315308
-5.049962997436523,-1.0123535394668581,5.725202083587647,0.2794117629528046,1.725248098373413,-0.5555544495582582
-4.518063545227051,-1.0763009786605837,6.261693000793457,0.11338566243648529,1.8881876468658447,-0.40144762396812445
-4.615024089813233,-2.400002241134644,6.27986764907837,0.015844136476516724,2.2473285198211674,-0.17680945992469788
-6.296433925628663,-3.734921455383301,4.608364105224609,0.21037037670612338,2.634438991546631,0.019765466451644897
-7.686073303222656,-2.9630434513092045,2.585797548294068,0.38887754082679754,2.807499408721924,0.1823939234018326
-8.544730186462404,-1.1303350925445557,0.8984143137931825,0.22877861559391025,2.8599293231964116,0.3503403067588806
-8.725839614868164,-0.8454642295837402,-0.2143058180809021,-0.1430044919252396,2.844804286956787,0.5041852593421937
-8.490069389343263,-1.7296057939529421,-0.7839637994766235,-0.42620640993118286,2.7939107418060307,0.6543272137641908
-7.363385677337647,-2.1675555706024174,-0.23399877548217773,-0.5388202071189881,2.7758069038391113,0.7926402688026429
-5.547688007354737,-2.0237793922424316,0.9481706023216249,-0.6211436390876771,2.909892320632935,0.9559680223464966
-4.347382545471191,-1.8147566318511963,1.1960625648498535,-0.7074278593063354,3.1852419376373295,1.1316463947296143
-3.2000207901000977,-1.5913335084915163,1.0118101835250857,-0.8017225861549379,3.4574332237243652,1.331160068511963
-2.726580381393433,-0.39636620879173284,-0.08147405087947845,-0.8903981447219849,3.6787674427032475,1.5358402729034424
-2.5975546836853027,1.1943163871765137,-1.3680509328842165,-1.0360419750213623,3.7266340255737305,1.6391783952713015
-1.0848966836929324,2.528354406356812,-0.8037777543067933,-1.2502199411392214,3.6349878311157227,1.6306596994400027
1.618254065513611,2.8115170001983647,0.863349199295044,-1.3841307163238525,3.6092832088470463,1.4889067411422732
3.8731632232666016,2.789365291595459,2.0865025520324707,-1.326365113258362,3.689485549926758,1.2408896684646609
5.094542980194093,2.967276096343994,1.8823500871658327,-1.133397459983826,3.7580826282501225,0.9132976531982422
6.399658203125,3.3260242938995366,1.4045995473861697,-0.9364059567451478,3.712066650390625,0.5530700087547303
8.008157730102539,3.3659934997558594,1.03508198261261,-0.8042984604835511,3.5482101440429688,0.263033390045166
10.212893486022951,3.1837377548217773,0.8558842539787294,-0.7355495095252992,3.3024187088012695,0.10621795803308488
12.862153053283693,2.4152090549469,1.7922320365905762,-0.6829897165298462,2.945815086364746,0.08202355355024339
15.95860481262207,1.5676453113555908,3.8503246307373047,-0.5993400216102601,2.7054076194763184,0.1973824054002762
16.62449455261231,1.7431579828262331,4.043619155883789,-0.44500246644020086,2.543344497680664,0.37048763036727905
16.345870971679688,2.5923171043395996,3.4838814735412598,-0.42884758114814764,2.2406797409057617,0.5441409945487977
17.12469291687012,1.784919261932373,3.531080722808838,-0.38343277573585516,1.852816939353943,0.6722820997238159
16.148090362548828,1.5091572999954226,3.013366222381592,-0.17701515555381775,1.417887091636658,0.7693780660629272
14.59554195404053,1.9037605524063113,1.7829687595367432,0.003947601187974215,0.9311079978942871,0.8164858818054199
12.739237785339357,2.1975979804992676,-0.24717895686626437,0.15177790820598605,0.37817680835723877,0.8601940274238588
8.571152687072756,2.466355323791504,-4.849229335784913,0.2890012264251709,-0.356505811214447,0.8808248639106752
24.14260292053223,8.16124153137207,-11.518871307373047,0.0025893282145261765,-1.9756332635879519,0.9604482650756836
79.64684295654298,18.916028976440433,70.12702941894531,-1.5638030767440798,0.09536078572273254,0.5915850400924683
-14.188344955444336,-4.247045040130616,-4.45280408859253,0.09206522256135942,1.6661133766174316,-0.3114880025386811
7.49635934829712,-6.558541774749757,18.402862548828125,-0.1577674597501755,1.0371409654617312,0.43326467275619507
-8.619571685791016,0.9308454990386963,7.791436672210694,0.10665498673915863,0.17338894307613376,0.17827418446540833
2.6587474346160893,-0.5582146644592285,13.036394119262695,-0.024940503761172298,-0.38106805086135864,-0.457233726978302
4.514438629150391,-7.314562320709229,9.368662834167482,0.05887115374207497,-0.44830232858657837,-0.5853669047355653
7.05434274673462,1.2874131202697754,9.170226097106935,0.13125728070735934,-0.4051522910594941,-0.4265528917312622
8.147997856140138,3.641924619674683,8.86696529388428,0.012898189947009087,-0.09862505644559862,-0.20801374316215515
6.9671692848205575,-0.47402143478393555,8.62847423553467,-0.12492671608924866,0.2023943513631821,0.05086576566100121
4.890151500701905,-1.2164727449417116,9.118901252746584,-0.13059422373771667,0.3643483221530915,0.12925758957862854
3.9371650218963627,-2.316880226135254,9.573144912719727,-0.05073601007461548,0.3345246911048889,0.07348801940679552
3.9978408813476562,-1.6552488803863525,9.889834403991701,-0.024234719574451447,0.2433377951383591,0.03523305803537369
4.071010589599609,-0.6489680409431459,10.053439140319826,-0.04816723987460137,0.1423209011554718,0.04328276962041855
4.140373229980469,-0.1529209315776825,9.929280281066896,-0.1160348653793335,0.05283981934189797,0.07864835858345032
3.9317307472229004,-0.48333626985549927,10.089654922485352,-0.18170572817325595,-0.03876140341162682,0.12587720155715942
4.136291980743409,-1.5777263641357422,9.800762176513672,-0.1815781593322754,-0.12843491137027743,0.1044827252626419
4.498228073120117,-1.7576164007186892,9.518162727355959,-0.13881732523441317,-0.16899138689041138,0.04314378648996353
4.723572731018066,-0.9286541938781738,9.504129409790039,-0.12482149153947832,-0.16348126530647278,0.020423790439963344
4.875598907470703,-0.6804813742637635,9.518194198608398,-0.14649870991706848,-0.1433529257774353,0.05168044939637185
4.503483295440675,-0.6763160824775697,9.569231033325195,-0.17341050505638123,-0.1539980620145798,0.08796133100986481
4.375792503356934,-0.9109066724777222,9.809680938720703,-0.20569798350334167,-0.1957167834043503,0.10106594115495683
4.460074424743652,-1.2632458209991455,9.586799621582031,-0.20673826336860657,-0.23149497807025912,0.0999109297990799
4.593979835510254,-1.167346477508545,9.539082527160646,-0.2066522240638733,-0.2614479660987854,0.10580684989690782
4.196562767028809,-0.3857195973396301,9.970782279968263,-0.255540281534195,-0.31261491775512695,0.134922131896019
4.125132083892823,-0.3655768632888794,9.874828338623047,-0.32413473725318914,-0.3995712399482727,0.14813444018363953
4.022806167602539,-0.6108403801918031,9.881248474121094,-0.38030487298965454,-0.5163081288337709,0.15764114260673523
4.212699890136719,-0.6966514587402344,9.884729385375977,-0.4578929543495178,-0.6154946088790894,0.1433500796556473
4.665108680725098,-1.078388333320618,9.793766975402834,-0.5083637833595277,-0.69315505027771,0.1366686969995499
4.729880809783936,-1.3289680480957031,9.266642570495607,-0.5144559741020204,-0.7485650777816772,0.15390264987945557
4.944636344909668,-1.6786298751831055,9.103383064270021,-0.5128633379936219,-0.7754640579223633,0.16348959505558017
5.142508506774902,-0.7122231721878052,9.351599693298342,-0.529704511165619,-0.819473683834076,0.2078705132007599
5.041995525360108,-1.4093853235244753,8.95552158355713,-0.5257731080055238,-0.8661549091339111,0.2140811234712601
5.003748416900636,-2.1366322040557866,8.851660728454592,-0.5104770064353944,-0.8875225782394409,0.21456289291381836
4.9707350730896005,-1.6588165760040283,8.933054924011232,-0.48158439993858343,-0.9249857664108276,0.20477418601512912
5.164502620697022,-2.264962434768677,8.698851585388185,-0.4587963819503784,-0.9410675764083862,0.19661264121532443
5.38566780090332,-2.2596833705902104,8.682374000549318,-0.42180797457695013,-0.9395585060119629,0.1797599941492081
5.408860206604004,-2.9501974582672124,8.256928443908693,-0.37021487951278687,-0.9058505892753602,0.1336411684751511
5.509000778198242,-2.8731117248535156,8.341820716857912,-0.3027158081531525,-0.8463037014007568,0.0711999610066414
5.518141269683839,-2.9012076854705815,8.222325325012209,-0.2755357623100281,-0.7838141918182373,0.03331618383526803
5.6407270431518555,-2.861183404922486,8.24611568450928,-0.2181796580553055,-0.7258100509643555,-0.03942867740988732
5.961522579193116,-2.7159283161163335,8.324613571166992,-0.18749602138996127,-0.6466859579086304,-0.08216039836406708
6.010691165924073,-2.5909101963043217,8.162961959838867,-0.1416342556476593,-0.5685293078422547,-0.10361036658287048
6.242682933807374,-2.2907729148864746,8.145391464233398,-0.0958826467394829,-0.4804587662220002,-0.12275579571723938
6.281059741973878,-2.1003186702728276,8.041062355041506,-0.05217013880610467,-0.37357401847839355,-0.1264637261629105
6.075591087341309,-2.2443742752075195,8.113603591918945,-0.00845104269683361,-0.28103253245353704,-0.14286170899868014
5.791125297546387,-2.3957755565643315,8.205788612365724,0.02127913013100624,-0.22138170897960666,-0.17349901795387268
5.747181415557862,-2.37697696685791,8.346590995788576,0.03790257498621941,-0.19875989854335788,-0.2169651985168457
5.625426769256593,-2.3791046142578125,8.331323623657227,0.08213917911052704,-0.21137599647045138,-0.24851614236831665
5.389408111572266,-1.646970272064209,8.597980499267578,0.10219841450452806,-0.27250903844833374,-0.24477839469909668
5.623073577880859,-1.8473896980285645,8.417918205261232,0.10340633243322374,-0.3108487129211426,-0.24502576887607577
5.861209392547608,-1.5497082471847536,8.47944736480713,0.09268645197153093,-0.35899141430854803,-0.24155807495117188
5.87833070755005,-1.104562520980835,8.521093368530273,0.03940525278449059,-0.39925551414489746,-0.22071884572505954
5.469913005828858,-1.0126454830169678,8.772575378417969,0.025536756962537766,-0.45248094201087957,-0.19938413798809054
5.283031463623047,-1.7608684301376345,8.684288978576662,0.029732359573245052,-0.5432556867599487,-0.19913820922374728
5.614037036895753,-2.091559886932373,8.365776062011719,0.05091166868805886,-0.6420547366142274,-0.2358880341053009
5.6876373291015625,-2.402374744415283,8.267672538757326,0.10935446619987488,-0.7272074818611146,-0.3047829866409302
5.176750183105469,-2.23067045211792,8.765604019165039,0.17261594533920288,-0.8407744765281678,-0.3877448737621308
5.371116638183594,-2.4055955410003667,8.839125633239748,0.21322914958000183,-0.9988749623298646,-0.48134636878967285
5.766702175140382,-2.3102211952209473,8.80912494659424,0.26369667053222656,-1.1236884593963623,-0.5469858050346376
6.177793979644776,-1.9903746843338015,8.261707305908203,0.30052229762077337,-1.227569818496704,-0.5908976197242738
6.204479217529297,-1.2801847457885742,8.465847969055178,0.32157436013221746,-1.3278758525848389,-0.6021605730056763
6.015978813171387,-1.4505065679550173,8.448201179504396,0.31851080060005194,-1.463939905166626,-0.6063076853752137
5.686747074127198,-0.5876501798629761,8.513532638549805,0.30680233240127563,-1.658057451248169,-0.5849465727806092
5.743476390838624,-0.6058862209320068,8.782376289367678,0.2746735215187073,-1.9050310850143435,-0.548698902130127
5.559927463531495,-1.1534385681152344,9.051427841186523,0.314608633518219,-2.2484714984893803,-0.5218215584754945
5.535124778747559,-1.396423578262329,8.819511413574219,0.40648818016052246,-2.674219369888306,-0.5312570333480835
5.9850873947143555,-1.8267583847045898,8.429410934448242,0.4955358803272248,-3.1801340579986577,-0.5095688104629517
6.040761470794679,-1.4579471349716189,9.145495414733888,0.5762749314308168,-3.73628568649292,-0.5296759009361268
7.961415767669679,-1.2099406719207764,9.211411476135256,0.6329358220100404,-4.333310127258301,-0.34067434072494507
6.761967658996582,-1.1005735397338867,8.703619003295898,0.5492765307426454,-4.894129753112793,-0.149434968829155
9.942967414855959,0.1421436071395874,10.78510856628418,0.37597841024398804,-5.300041198730469,-0.1538941711187363
12.054659843444826,-1.080343842506409,11.455730438232422,0.22344008088111877,-5.195136547088624,-0.20011824369430542
14.67162609100342,-2.268906593322754,10.82591438293457,0.21478088200092318,-4.789114952087402,-0.3217253088951111
17.310316085815433,-2.8094329833984375,10.993227005004883,0.3043647706508637,-4.240848541259766,-0.477670043706894
20.34359359741211,-3.9456639289855957,9.975360870361328,0.25651419162750244,-3.7276268005371094,-0.5343832373619081
19.478221893310547,-4.391497611999512,8.540674209594727,-0.01079636625945568,-3.4286315441131596,-0.5592256784439087
21.633260726928714,-0.977485477924347,5.952649593353272,-0.9277307987213135,-3.1102249622344975,-0.6016938090324403
22.188018798828125,0.4362947344779968,-0.4830442368984223,-1.6768261194229128,-3.037950038909912,-0.9382013678550721
25.149646759033203,-0.9630644917488099,-2.6416068077087402,-1.7835353612899782,-2.965492486953736,-1.5612554550170898
22.756397247314453,-0.4022495150566101,-3.580060720443726,-1.2775838375091553,-3.0033662319183354,-2.4086966514587402
19.524333953857422,0.9590585231781006,-5.559913158416749,-0.7776366472244263,-3.563099622726441,-3.264675855636597
29.59224891662598,0.44518446922302246,1.7128940820693972,-0.2746671438217163,-4.421462535858155,-4.068836212158203
27.731735229492188,0.36161825060844427,8.378311157226562,-0.23074309527873996,-3.887542009353638,-4.3190202713012695
22.278783798217777,0.8041793704032899,5.507514476776124,-0.30643454194068914,-3.661989688873291,-4.478250026702882
21.614959716796875,0.05667731165885925,7.483639717102051,-0.36018106341362005,-3.5069961547851562,-4.597555160522461
17.32785224914551,-1.0646092891693115,7.3958024978637695,-0.45299348235130316,-3.2731781005859375,-4.575125217437745
14.590838432312013,-3.7025418281555176,8.178564071655273,-0.3249548673629761,-3.116288661956787,-4.523274898529054
11.72096920013428,-6.991148948669434,8.57368564605713,0.1984817385673523,-2.979735136032105,-4.314014434814453
9.705347061157227,-8.495305061340334,9.069537162780763,1.062838912010193,-2.8328733444213867,-4.021245002746582
7.713480472564698,-8.402211189270021,9.96897602081299,1.9082441329956055,-2.632191896438599,-3.6392054557800293
6.33193063735962,-7.030533790588379,11.576704025268555,2.414766788482666,-2.267563819885254,-3.154375314712525
5.895586013793945,-5.119766712188722,13.910285949707031,2.471484661102295,-1.5983444452285769,-2.5326733589172363
5.012482166290284,-2.2230310440063477,16.130540847778324,1.9867563247680664,-0.5757351517677308,-1.780672907829285
4.420117378234863,-0.5410661697387695,17.601720809936527,0.8520417213439941,0.6594098210334779,-0.8881196975708008
3.0136115550994877,-2.512773752212525,16.310138702392578,-0.28734412789344793,1.8982263803482058,-0.07578134536743164
-0.831924855709076,-5.878031253814698,12.538741111755373,-0.7080377936363221,2.787489414215088,0.4768467247486115
-4.647913932800293,-7.0193891525268555,8.692386627197266,-0.4662466943264008,3.201294422149658,0.8464123010635376
-6.774085521697999,-5.809316635131836,5.956017971038819,-0.06115729361772537,3.232645750045777,1.1769740581512451
-7.1196136474609375,-4.424620151519776,4.661804676055909,0.23403826355934143,3.050314426422119,1.5191005468368532
-6.3885908126831055,-2.9857008457183842,4.639753341674805,0.37419241666793823,2.8454496860504155,1.8140814304351807
-4.596914291381836,-1.3448810577392578,6.201821804046632,0.3180877268314362,2.767709255218506,2.0691723823547363
-3.2547664642333984,-0.012408137321472168,7.5454115867614755,0.05215959995985031,2.941457033157349,2.259110450744629
-2.6200091838836674,0.6914493441581727,8.407074928283693,-0.2612162530422211,3.2541735172271733,2.3503689765930176
-1.865101218223572,1.301267981529236,8.94026279449463,-0.5784395337104798,3.6300840377807617,2.3316490650177006
-0.9546809196472168,1.6141115427017214,8.983211517333984,-0.8427217602729798,4.056878089904785,2.1969594955444336
-0.16104701161384583,1.856114387512207,8.743244171142578,-1.0675109624862673,4.484865188598633,1.9920631647109988
0.6446346044540405,1.586214900016785,8.453379631042482,-1.225255370140076,4.864237308502198,1.7618627548217773
0.8714467883110047,1.8485566377639773,7.732579231262207,-1.3206874132156374,5.163952827453613,1.5545300245285036
0.7864265441894531,2.178998708724976,6.808128833770753,-1.4244933128356934,5.333842754364015,1.3728305101394656
0.9282671213150024,2.416266918182373,6.216947555541992,-1.5555726289749148,5.357976913452148,1.227185368537903
1.9627127647399902,2.415802478790283,6.754955768585206,-1.696536183357239,5.279254436492921,1.1190762519836426
4.061439990997315,2.021617889404297,8.108195304870607,-1.7758263349533083,5.26424503326416,1.0176573991775515
5.961842060089112,1.8420305252075195,9.322214126586914,-1.7527000904083252,5.374770641326905,0.893400013446808
7.353636741638184,2.4223186969757085,9.966445922851562,-1.7614291906356814,5.518547058105469,0.804918944835663
8.245337486267092,2.954039812088013,10.137113571166992,-1.8821496963500977,5.5944976806640625,0.7563812136650087
9.589402198791506,3.206546545028687,10.48569107055664,-2.0331075191497807,5.586480140686035,0.7197691798210145
11.107843399047852,3.60853910446167,11.122040748596193,-2.1490762233734135,5.535178184509277,0.6407030820846558
12.21420669555664,4.478531837463379,11.699335098266602,-2.2550208568573002,5.468064308166504,0.46343824267387396
12.69304084777832,5.8578081130981445,12.091746330261232,-2.4343869686126713,5.318355083465577,0.1557474434375763
14.181259155273438,6.311789512634277,12.403262138366701,-2.6636793613433842,5.135800361633301,-0.28396633267402654
15.876374244689943,6.26149606704712,11.936492919921875,-2.824713706970215,4.935208797454835,-0.7176942229270936
15.801466941833498,6.51780652999878,10.568973541259766,-2.9023816585540776,4.584949493408203,-1.1079667806625368
15.297122955322266,7.529973030090332,9.51066780090332,-2.9814436435699467,4.038738727569581,-1.470623254776001
15.919505119323732,8.612210273742678,9.491676330566406,-3.1406869888305664,3.4284360408782963,-1.83929443359375
18.334774017333984,8.84422016143799,10.394535064697266,-3.3031904697418217,2.9520130157470703,-2.1967716217041016
19.776468276977543,9.705537796020508,10.329936981201172,-3.409014463424683,2.6706318855285645,-2.48224949836731
19.15422630310059,12.057677268981935,8.829660415649414,-3.6732981204986577,2.4169805049896245,-2.642760753631592
18.333078384399418,12.969989776611328,7.021624565124512,-4.07177734375,2.101514577865601,-2.698451042175293
17.47651863098145,12.042447090148928,5.230815410614015,-4.220527172088624,1.7660226821899414,-2.744656562805176
17.269332885742188,10.130900382995607,3.792797088623047,-3.8797383308410645,1.4575632810592654,-2.815336227416992
16.982284545898438,7.972333431243897,2.6948060989379883,-3.0209395885467534,1.1870626211166384,-2.886751174926758
15.889034271240234,7.365960121154785,1.2141077518463135,-1.961644172668457,0.903230369091034,-2.9311370849609375
14.556673049926758,8.4451904296875,-0.6428011655807495,-1.2370893955230713,0.540857493877411,-2.87360692024231
13.767875671386719,8.492068290710451,-2.3379023075103764,-1.0079092979431152,0.09981667250394823,-2.6595306396484375
15.555956840515138,-7.849481105804444,-6.133970737457276,0.8313342928886415,-0.6684189438819886,-2.544564723968506
9.351960182189943,9.089128494262695,-3.4618256092071538,3.4096167087554936,-1.490051031112671,-3.095986127853394
27.44372367858887,-5.422458171844483,24.06771278381348,2.3538534641265874,-1.4659886360168457,-1.6422359943389893
21.308568954467777,-7.822991847991944,31.339290618896484,1.0318982601165771,0.6756562590599061,-0.1015726774930954
-10.493694305419922,-10.926077842712404,-2.624053955078125,1.0156607627868652,0.017683036625385284,-0.4862129986286164
7.660212993621827,12.388976097106935,17.799957275390625,0.7754572629928589,-1.3394705057144167,-0.31456077098846436
9.79953384399414,12.526902198791506,15.311646461486818,0.38184753060340887,-0.08702558279037476,-0.47690802812576294
2.166283130645752,-1.2277953624725342,7.857041835784913,0.16380101442337036,-0.024773003533482555,-0.18755027651786804
4.923245906829835,1.72078812122345,11.807568550109865,0.06679102778434753,-0.11425605416297913,-0.10262563079595567
3.6865098476409917,1.5526932477951052,9.68935298919678,0.004539275076240302,-0.11243455111980438,-0.09365882724523546
5.262698650360108,-1.4851956367492676,9.56923580169678,-0.03165058791637421,-0.006834964733570815,-0.06344380229711534
4.7468581199646005,-1.5689315795898438,9.256820678710938,0.01916478015482426,0.043177902698516846,-0.0675531104207039
4.828735828399659,-1.3356412649154665,9.534805297851562,0.0614192858338356,0.09596790373325348,-0.06155526265501977
4.694036483764648,-1.7092071771621706,9.626386642456055,0.08918391913175584,0.12067250907421112,-0.05955490842461587
4.318185329437257,-1.0089225769042969,9.830197334289553,0.11572481691837311,0.10839793831110002,-0.061345424503088004
4.256343364715577,-0.7488745450973511,9.847464561462404,0.10064379870891571,0.09058173745870592,-0.05301956087350845
4.277958393096925,-0.6798126697540283,9.822279930114748,0.07935426384210588,0.0801731124520302,-0.03293105214834213
4.14560604095459,-0.34891200065612793,10.000753402709961,0.046495676040649414,0.059496108442544944,-0.010662509128451347
4.106403827667237,-0.4350770115852356,10.068675041198732,0.0009257868514396251,0.033310070633888245,0.015917547047138214
3.907540559768677,-0.328365832567215,10.027688980102539,-0.04882298037409783,-0.002808515913784504,0.041586499661207206
3.691151380538941,-0.7110804915428163,9.909672737121584,-0.10266581922769548,-0.06608182936906816,0.05866941809654236
4.074735641479492,-0.6354005932807923,9.931836128234865,-0.14315067231655124,-0.11902530491352081,0.06949100643396379
4.355899333953858,-0.5441837310791016,9.866729736328125,-0.17257025837898254,-0.12777794897556308,0.08538948744535448
4.2698330879211435,-0.6193329095840454,9.877093315124513,-0.19352233409881592,-0.12427600473165513,0.10306510329246521
4.0943570137023935,-0.8567709922790527,9.814384460449219,-0.20988118648529053,-0.13798469305038452,0.11645937711000444
4.179076194763184,-0.7717467546463013,9.981210708618164,-0.22245025634765625,-0.16752974689006808,0.12276437878608704
4.382454872131348,-1.015233039855957,9.86369514465332,-0.23306228220462802,-0.16354283690452576,0.11349546909332275
4.267656326293945,-1.0320425033569336,9.802318572998047,-0.23555326461791992,-0.16613520681858066,0.11001880466938019
4.341302871704102,-0.8585105538368226,9.911837577819826,-0.26526877284049993,-0.16882367432117465,0.11110523343086243
4.055334091186523,-1.3749473094940186,9.35856819152832,-0.2586695849895478,-0.15687739849090576,0.10226098448038103
3.6365456581115723,-1.8668752908706667,9.197229385375977,-0.22840227186679843,-0.19009608030319214,0.08152870833873749
4.270895004272461,-1.3650113344192507,9.670379638671875,-0.20860861241817477,-0.22599798440933228,0.05950680747628213
4.5401811599731445,-1.6595176458358767,9.361134529113771,-0.18282060325145724,-0.19581188261508944,0.054511524736881256
4.518822193145753,-1.2706854343414307,9.412784576416016,-0.16505427658557895,-0.171253502368927,0.06202067062258721
4.496918678283691,-1.56815767288208,9.300865173339844,-0.14503255486488342,-0.14062567055225375,0.05886048451066018
4.407014846801758,-1.6078298091888428,9.427578926086428,-0.12580853700637817,-0.12524889409542087,0.055797331035137177
4.187627315521241,-1.6502912044525146,9.216188430786133,-0.10552745312452318,-0.11208029836416246,0.04775155335664749
4.3126420974731445,-1.1945981979370117,9.789555549621584,-0.11185833811759949,-0.1506992727518082,0.046951115131378174
4.483817577362061,-1.0701467990875244,9.664217948913576,-0.15419238805770874,-0.1437928527593613,0.04607601091265679
4.213452339172363,-1.2863688468933105,9.447040557861328,-0.16062232851982117,-0.1389267295598984,0.028540052473545074
4.081269264221191,-1.3834021091461182,9.444249153137209,-0.1597171127796173,-0.17228266596794128,0.03276526555418969
4.351161479949952,-1.63977324962616,9.359573364257812,-0.13839641213417053,-0.1917958110570908,0.019479643553495407
4.544086933135987,-1.369075417518616,9.414740562438967,-0.1310177445411682,-0.18748779594898227,0.03265314176678658
4.369598388671875,-1.261163115501404,9.519794464111328,-0.1488751471042633,-0.197395995259285,0.022837810218334198
4.418873310089112,-1.6266552209854128,9.385942459106445,-0.14030250906944275,-0.1953069269657135,0.019058389589190487
4.342995166778565,-1.587540864944458,9.432866096496584,-0.13131533563137057,-0.20122820138931274,0.00467201927676797
4.353586196899414,-1.5218187570571902,9.455026626586914,-0.13579711318016052,-0.21315746009349826,-0.015464576892554762
4.395437717437745,-1.651376724243164,9.374012947082521,-0.1410924941301346,-0.2255288064479828,-0.04197214171290398
4.135051250457765,-2.0986773967742924,9.244908332824709,-0.12545624375343323,-0.23130562901496887,-0.08593233674764635
4.036516666412354,-2.345853805541992,9.245364189147951,-0.09664052724838257,-0.27379545569419866,-0.15277856588363647
4.60499382019043,-1.772984862327576,9.47686767578125,-0.08620356768369676,-0.3111947178840637,-0.18880689144134521
4.749222755432129,-1.4110450744628906,9.538551330566406,-0.09301342070102692,-0.3262846171855927,-0.1847856044769287
4.714995861053468,-1.3786051273345947,9.638459205627443,-0.114180788397789,-0.34941864013671875,-0.1653130799531937
4.363796234130859,-1.4481152296066286,9.541986465454102,-0.12497476488351823,-0.3890972137451172,-0.1651825159788132
4.386631011962891,-1.3711302280426025,9.66049575805664,-0.15053470432758334,-0.4589039087295532,-0.18119245767593384
4.689430713653565,-0.7776129841804506,9.845438003540039,-0.20688843727111816,-0.5248842835426332,-0.1470293402671814
4.425543785095215,-0.7061758637428285,9.825113296508789,-0.2872604429721833,-0.6089769005775453,-0.08921419084072113
4.207147598266602,-0.6156797409057617,9.955757141113281,-0.36608874797821045,-0.7360141873359681,-0.05006541311740875
3.886460781097412,-0.3500406444072724,9.951718330383303,-0.4760286211967468,-0.8966739773750306,-0.04391221329569817
3.87176513671875,-0.30822640657424927,9.973564147949219,-0.5785958766937256,-1.1005922555923464,-0.0058607375249266624
3.5607092380523686,-0.3339831233024597,9.8861780166626,-0.6892275810241699,-1.355440616607666,0.015879837796092037
3.3424308300018315,-0.42425012588500977,9.832526206970217,-0.7538985610008241,-1.675874948501587,0.04975745454430581
2.741585016250611,-0.7784624695777894,9.93246364593506,-0.8561976552009584,-2.0755767822265625,0.03659575432538986
2.6037085056304936,-0.8809867501258851,10.07649040222168,-0.885577142238617,-2.5497169494628906,0.051135133951902396
3.10264801979065,-0.9754829406738281,10.236196517944336,-0.9056504368782045,-3.070295095443726,0.05203556269407272
3.291456699371338,-1.2855273485183718,10.206344604492188,-0.9941002130508423,-3.581548929214478,0.13385552167892456
4.111600399017335,-1.1853342056274414,10.148425102233888,-1.1054326295852663,-4.078023910522461,0.17450013756752014
4.035982131958008,-1.0359874963760378,11.565393447875977,-1.2691789865493777,-4.708905220031738,0.18761982023715976
4.287866592407227,-0.7577575445175171,12.84732437133789,-1.6733702421188357,-5.415293216705323,0.18541717529296875
4.285658836364746,-1.3668019771575928,13.986387252807617,-2.125979423522949,-6.179242610931397,0.21302655339241028
6.4091339111328125,-3.2430584430694585,15.539294242858888,-2.6522793769836426,-7.020654201507569,0.22355838119983676
9.287116050720217,-3.5833845138549805,15.714592933654787,-3.0362038612365723,-7.691922664642335,0.22170251607894897
13.408806800842287,-4.230471134185792,18.203598022460938,-3.8657073974609375,-8.156753540039062,0.014280707575380804
19.151247024536136,-7.925175189971925,19.704757690429688,-4.570683956146241,-8.263538360595703,-0.2677623331546784
25.838844299316406,-5.68748426437378,22.34935760498047,-5.521311283111573,-7.644045829772949,-0.6412841081619263
31.221902847290043,-7.280632019042969,21.275753021240234,-6.784820079803468,-6.540257453918457,-0.8052712082862855
23.690431594848636,-3.0873360633850098,20.121795654296875,-8.616588592529297,-5.163792610168457,-0.459339588880539
20.515758514404297,-6.75286626815796,20.326019287109375,-10.535227775573732,-3.551661968231201,-0.423486202955246
13.192697525024414,-9.370630264282227,9.296760559082031,-8.520779609680178,-1.6418180465698242,-2.160393714904785
41.01722717285156,-16.139320373535156,28.196546554565433,-4.864321231842042,0.32475221157073975,-4.4364991188049325
19.613765716552734,-13.802085876464844,22.41182899475098,-1.288809657096863,3.8673117160797124,-4.560795783996582
8.493472099304201,-2.3463873863220215,12.062124252319336,-0.17697060108184814,4.476796627044679,-4.265361785888672
4.768803596496582,3.1806182861328125,6.6051483154296875,-0.48166260123252874,4.561244964599609,-4.1735334396362305
3.6124861240386967,3.593562126159668,3.9352002143859863,-1.1475893259048464,4.387737274169922,-4.053833484649659
1.4635374546051025,1.4320907592773438,2.003130674362183,-1.544381856918335,4.125471115112305,-3.902718305587769
0.3466162085533142,-1.313260793685913,1.9615845680236816,-1.5395981073379519,3.957414150238037,-3.6322944164276127
1.2569975852966309,-2.8162252902984624,3.3522286415100098,-1.0871772766113281,3.8819768428802495,-3.267101049423218
0.039332516491413116,-2.9716238975524902,3.7680199146270756,-0.5647116899490356,4.014743328094483,-2.7704429626464844
-1.0570079088211062,-2.270068645477295,4.122902393341065,-0.2109624743461609,4.118734359741211,-2.204675912857056
-1.471675753593445,-0.6764422059059144,4.241985797882081,-0.2891693115234375,4.301165103912354,-1.5002355575561523
-1.1161640882492068,-0.1161811873316765,4.282930850982667,-0.5419124960899354,4.584220886230469,-0.7942079305648804
-1.5911784172058105,-0.4624470174312592,3.2955245971679688,-0.7668665051460267,4.829902648925781,-0.1158832684159279
-2.052856922149658,0.7943222522735596,2.0808761119842534,-0.9022449851036073,4.9676175117492685,0.5419646501541138
-2.461282253265381,2.094113349914551,1.0273735523223877,-1.0044903755187988,4.944072246551515,1.0292630195617676
-1.8407366275787354,2.7522652149200444,0.8482745289802552,-1.0433548688888552,4.875596046447754,1.2862117290496826
-0.2669515013694763,3.895547151565552,1.559755563735962,-1.0233259201049805,4.835966587066651,1.332014560699463
0.726586103439331,4.373411655426026,1.7520533800125124,-0.9184418320655824,4.918006420135499,1.160027265548706
1.7263725996017458,4.875587940216065,1.6049543619155886,-0.804379165172577,4.994061470031738,0.8768059611320497
2.8227803707122807,5.6367292404174805,1.0032874345779421,-0.7213926315307617,5.057269573211671,0.5672587752342225
3.9210762977600098,5.644878864288331,-0.32877814769744873,-0.7108237147331239,5.071599006652832,0.2532263100147248
5.3913540840148935,4.610217571258546,-1.680664896965027,-0.6438300013542176,4.939103603363038,0.026528745889663696
7.389650344848633,3.785660743713379,-2.554640769958496,-0.45143651962280273,4.651461124420167,-0.09521132707595825
9.590636253356935,3.689388513565064,-2.8207237720489506,-0.2619179785251618,4.219399452209473,-0.12028861045837402
12.941748619079592,3.016976833343506,-2.165989875793457,-0.05726947635412216,3.6815159320831303,-0.10605375468730927
17.753168106079105,2.244661808013916,-0.8680045008659364,0.2385392934083939,3.111183881759644,-0.0449243038892746
21.93989753723145,2.565256834030152,-0.5216944217681885,0.5441362261772157,2.5873217582702637,0.07397092133760454
23.29855728149414,3.0039567947387695,-1.8987616300582888,0.7421555519104004,2.0029456615448002,0.20746929943561557
23.28689193725586,2.7730319499969487,-3.450577020645142,0.8609756827354432,1.3190138339996338,0.3277504742145539
22.369970321655277,2.587052822113037,-5.106122970581055,1.0263752937316895,0.6426346302032471,0.39593771100044256
17.885967254638672,3.050099134445191,-8.386057853698732,1.0912190675735476,-0.17408636212348938,0.3741050064563752
30.91222953796387,8.407268524169922,-13.309038162231445,0.4360753893852234,-1.748646140098572,0.5743319392204286
79.7050247192383,28.352025985717777,36.30135726928712,-3.8994407653808594,-3.4697897434234624,1.6887218952178955
23.81681632995606,1.7225588560104372,5.73919439315796,-1.7087827920913699,2.336554288864136,0.009927045553922653
6.454878330230714,-11.204893112182617,8.164419174194336,-0.4696971476078034,1.4730541706085205,0.4647953808307648
-6.146879673004151,-5.538820743560792,9.917909622192383,0.12668362259864807,1.2811084985733034,0.429404765367508
0.09777268022298814,-1.8927065134048464,14.510844230651857,0.19867101311683655,0.7850142121315004,-0.40781861543655396
1.6091028451919558,-11.733884811401367,9.665711402893068,0.4480522572994233,0.6683477759361268,-0.8377999067306519
3.245264291763306,1.170548439025879,11.098226547241211,0.7114320397377015,0.35327982902526855,-1.0148783922195437
5.593158721923828,6.518070697784425,10.565972328186037,0.4285248816013337,0.1728387475013733,-0.7249476909637451
6.469382286071777,2.760487318038941,9.697834968566896,0.24264307320117953,0.1644982397556305,-0.3566900193691254
6.100179195404054,1.443789839744568,9.357314109802248,0.08649409562349321,0.25735738873481756,-0.02554268389940262
5.22773027420044,-0.9382718801498413,9.395208358764648,0.09415883570909502,0.3766804337501526,0.047588076442480094
4.818202495574952,-2.47878360748291,9.57558822631836,0.15098902583122253,0.4483658969402314,-0.05525490269064904
4.360889911651612,-1.5075504779815674,9.806004524230959,0.24753208458423617,0.502967357635498,-0.1709946841001511
3.865937948226929,1.4323077201843262,10.177278518676758,0.1854870617389679,0.46123844385147095,-0.12918691337108615
3.764479637145996,1.8468966484069824,10.537519454956055,0.035899847745895386,0.3380443751811982,0.025508109480142593
3.488744497299195,0.6527335047721864,10.373523712158203,-0.05470899865031243,0.1933535635471344,0.14743101596832275
3.273123264312744,-0.15811805427074435,10.427177429199219,-0.09644785523414612,0.05274592712521554,0.1639324426651001
3.1475725173950195,0.0615348219871521,10.543952941894531,-0.14819103479385376,-0.0952567607164383,0.15215300023555758
3.355019330978394,-0.02817252278327942,10.337787628173828,-0.19850973784923556,-0.23607951402664185,0.12972529232501986
3.6493222713470463,0.2983086109161377,10.226805686950685,-0.24976032972335815,-0.3384930789470673,0.12515197694301608
3.9754474163055424,0.4820928275585175,10.151348114013672,-0.3201640844345093,-0.4020663797855378,0.16249322891235352
4.170151710510254,-0.1975145936012268,9.971100807189943,-0.3665644228458405,-0.4463625252246857,0.20112460851669312
4.251455307006836,0.04735836386680603,9.917474746704102,-0.4108313322067261,-0.46230301260948187,0.22842073440551758
4.076031208038331,-0.3880806565284729,9.659666061401367,-0.45488107204437256,-0.49098137021064764,0.2405107766389847
4.421639442443848,-0.6691675186157227,9.679463386535646,-0.4678055942058564,-0.5233080387115479,0.22176514565944674
4.48664426803589,-0.8147203922271729,9.505807876586914,-0.48688712716102606,-0.5005521178245546,0.21846067905426025
4.411132335662843,-0.44518366456031805,9.560003280639648,-0.4598634541034699,-0.49645161628723145,0.19280688464641574
4.861333847045898,-1.1780949831008913,9.464906692504883,-0.4651880562305451,-0.4621696472167969,0.17108184099197388
4.64532232284546,-0.520240068435669,9.457957267761232,-0.437865823507309,-0.44560450315475464,0.1536316126585007
4.823388576507569,-1.0244152545928955,9.325613975524904,-0.4269817769527436,-0.39861741662025457,0.15619829297065735
4.632430076599121,-0.7428112030029297,9.386734008789062,-0.40542250871658325,-0.3742079436779023,0.1402193307876587
4.614252567291261,-1.6535588502883913,9.387028694152834,-0.3791680335998535,-0.3211117088794709,0.1455519646406174
4.53376579284668,-1.5573272705078125,9.326126098632812,-0.3177368342876435,-0.2849135398864746,0.1301258057355881
4.754034996032715,-1.9088611602783203,9.015457153320312,-0.2784374058246613,-0.2301796525716782,0.10484908521175385
4.982025146484375,-1.9358279705047607,8.867145538330078,-0.19578836858272555,-0.18325892090797424,0.06782818585634233
4.897536277770996,-1.3474109172821045,8.987600326538086,-0.15062893927097323,-0.11112724244594574,0.06000687927007675
4.720776557922363,-1.2925496101379395,9.116953849792482,-0.11790259927511217,-0.06997756659984589,0.05287067219614983
4.891023635864258,-1.2215464115142822,9.079751014709474,-0.0856449529528618,-0.020178409293293956,0.0490955114364624
4.487394332885742,-1.3572248220443728,9.117080688476562,-0.0572139248251915,0.0152685409411788,0.036590300500392914
4.640894889831543,-1.3422632217407227,9.231198310852053,-0.034460309892892844,0.02072855457663536,0.01734686642885208
4.6991639137268075,-0.9181396365165712,9.196340560913086,-0.035751692950725555,0.037781517952680595,0.011137127876281738
4.258925437927246,-0.5541336536407471,9.580154418945312,-0.07359479367733002,0.03270313888788223,0.03119253553450108
4.01315975189209,-0.9148589372634888,9.77954959869385,-0.10116926580667497,-0.03236505389213562,0.030990069732069973
4.112211704254151,-1.1697609424591064,9.61589241027832,-0.1080998033285141,-0.10500728338956834,0.009116739965975286
4.122867107391358,-1.0314719676971436,9.608641624450685,-0.11453846842050554,-0.17912274599075317,-0.012155915610492231
4.3890137672424325,-1.0690439939498904,9.461082458496094,-0.12389342486858368,-0.2352467179298401,-0.019395301118493084
3.8410665988922124,-1.396805763244629,9.425867080688477,-0.11234099417924882,-0.2891101837158203,-0.041415821760892875
3.736669778823853,-2.039328098297119,9.411185264587404,-0.03294714912772179,-0.3855094313621521,-0.10323521494865417
4.322033405303956,-2.196393251419068,9.307290077209474,0.07573369145393372,-0.4570855796337128,-0.1893576681613922
4.6256470680236825,-1.093016028404236,9.67866611480713,0.11885267496109009,-0.5115478038787842,-0.2406965643167496
4.345428466796875,-0.8845117092132568,9.81511974334717,0.12513796985149386,-0.5596975088119507,-0.2571261823177338
3.961664438247681,-1.012739896774292,9.766476631164553,0.12206944078207017,-0.6936506032943726,-0.28947144746780396
4.403875350952148,-0.43209913372993475,10.061629295349123,0.09605220705270769,-0.8819396495819092,-0.2812567055225373
4.219867706298828,0.17029187083244324,10.153353691101076,-0.0031064779032021765,-1.072625279426575,-0.2198561131954193
3.9022972583770756,0.14316439628601074,10.371390342712404,-0.08883450180292131,-1.3188345432281494,-0.1532927602529526
3.5685930252075195,-0.1477552503347397,10.449215888977053,-0.1854536235332489,-1.6188067197799685,-0.1060430482029915
3.429791688919068,-0.6363331079483032,10.441534042358398,-0.24032112956047058,-1.9739836454391482,-0.10144233703613281
3.33032774925232,-0.6182994842529297,10.057824134826662,-0.24700151383876803,-2.355824232101441,-0.11467331647872925
3.3402545452117924,-1.248396635055542,9.681978225708008,-0.17555250227451327,-2.8080954551696777,-0.11827006191015245
4.670503616333008,0.3870807588100434,10.649968147277834,-0.16098946332931519,-3.2214586734771733,-0.1587301939725876
4.4374661445617685,-0.303811252117157,9.60279655456543,-0.09826941788196564,-3.53884768486023,-0.18426752090454102
4.376967906951905,-0.2950232326984406,9.483602523803711,0.03366276994347573,-4.125633716583253,-0.19594448804855347
5.228224754333496,-2.048252582550049,11.003367424011232,0.06730135530233385,-4.680347442626953,-0.2062719911336899
8.651033401489258,-6.080175399780273,13.595088958740234,0.3132195472717285,-4.817909717559815,-0.15565393865108493
10.496660232543945,-3.216212272644043,13.896166801452638,0.46325165033340454,-4.980000972747804,-0.10113124549388885
14.394206047058107,-6.0564589500427255,13.590779304504396,0.5807831883430482,-4.80646848678589,-0.27168387174606323
23.515701293945312,-7.104364395141602,15.831295013427734,1.36985182762146,-4.607291698455811,-0.4685595631599426
28.24397468566895,-0.742267370223999,12.846160888671875,1.6954361200332644,-4.222248077392578,-0.8625082969665527
32.44691467285156,-0.6992065906524658,12.095935821533203,1.6526764631271365,-3.61814546585083,-1.357723116874695
30.815811157226562,0.06407395005226135,11.313180923461914,1.623730182647705,-2.9269633293151855,-1.7708305120468142
24.095731735229496,5.376866817474366,8.73030757904053,1.1816166639328005,-3.0515074729919434,-2.521943330764771
39.612709045410156,3.306801557540894,22.331222534179688,0.1943117827177048,-2.8614916801452637,-3.0583319664001465
27.426456451416016,0.009266376495361328,20.122039794921875,-0.6635880470275879,-1.4885431528091433,-2.8958373069763184
21.09551811218262,-1.977660894393921,15.867255210876467,-1.4979579448699951,-1.1427569389343262,-2.6185886859893803
17.556716918945312,-5.39624834060669,13.926489830017092,-1.5643153190612793,-1.0311893224716189,-2.4220523834228516
13.91727924346924,-8.281403541564943,12.27019786834717,-1.0038429498672488,-1.0642998218536377,-2.14418363571167
12.66546154022217,-8.857497215270998,13.203238487243654,-0.03792071714997292,-1.0441694259643555,-1.9214545488357546
10.66826057434082,-6.776067256927491,14.362606048583984,0.7978633046150209,-0.8151234984397889,-1.6309843063354492
8.07949447631836,-3.4278578758239746,15.174715995788576,1.0193973779678347,-0.4155902862548828,-1.2795656919479372
4.555102825164796,-2.12774658203125,14.097469329833984,0.8084576725959779,0.10343782603740692,-1.0384955406188965
1.9598282575607302,-2.1179511547088627,12.513611793518068,0.4824604690074921,0.6309372186660767,-0.8576319813728334
-1.9947136640548708,-3.453293085098267,9.419866561889648,0.3536083698272705,1.0042788982391357,-0.7270097136497499
-5.333126068115234,-4.0028886795043945,6.018192291259766,0.5003571510314941,1.1912533044815066,-0.6099215745925903
-7.3509840965271005,-3.1067986488342285,4.278026580810547,0.5487130284309388,1.2169530391693115,-0.4506966471672058
-7.5395522117614755,-2.09583067893982,4.762537002563477,0.31655034422874456,1.2667300701141357,-0.22319991886615756
-7.382242202758789,-2.6399216651916504,5.113409996032715,-0.06163480877876282,1.4782073497772217,0.06222208961844445
-8.119020462036133,-4.3009843826293945,4.589380264282227,-0.24256946146488192,1.8129007816314697,0.3017503917217255
-9.294527053833008,-4.336799144744874,3.3935723304748535,-0.28954190015792847,2.0534322261810307,0.5417852997779847
-9.15303707122803,-3.359569549560547,3.1783294677734375,-0.44968691468238836,2.25108003616333,0.7688952088356019
-9.585156440734865,-2.9973578453063965,2.109402418136597,-0.6675219535827637,2.509183883666992,0.9395009875297547
-11.051476478576662,-2.8909604549407963,0.5699739456176758,-0.7867071628570557,2.663495302200318,1.0005362033843994
-10.986581802368164,-1.9010951519012451,0.47670018672943115,-0.9369395971298218,2.7384669780731206,1.010597348213196
-9.74397945404053,-1.858443021774292,1.2334285974502566,-1.1238703727722168,2.9045441150665288,1.0152952671051025
-7.554510116577148,-2.5054922103881836,2.534906148910523,-1.2132226228713991,3.213363885879517,1.062654972076416
-5.835414409637452,-2.201975584030152,2.319386243820191,-1.2123308181762695,3.620132207870484,1.1612792015075684
-5.1213178634643555,-0.5938904881477357,0.6546172499656678,-1.2556722164154053,3.8814351558685307,1.2714549303054812
-3.2051963806152344,0.8707515597343446,0.31418570876121527,-1.4582264423370361,3.9264247417449956,1.3672308921813965
0.8675544261932373,1.8744131326675417,1.8718663454055788,-1.6620187759399414,3.9644694328308105,1.4440213441848757
5.121778011322022,2.432284355163574,2.209922075271607,-1.7468862533569336,4.045129299163819,1.4988892078399658
8.41946792602539,2.7979743480682377,1.3123893737792969,-1.675453066825867,3.9928746223449707,1.5315523147583008
12.107850074768068,3.326791763305664,0.5064606666564941,-1.4711506366729736,3.753229379653931,1.5238924026489258
15.863833427429201,3.102699995040894,-0.5957282185554506,-1.1180602312088015,3.3904039859771733,1.4232726097106934
18.002679824829105,2.831262826919556,-2.1434652805328374,-0.6210617423057557,2.8781204223632812,1.262186408042908
17.82525634765625,3.2990348339080815,-4.247354984283448,-0.09713421761989594,2.254595041275025,1.077350735664368
16.78377723693848,4.092715263366699,-5.73151445388794,0.3056114912033081,1.4120906591415407,0.8728816509246826
17.66994667053223,3.8420507907867436,-4.962713241577148,0.6022091507911683,0.5568328499794007,0.7194331884384155
16.649801254272464,3.130348443984986,-4.303621292114258,1.0068385601043701,-0.11859003454446794,0.5672169923782349
109.17851257324219,24.094244003295902,35.44684600830078,-1.978769302368164,-3.254607439041138,0.7735741734504701
0.39969247579574585,21.95599174499512,-21.214044570922855,-0.43480241298675537,3.8610465526580815,-0.7857034206390381
22.946319580078125,-0.46564331650733953,21.007947921752933,-1.334120750427246,2.0760445594787598,0.3477633893489838
-8.36532497406006,-2.39628267288208,12.897096633911133,-0.48383656144142156,2.729797840118408,0.9362754225730897
-6.8215909004211435,1.6968193054199219,14.663284301757812,-0.4538991749286652,1.720571756362915,0.0660838633775711
1.5331822633743288,-12.14198112487793,12.436558723449709,0.20555211603641513,0.6739321947097778,-0.40604463219642645
-1.6623944044113161,-3.7081494331359863,12.864362716674805,0.23273469507694247,-0.23366655409336093,-0.28353869915008545
4.18660831451416,-0.38597813248634344,11.109825134277344,0.13413327932357788,-0.535485327243805,-0.5542560815811157
7.936441898345948,-1.3259857892990115,7.8761258125305185,0.27633258700370794,-0.4468209743499756,-0.5107762813568115
8.471041679382326,3.1305627822875977,8.299166679382326,0.150581955909729,-0.10336930304765703,-0.2689816355705261
6.6509718894958505,1.4888015985488894,8.799795150756836,0.01704850979149342,0.25978496670722967,-0.060475945472717285
5.314119815826417,-1.7711192369461062,9.02859115600586,0.016224604099988937,0.39311465620994573,0.014635125175118446
3.8672351837158203,-1.6875165700912478,9.718747138977053,0.07754941284656525,0.3437491357326508,-0.03354491665959359
4.237476348876953,-0.4785638451576233,10.037437438964844,0.05182221531867981,0.2489518374204636,-0.03136354684829712
4.521554946899414,-0.16369362175464633,9.761116027832031,0.006791272200644016,0.1816067099571228,0.010356024838984014
4.472263336181641,-0.4076336324214936,9.69040298461914,-0.036439660936594016,0.16020706295967102,0.051877874881029136
4.653181076049805,-0.9023222923278809,9.745015144348146,-0.05668329447507858,0.13389946520328525,0.06881444901227952
4.024148941040039,-0.8750258684158325,9.91270160675049,-0.05375403165817261,0.05679432675242425,0.06792974472045898
4.201692581176758,-1.0431063175201416,9.839325904846193,-0.04881763830780984,-0.030460899695754055,0.033607661724090576
4.5247650146484375,-0.9339308738708496,9.607288360595703,-0.04700262099504471,-0.06622248142957689,0.015177184715867043
4.84764289855957,-0.5041004419326782,9.584944725036623,-0.05926603078842163,-0.07391985505819322,0.033073578029870994
4.592270851135254,-0.6906012296676636,9.54890537261963,-0.07513859122991563,-0.08361980319023132,0.0584649108350277
4.67792844772339,-0.8368532061576844,9.574343681335451,-0.08657951653003693,-0.0815969705581665,0.06956017762422563
4.494666576385499,-1.1662898063659668,9.479812622070312,-0.0942315012216568,-0.08605494350194932,0.07697464525699615
4.58370065689087,-0.710578441619873,9.619851112365724,-0.0943751707673073,-0.11160974204540253,0.07282201945781708
4.655074119567871,-0.8013492822647095,9.43748664855957,-0.10842913389205933,-0.11517117172479631,0.08162282407283783
4.776144981384277,-0.5147132873535156,9.418362617492678,-0.12204698473215105,-0.10339751094579698,0.10159040987491608
4.665766239166261,-0.717423975467682,9.459553718566896,-0.1247652918100357,-0.11277126520872117,0.10350337624549866
4.682183742523194,-0.971031904220581,9.407388687133789,-0.13735474646091464,-0.10668139159679413,0.10044705867767334
4.481153964996339,-1.3132896423339844,9.322526931762695,-0.13263684511184692,-0.10873273760080339,0.09512871503829956
4.403255462646484,-0.9292925596237183,9.600150108337404,-0.13056500256061557,-0.13281054794788363,0.07758183777332306
4.33222532272339,-1.3134839534759521,9.106022834777834,-0.13293606042861938,-0.13773645460605624,0.0728326141834259
4.095872402191163,-1.3373215198516846,9.693126678466797,-0.08431948721408844,-0.1757929176092148,0.049960236996412284
4.294195175170898,-1.529865384101868,9.452674865722656,-0.04032071679830551,-0.21077002584934237,-0.0045436080545187
4.581197738647461,-1.7898991107940674,9.04465103149414,-0.004769682884216309,-0.2318495810031891,-0.05873335525393487
4.7516069412231445,-1.4584702253341677,9.101292610168459,0.018743552267551422,-0.22341372072696689,-0.10114584863185883
4.667327880859375,-1.1232705116271973,9.066091537475586,0.03800877183675766,-0.2067256718873978,-0.12953622639179233
4.547820568084718,-0.7454001903533936,9.306081771850586,0.03858110308647156,-0.21504549682140353,-0.13369613885879517
4.373842239379883,-1.3602194786071777,9.293882369995117,0.05554645508527756,-0.22601807117462158,-0.1621503978967667
4.280753612518311,-2.1530082225799565,9.109939575195312,0.12703531980514526,-0.256985753774643,-0.2509215474128723
4.57420301437378,-1.0055298805236816,9.519401550292969,0.179408997297287,-0.3214527070522309,-0.29838004708290106
4.483758449554444,-0.8065184354782104,9.543713569641115,0.1979240328073502,-0.38581353425979614,-0.2827501595020295
4.152464389801026,-1.3953583240509033,9.401262283325195,0.2222842574119568,-0.4790673851966858,-0.27739170193672186
4.117228984832765,-1.4231030941009521,9.910763740539553,0.26004657149314886,-0.6270097494125366,-0.28807267546653753
4.058868408203125,-1.449146389961243,9.87571907043457,0.2870770990848542,-0.8035168647766113,-0.3056858777999878
4.052902698516847,-0.34667807817459106,9.754052162170412,0.23959386348724365,-1.026846766471863,-0.3216038942337036
4.306400299072266,-1.4058982133865359,10.594252586364748,0.19489476084709167,-1.174795150756836,-0.3336260616779328
4.172473907470703,-0.09360063076019287,9.856350898742678,0.31414371728897095,-1.4334493875503542,-0.2678007483482361
4.382459163665772,-0.8616037964820863,9.923209190368654,0.2921117246150971,-1.5734210014343262,-0.33091896772384644
4.582834720611573,-0.3347821831703186,9.815532684326172,0.3162063956260681,-1.8216742277145388,-0.35856711864471436
5.111720561981202,0.0913139134645462,9.857544898986818,0.24434505403041842,-2.0074675083160405,-0.36465197801589966
5.1190080642700195,0.0913631021976471,9.915924072265625,0.18287552893161776,-2.2073612213134766,-0.3508619368076325
5.436635971069336,0.25474870204925537,9.72915554046631,0.12097477167844774,-2.369332790374756,-0.3530627489089966
5.48771619796753,0.09229424595832825,9.474949836730959,0.05324846133589745,-2.5560660362243652,-0.35150507092475897
5.241290569305421,0.24557296931743625,9.321036338806154,0.10954171419143677,-2.872995376586914,-0.33399382233619695
5.0347867012023935,0.49566900730133057,9.747277259826662,0.2650974094867707,-3.244797706604004,-0.33652141690254217
5.960047245025636,0.47405892610549927,10.295712471008303,0.44079765677452093,-3.7058358192443848,-0.23705169558525085
7.994626998901367,0.6753751635551454,10.671179771423342,0.38641393184661865,-4.04665231704712,-0.03170078992843628
11.053596496582031,2.2429375648498535,12.260580062866211,-0.13212260603904724,-4.219282150268555,0.36966672539711004
13.675847053527834,1.2029666900634766,13.10189437866211,-0.7840200066566468,-4.176904678344727,0.7316775918006898
16.925645828247074,-1.238265037536621,14.184704780578615,-1.0421119928359988,-4.057358741760254,0.7267138957977295
21.94909477233887,-2.091405630111695,10.101430892944336,-1.193693280220032,-3.8713879585266113,0.4559247791767121
27.282222747802734,-5.890995502471925,4.6663527488708505,-0.632676362991333,-3.9876179695129395,-0.18462504446506503
29.87762260437012,-7.095942020416261,2.231460332870484,0.8074951171875,-4.131664752960206,-0.9284001588821411
32.940589904785156,-4.460061550140382,7.019061088562012,2.0087287425994877,-3.998011589050293,-1.3766834735870361
30.585216522216797,-2.2202312946319585,6.403765201568604,2.7094345092773438,-4.3394484519958505,-1.6857616901397705
39.773765563964844,1.1788724660873415,20.78629875183106,2.4258952140808105,-3.937964916229248,-1.7611900568008425
27.719558715820312,2.8281455039978027,19.307086944580078,1.342519998550415,-2.9395401477813725,-1.6703789234161377
22.952032089233402,2.2367653846740723,17.076234817504886,0.17830370366573337,-2.5356574058532715,-1.7718005180358887
19.030035018920902,0.9806469082832338,16.03921127319336,-0.711280107498169,-2.2979152202606206,-1.9199471473693848
16.925180435180668,-1.4037270545959473,16.287157058715824,-1.3946902751922607,-2.009580612182617,-2.1068351268768315
14.746275901794435,-5.575594902038574,16.745306015014652,-1.4721893072128298,-1.4758524894714355,-2.299507856369019
11.3677978515625,-9.263792991638185,16.138954162597656,-0.7921245098114014,-0.8121042847633363,-2.353354692459107
7.368492603302003,-9.614338874816896,15.245170593261719,0.23929627239704135,-0.17807817459106445,-2.2370226383209233
4.206482410430909,-7.262713432312012,15.502505302429201,0.8991010785102845,0.4062778055667878,-1.981389045715332
1.4000709056854248,-5.548679351806641,14.98260498046875,0.9912247657775879,1.0498982667922976,-1.5934743881225586
-3.442066907882691,-4.988657474517823,11.552743911743164,0.8710253834724427,1.6986093521118164,-1.2824275493621826
-6.770977497100831,-4.041946887969972,8.664797782897951,0.5920830368995668,2.077089309692383,-0.9892250895500184
-8.526008605957031,-4.256424427032472,6.93986463546753,0.22654162347316745,2.2394831180572514,-0.6926277875900269
-8.840291023254396,-5.639418601989746,5.564565181732179,0.02702081948518753,2.440163850784302,-0.40642863512039185
-10.486258506774904,-5.990699291229249,3.9415297508239746,0.044809162616729736,2.5395605564117436,-0.13802860677242282
-11.344999313354492,-4.749317169189453,3.8835206031799316,-0.08059289306402208,2.486966133117676,0.18661828339099887
-9.131934165954592,-4.029518127441406,5.65529489517212,-0.499706119298935,2.656087160110474,0.5857528448104858
-9.660551071166992,-5.3146328926086435,4.0697693824768075,-0.7669630646705629,3.0554380416870117,0.9391139149665834
-11.273346900939943,-5.180440902709961,1.061615228652954,-0.7505125403404237,3.1703314781188965,1.251373529434204
-10.287522315979006,-3.095103979110718,1.0837801694869997,-0.8500368595123291,3.0530517101287846,1.5646860599517822
-7.691285133361816,-2.06752347946167,2.8916442394256596,-1.1232825517654421,3.1632740497589116,1.8392019271850586
-5.89034128189087,-2.005988121032715,3.311971664428711,-1.2916381359100342,3.513346910476685,2.0452170372009277
-4.855134963989258,-0.9865735173225404,1.9993369579315186,-1.3190330266952517,3.812473773956299,2.2171826362609863
-3.6359734535217285,1.247974991798401,0.7021752595901489,-1.372641205787659,3.941298007965088,2.338934659957886
-1.6712348461151123,3.079835653305054,0.6080082654953003,-1.5060704946517947,3.952213048934937,2.35367488861084
2.0106682777404785,3.9208533763885502,2.2797069549560547,-1.5999069213867188,4.040635585784913,2.2401180267333984
5.272621631622315,4.605426311492921,2.46536135673523,-1.4839930534362793,4.239665508270265,1.9811695814132693
7.801584243774414,4.889975547790527,1.0992661714553835,-1.209653615951538,4.328568935394288,1.5842819213867188
10.021199226379396,5.613514423370362,-0.6693063378334047,-0.869441330432892,4.16406011581421,1.1470611095428467
12.83187484741211,6.17374324798584,-2.1781194210052495,-0.6327190995216371,3.804893970489502,0.7432573437690736
15.734033584594727,4.792634963989258,-3.4806270599365234,-0.386956661939621,3.2798423767089844,0.42941057682037354
17.922035217285156,2.926579475402832,-4.539871692657472,0.056547150015830994,2.633548974990845,0.27387338876724243
19.06277656555176,2.585519313812256,-5.013173580169679,0.5408875346183778,1.8752967119216921,0.24996772408485413
20.894546508789062,2.8455646038055424,-3.180544376373291,0.7541871070861816,1.1303173303604128,0.38374757766723633
22.07147979736328,2.624453067779541,-0.2202202528715134,0.6964869499206543,0.7151922583580018,0.6290600895881654
20.914011001586918,1.9573305845260622,1.1339361667633057,0.5643168091773988,0.5880604982376099,0.8783157467842103
17.772743225097656,1.1353938579559326,0.43528419733047485,0.5266427397727967,0.5216183066368104,1.0742135047912598
82.68411254882812,17.905315399169922,25.790227890014652,-2.0883922576904297,-1.0288096666336062,1.4493494033813477
6.876736640930176,15.444376945495607,-3.927374601364136,-0.6959086656570435,3.3860166072845463,-0.030585626140236858
18.04731941223145,-3.338046073913574,22.64997100830078,-1.5271406173706055,2.678289651870728,0.6640806198120117
-8.306983947753906,-4.843191623687745,7.074633121490479,-0.30126142501831055,3.0378217697143555,0.7411287426948548
-5.694757461547852,-3.2525157928466797,15.569706916809084,0.06851854920387268,1.4581743478775027,0.25052177906036377
-7.969662666320801,-8.132498741149904,14.206735610961914,0.2630362808704377,0.18635031580924988,-0.30546385049819946
-0.846651554107666,-3.124112129211426,14.121450424194336,0.22960938513278964,-0.917711615562439,-0.7311173081398011
5.834481716156007,-0.2292456030845642,10.405622482299805,0.13906818628311157,-0.9380443096160889,-0.7862669825553895
10.480175018310547,0.718217432498932,7.401257038116456,0.1770371645689011,-0.6491308212280273,-0.5074142813682557
9.883387565612795,1.503022074699402,6.995610713958741,0.08914392441511156,-0.0676676481962204,-0.2391212284564972
7.152667045593262,0.7425123453140259,8.548219680786133,0.043615423142910004,0.4448898136615754,-0.003892551176249981
4.187169075012207,-1.096030116081238,9.721198081970217,0.05313325673341751,0.5528172254562378,0.09256754070520402
2.9443123340606694,-2.010101795196533,10.132521629333498,0.05876550078392029,0.42958047986030584,0.06773412227630615
3.4398424625396733,-0.8908525705337524,10.163641929626467,0.05973493307828903,0.26346257328987127,0.006833550054579974
4.660395145416261,-0.558545708656311,9.916874885559084,0.041424572467803955,0.1987423747777939,0.009898917749524117
4.561033248901367,-0.6531796455383301,9.577163696289062,0.02529667317867279,0.19823375344276428,0.04338216409087182
4.111863613128663,-0.6600857973098755,9.949786186218263,0.018263202160596848,0.17450769245624545,0.06419365108013153
3.7227947711944585,-0.7840551733970643,10.161774635314943,0.0030738099012523894,0.072834312915802,0.06190645694732666
3.8278732299804688,-1.1412553787231445,9.94035053253174,-0.006670983973890544,-0.025373708456754684,0.0313311479985714
4.362658977508546,-0.7129603028297425,9.775906562805178,-0.018634272739291195,-0.06353563815355302,0.03679179400205612
4.296474456787109,-0.8657292127609253,9.695398330688477,-0.0370737947523594,-0.08034689724445343,0.03857673332095147
4.671285152435304,-0.760627031326294,9.641929626464844,-0.03810463473200799,-0.06780578196048737,0.052222900092601776
4.436632633209229,-1.1574863195419314,9.443679809570312,-0.03112527541816235,-0.05423419922590256,0.056502211838960655
4.338401794433594,-0.8797048330307007,9.7569580078125,-0.026343945413827896,-0.06631119549274445,0.05189749971032143
4.371982574462891,-0.7704769968986512,9.716231346130373,-0.05352560058236123,-0.065461665391922,0.06813626736402513
4.376499176025391,-0.8463692069053651,9.561415672302248,-0.050084084272384644,-0.08470090478658678,0.06340508908033372
4.229446887969972,-0.6943848133087158,9.59040641784668,-0.06752371042966844,-0.09468710422515869,0.06482697278261186
4.279753684997559,-0.7200860977172852,9.76609516143799,-0.08512503653764726,-0.11116909235715867,0.08197712898254395
4.260727882385254,-1.2662887573242188,9.451519012451172,-0.0802922248840332,-0.12390645593404771,0.06642383337020874
4.285137653350831,-0.918987810611725,9.642675399780273,-0.08703932166099548,-0.1306426674127579,0.06153510138392449
4.193315029144288,-1.198064684867859,9.334346771240234,-0.09642639756202698,-0.13886825740337375,0.051979146897792816
3.960629463195801,-1.1811802387237549,9.528247833251953,-0.09781821072101593,-0.15897545218467712,0.030590718612074855
4.27522897720337,-1.2548222541809082,9.494347572326662,-0.1021706983447075,-0.18959113955497742,0.0064996625296771535
4.495187759399414,-0.8449854254722596,9.454463958740234,-0.09371753782033922,-0.1859181821346283,-0.0037489342503249645
4.29780149459839,-1.050781011581421,9.113670349121094,-0.0800417959690094,-0.16842471063137057,-0.013726802542805672
3.952974319458008,-0.7801294326782227,9.626981735229492,-0.0897282585501671,-0.20475988090038302,-0.01248924434185028
4.005498409271241,-1.0967527627944949,9.814268112182617,-0.1016104891896248,-0.261533260345459,-0.022876216098666195
4.407757759094238,-1.5123223066329958,9.513365745544435,-0.08091553300619127,-0.29164648056030273,-0.057065531611442566
4.323264122009277,-1.4547955989837646,9.114118576049805,-0.030640786513686184,-0.30352067947387695,-0.10999184101819993
4.427689075469972,-1.3193023204803467,9.09761714935303,-0.007654566783457995,-0.3068419992923737,-0.14087289571762085
4.142127513885499,-0.9598876833915712,9.542495727539062,0.00858296360820532,-0.3238804340362549,-0.16074176132678988
4.226855754852296,-0.877898097038269,9.821798324584961,0.00795312225818634,-0.3760024011135102,-0.167204424738884
4.224932670593262,-0.6941156387329102,10.104888916015625,-0.010549761354923248,-0.4847585260868073,-0.1695341169834137
4.032876014709473,-1.101898789405823,9.772079467773438,-0.014181093312799932,-0.5902143120765687,-0.17871034145355225
3.85074257850647,-1.369117021560669,9.860775947570803,0.006411917973309756,-0.7427685260772705,-0.21204571425914767
4.572035312652589,-0.888190507888794,9.825185775756836,0.01253869663923979,-0.9138522148132324,-0.20971238613128662
3.8531322479248047,-0.37766408920288086,10.272974967956545,-0.07961271703243256,-1.077921509742737,-0.19775450229644775
3.269643783569336,-0.4673289656639099,10.373682022094727,-0.15746988356113437,-1.3942629098892214,-0.17835387587547302
3.3688135147094727,-2.0003533363342285,10.5386962890625,-0.16816970705986023,-1.6370764970779421,-0.21148496866226196
3.3931164741516113,-0.9942636489868164,10.087018966674805,-0.018466737121343613,-2.0102984905242924,-0.24312378466129306
4.610860347747804,-0.9557509422302246,10.142974853515625,-0.012068889103829862,-2.239133358001709,-0.2826142609119416
4.495007038116456,-0.7336466908454896,9.740075111389162,-0.029342571273446087,-2.5155003070831303,-0.2562532424926758
4.936290740966797,-0.6761307120323182,9.875720024108888,-0.04317448288202286,-2.7736399173736577,-0.2847962975502014
4.9671430587768555,-0.5358989238739014,9.39719009399414,0.0719941481947899,-3.04898738861084,-0.3443376421928406
4.661102294921875,-0.9134690761566162,9.34524440765381,0.22935989499092102,-3.4052293300628667,-0.42023587226867676
4.753170013427734,-0.48157665133476263,9.855228424072266,0.43207445740699774,-3.9467513561248784,-0.43057096004486084
5.956602573394776,-1.7219842672348025,10.413013458251953,0.631161391735077,-4.412539482116699,-0.38963684439659124
8.962949752807617,-2.421089887619019,12.423137664794922,0.7474712729454042,-4.760139465332031,-0.3023676872253418
11.023821830749513,-2.315805435180664,14.382704734802248,0.5868023633956909,-4.838313579559327,-0.2643921375274658
15.760566711425781,-4.158707618713379,15.73902702331543,0.3840000033378601,-4.794685363769531,-0.26986744999885565
25.998001098632812,-2.9782276153564453,15.533301353454592,0.3537812530994416,-4.550515174865723,-0.5598968863487245
32.296791076660156,-1.7917038202285769,7.901118755340577,0.2274633496999741,-4.318556785583496,-1.0596399307250977
35.63003158569337,-3.497675180435181,5.285017967224121,0.6765244007110596,-4.063577175140382,-1.671931266784668
35.28280258178712,-2.360274314880371,6.421839237213136,1.4131591320037842,-3.7766361236572266,-2.2671363353729252
32.58476257324219,3.310001134872437,6.059471130371094,1.6800056695938113,-4.028871536254883,-2.5416710376739506
43.05077362060547,4.6685194969177255,20.883113861083984,0.8369043469429017,-3.273993492126465,-2.674889087677002
28.72911643981934,3.6316392421722417,17.894334793090824,-0.43608090281486517,-1.9492452144622803,-2.4806706905364995
23.04937744140625,1.8597593307495117,15.049602508544922,-1.4898991584777832,-1.402186393737793,-2.41081976890564
15.999847412109375,-1.1296423673629763,12.23429584503174,-1.9966990947723389,-1.1984623670578005,-2.359489917755127
10.469765663146974,-5.028046131134034,10.540863037109375,-1.9877625703811648,-1.2475125789642334,-2.3497252464294434
7.510323524475098,-9.511064529418945,10.447334289550781,-1.1118788719177246,-1.3796378374099734,-2.3388710021972656
5.8359036445617685,-9.82140636444092,11.914309501647951,0.2019989788532257,-1.369279146194458,-2.158925294876099
4.597734928131104,-6.80397891998291,13.556193351745607,1.0736180543899538,-1.0254576206207275,-1.8044999837875368
1.8548221588134766,-4.012005329132081,14.085151672363281,1.3281320333480837,-0.4767611622810364,-1.3190085887908936
-0.6891289949417114,-2.222617864608765,13.845808029174805,1.0624606609344482,0.13484032452106479,-0.846261739730835
-3.1278221607208256,-3.34965181350708,11.938823699951172,0.7439656853675843,0.7407271265983583,-0.44509178400039673
-6.1366591453552255,-4.89982795715332,8.961158752441406,0.7761504650115967,1.1665576696395876,-0.2030172348022461
-7.975992679595948,-5.499676227569581,7.096799850463867,1.0298835039138796,1.3187108039855957,-0.011677710339426994
-7.783162593841554,-4.671510696411133,6.921373844146729,1.1629813909530642,1.3924977779388428,0.24624551832675937
-7.2952117919921875,-3.3269279003143315,7.26141119003296,1.010322451591492,1.572132229804993,0.5964523553848267
-7.995090484619141,-3.121987819671631,6.7230987548828125,0.6967522501945497,1.8593838214874268,0.9616811871528627
-9.157724380493164,-3.759116888046265,5.570114612579347,0.4306061863899231,2.088314771652222,1.3008481264114382
-9.605528831481935,-4.057486534118652,4.346675395965577,0.34951665997505194,2.231598377227783,1.5954905748367312
-9.038616180419922,-2.876898527145386,4.1823744773864755,0.27455443143844604,2.3537721633911133,1.8164974451065066
-7.992282390594483,-1.6424810886383057,4.334620475769043,0.05262593552470208,2.5702667236328125,1.978037476539612
-6.745897769927979,-1.5148253440856934,4.783890724182129,-0.21991890668869019,2.8806908130645756,2.069100618362427
-5.760337352752686,-1.7274165153503418,4.534212589263917,-0.3342707455158234,3.28568172454834,2.0937988758087163
-5.911991119384766,-1.1539398431777956,2.797743797302246,-0.33812278509140015,3.62850284576416,2.046024560928345
-5.796956539154054,0.5176138281822206,1.0822291374206543,-0.4269702434539795,3.7718293666839604,1.9547486305236816
-3.8924825191497807,2.173093318939209,0.7728737592697144,-0.6907778382301332,3.8219823837280273,1.8430705070495605
-1.2109395265579226,2.0615875720977788,1.42187774181366,-0.9328103065490723,3.9135625362396245,1.6736302375793457
1.6023241281509402,1.7848428487777712,2.069075584411621,-0.9468891620635986,4.0957231521606445,1.4308775663375857
4.184863090515137,2.185258388519287,1.988575577735901,-0.8331072926521302,4.2973785400390625,1.1364525556564333
6.25518798828125,2.9064693450927734,1.2508500814437868,-0.7617779374122621,4.384001731872559,0.8276678323745728
8.623536109924318,2.8801205158233647,0.8375150561332704,-0.7237132787704468,4.312830448150636,0.5419390201568604
12.62859630584717,3.595287084579468,1.9320342540740967,-0.7077075839042665,4.14905595779419,0.3253377676010132
17.10763740539551,3.8456387519836426,2.6963086128234863,-0.7662899494171143,4.047490596771241,0.13968512415885925
19.591880798339844,3.3879725933074956,1.2193840742111208,-0.7146605253219604,3.876858472824097,-0.029657298699021343
20.219161987304688,3.271910905838013,-1.5236999988555908,-0.5711971521377563,3.429813623428345,-0.1258373260498047
21.013042449951172,2.9398124217987065,-3.439220905303955,-0.38413846492767334,2.7142081260681152,-0.0853574499487877
21.05880355834961,2.281223058700562,-5.33283281326294,-0.15101273357868197,1.8832285404205322,0.09861110895872117
16.60464859008789,2.3727235794067383,-11.326766967773438,0.08522520959377289,0.8175550103187562,0.37018111348152166
24.984308242797855,12.096683502197266,-19.052740097045902,-0.4104046523571015,-1.1555712223052979,0.7991634011268617
96.86518859863281,26.09060096740723,69.13059234619142,-3.846272706985474,-1.64483916759491,0.978287935256958
-11.455921173095703,7.138283729553223,-19.519187927246094,-0.6541748046875,3.3760731220245366,0.1671561300754547
14.846084594726562,-14.365527153015138,21.906402587890625,-1.215576410293579,2.3175613880157475,1.2808367013931277
-11.830671310424805,0.6065538525581361,11.548851966857912,-0.5588948130607606,1.7681398391723633,0.5711509585380555
-0.36473923921585083,-13.637959480285646,12.968305587768555,-0.0009144210489466786,0.6558191776275635,-0.24110282957553866
-1.2673704624176025,-7.256402015686035,12.484413146972656,0.2657350599765778,-0.2268231213092804,-0.55033677816391
3.216294765472412,-0.09363088011741638,10.826223373413086,0.3883031904697419,-0.41883718967437744,-0.8127979040145874
8.758938789367678,3.1676642894744877,8.753621101379396,0.2694844603538513,-0.41632488369941717,-0.6231753826141357
8.478987693786623,3.5995559692382812,8.026287078857422,0.10654592514038086,-0.14784473180770874,-0.26526436209678655
6.7320008277893075,0.7215598821640015,8.393914222717287,-0.03445557504892349,0.19518502056598666,0.015084024518728256
5.009291648864746,-2.6326937675476074,9.07008171081543,0.010152041912078857,0.3481509983539582,0.03518346324563027
3.673913717269898,-2.464658260345459,9.806582450866701,0.0880088433623314,0.2743797302246094,-0.048168394714593894
4.046379089355469,-0.6448976397514344,9.999428749084474,0.08867701888084412,0.17367041110992432,-0.08430116623640062
4.635011672973633,0.8730242848396302,10.091864585876467,-0.014953163452446462,0.08624638617038727,-0.00547744194045663
4.551979541778565,0.2102846056222916,10.034230232238771,-0.1356095522642136,0.039829082787036896,0.08506913483142853
4.225244522094727,-1.232102870941162,9.796650886535646,-0.15910871326923373,-0.008874956518411636,0.11858654767274858
4.17040777206421,-1.2217050790786745,9.916080474853516,-0.1373974531888962,-0.10316655784845354,0.0846305638551712
4.10779619216919,-0.9303123354911805,9.948158264160156,-0.13829682767391208,-0.20465290546417236,0.05667020753026009
4.311802864074707,-0.74605530500412,9.84310054779053,-0.17000059783458712,-0.2780115008354187,0.057787761092185974
4.653691768646241,-0.49359181523323065,9.744426727294922,-0.19832198321819308,-0.32755047082901,0.06976016610860826
4.384467124938965,-0.8922780752182007,9.645383834838867,-0.231595054268837,-0.37064006924629217,0.07121823728084564
4.460287094116211,-0.5791078805923462,9.87980365753174,-0.26491126418113714,-0.41800767183303833,0.08000028878450395
4.407611370086671,-1.0279054641723633,9.711857795715334,-0.29613131284713745,-0.5091679692268373,0.05810311809182168
4.624992847442628,-1.336594581604004,9.56429195404053,-0.30276539921760565,-0.5321060419082642,0.07428696006536485
4.887057304382324,-0.9159812927246094,9.500432014465334,-0.3192868530750275,-0.5577122569084169,0.08668634295463562
5.048497200012207,-0.8163408041000366,9.26460361480713,-0.3217111825942993,-0.5620803236961366,0.12285839021205902
5.005434989929199,-1.388202428817749,8.94579601287842,-0.30760037899017334,-0.5389207005500795,0.13559411466121676
4.9471940994262695,-1.1135770082473757,9.170529365539553,-0.28747040033340454,-0.5351036190986634,0.13447722792625427
5.044421195983887,-1.4495799541473389,9.107109069824219,-0.2788141071796418,-0.5298048853874208,0.12075923383235931
4.882902622222901,-1.0612788200378418,9.16676139831543,-0.28897652029991155,-0.5295559167861938,0.13074178993701938
5.110406398773194,-1.2465072870254519,9.092302322387695,-0.2902685701847077,-0.5206472873687744,0.1353968381881714
4.947021961212159,-1.85618257522583,8.728600502014162,-0.2568077743053437,-0.510146975517273,0.10888827592134477
5.143280506134034,-1.7903431653976443,8.503123283386232,-0.2353690266609192,-0.4798336625099182,0.085129551589489
5.367732048034668,-1.9349029064178467,8.562976837158203,-0.1887650936841965,-0.4549141526222229,0.03894013538956643
5.275690078735352,-1.6216557025909424,8.804646492004396,-0.164638489484787,-0.40058895945549017,0.03161205723881722
4.85559892654419,-1.9039452075958252,8.945780754089357,-0.13135188817977905,-0.4007649123668671,-0.012994721531867981
5.287892818450929,-1.9509868621826172,8.722881317138672,-0.10535615682601929,-0.39797425270080566,-0.053244072943925864
5.298815727233887,-1.856657385826111,8.593571662902834,-0.05810590088367462,-0.3651773631572724,-0.08925198018550873
5.648006439208984,-1.7533546686172488,8.366870880126953,-0.011521829292178154,-0.3193314969539643,-0.1123650148510933
5.714033603668214,-1.8243186473846436,8.362861633300781,0.01520253997296095,-0.25172704458236694,-0.12908448278903964
5.568764686584473,-1.3322354555130007,8.751239776611328,0.03599337488412857,-0.20779696106910706,-0.13442389667034152
5.067538261413574,-1.438781499862671,8.964238166809084,0.04094221442937851,-0.1914806514978409,-0.14166676998138428
4.920136451721191,-1.673997402191162,8.886290550231935,0.07427675276994707,-0.23246049880981445,-0.17314505577087402
4.924908161163331,-1.6909265518188477,8.772376060485842,0.09471283853054047,-0.3026099503040314,-0.2211380898952484
5.15286684036255,-1.3018509149551394,9.296780586242678,0.11733166873455048,-0.3719463348388672,-0.24539764225482943
4.513522148132324,-1.743791103363037,9.257909774780273,0.13922600448131564,-0.47956621646881104,-0.27755984663963323
4.930410861968995,-1.2679182291030886,9.351682662963867,0.13481196761131287,-0.6398960947990419,-0.3111765086650849
4.971137046813965,-0.7570356726646424,9.594566345214844,0.12886196374893188,-0.7731941342353822,-0.28505539894104004
4.702356815338136,-0.7064144015312196,9.91606330871582,0.10937204211950304,-0.946363389492035,-0.25040173530578613
4.4657559394836435,-1.013134479522705,9.667017936706545,0.10330329835414886,-1.159098267555237,-0.24706071615219116
4.706932544708253,-1.3036376237869265,10.09054946899414,0.10477406531572343,-1.4221620559692383,-0.27781981229782104
4.425753116607667,-1.075815558433533,9.82023811340332,0.13823488354682922,-1.7115331888198855,-0.32264673709869385
5.216048240661621,-0.7897329926490785,9.777864456176758,0.1602264940738678,-2.0292201042175293,-0.34144207835197454
5.108417987823487,-0.6516124606132508,9.49800777435303,0.20546290278434753,-2.335159063339234,-0.3489459156990051
5.094301223754883,-1.01192307472229,9.232002258300781,0.26774916052818304,-2.7110795974731445,-0.3476903438568115
5.164122581481934,-0.3419156074523926,9.464754104614258,0.3326779007911682,-3.1156637668609624,-0.3344157338142395
5.189919471740723,0.3679099380970002,9.936904907226562,0.4041453301906586,-3.59630036354065,-0.27933984994888306
6.594681262969972,-0.5464391708374023,10.863597869873047,0.4198060631752014,-4.052205562591554,-0.11098256707191467
8.710966110229492,-1.664095401763916,11.975139617919922,0.39209240674972534,-4.305497646331788,0.04046461358666421
11.08332633972168,-1.4411442279815674,12.94748306274414,0.17227289080619812,-4.320154666900636,0.1651579737663269
14.240062713623047,-1.879918098449707,13.122716903686523,-0.11063694953918457,-4.146339416503906,0.270932823419571
19.992136001586918,-3.5512704849243164,14.545138359069826,0.05025787651538849,-3.858611345291138,0.27138662338256836
23.411331176757812,-5.092952251434327,11.439279556274414,0.5809890627861024,-3.4368624687194824,0.07831056416034698
25.664964675903324,-4.418963432312012,5.600091457366944,1.140355110168457,-3.409430265426636,-0.3233429193496704
27.014257431030277,-3.552997589111328,3.259100198745728,2.0201208591461186,-3.635238885879517,-0.9091678857803345
27.307264328002933,-2.0155503749847417,5.241765975952148,2.508103370666504,-3.732232809066773,-1.3568165302276611
27.935012817382812,-0.15210938453674316,5.712729930877686,2.8251638412475586,-4.252923488616944,-1.9505556821823122
37.13498306274415,0.8837127685546875,17.836105346679688,2.4328107833862305,-3.9169104099273686,-2.022205352783203
26.092140197753906,1.4567342996597292,15.21003818511963,1.5863803625106814,-3.0979077816009526,-1.8919310569763184
23.498462677001953,0.9575340747833252,14.652433395385742,0.6942614912986756,-2.8497562408447266,-1.8877447843551638
19.806364059448246,0.32860296964645386,13.78870487213135,-0.03543207049369812,-2.671169519424439,-1.9104725122451784
17.89949989318848,-0.15376086533069613,14.038275718688967,-0.6937742829322816,-2.526309013366699,-1.977762818336487
16.976078033447266,-1.1544458866119385,15.025111198425295,-1.170400619506836,-2.1567301750183105,-2.0499408245086674
15.649892807006836,-3.266205310821533,15.973134994506836,-1.5014808177947998,-1.42733371257782,-2.02803897857666
12.14614772796631,-7.7545270919799805,15.212303161621094,-1.24725878238678,-0.561750054359436,-1.8790004253387451
7.2331438064575195,-9.337157249450685,14.188345909118654,-0.26370915770530706,0.15159153938293457,-1.7417954206466677
4.151877403259277,-7.847970008850098,13.390067100524904,0.6075595021247865,0.76682847738266,-1.5430717468261719
-0.1282319724559784,-5.22542667388916,11.809315681457521,1.0457696914672852,1.26928985118866,-1.3236329555511475
-3.711988210678101,-3.308588981628418,9.361077308654787,1.0161447525024414,1.6897391080856325,-1.0857170820236208
-5.567422866821289,-1.8543781042099001,8.08164691925049,0.6256996989250184,1.973846197128296,-0.8619251847267152
-6.804643154144288,-2.2855048179626465,6.721010208129883,0.14594267308712008,2.244913816452027,-0.6528123617172241
-8.325549125671388,-4.16934871673584,4.729983329772949,-0.0675242692232132,2.3954584598541264,-0.482647180557251
-9.499596595764162,-5.223902702331543,3.0259044170379643,0.0045015402138233185,2.4003198146820073,-0.2736979424953461
-9.683320045471193,-4.458826065063477,2.632051467895508,0.08277062326669694,2.309192180633545,-0.003877327078953386
-8.266186714172365,-3.4378743171691895,3.7493724822998047,-0.08063258230686188,2.3460559844970703,0.33733406662940985
-7.474862575531007,-3.4850869178771973,3.701545953750611,-0.33003175258636475,2.611214876174927,0.6615563631057739
-8.421401023864748,-3.63550877571106,1.934722900390625,-0.4632610380649567,2.835860252380371,0.925396203994751
-8.691748619079592,-2.846704721450806,0.3298092186450959,-0.5681263208389282,2.879372835159302,1.171459436416626
-7.805264472961426,-2.0524756908416752,-0.027663838118314743,-0.7287628054618837,2.8500936031341557,1.389465093612671
-5.758899688720703,-1.5195817947387695,1.0845420360565186,-0.9215844869613647,2.9210135936737065,1.5889885425567627
-3.7582144737243652,-1.1326813697814941,1.9501264095306396,-1.032046437263489,3.1885452270507812,1.7510790824890137
-2.7514526844024663,-0.19433292746543884,1.7030419111251833,-1.0615642070770264,3.5113661289215092,1.8503658771514893
-1.8677219152450564,1.562080502510071,1.071292042732239,-1.132253885269165,3.7436790466308594,1.8735128641128542
-0.2640784084796906,2.954394102096558,0.5747671723365785,-1.2638299465179443,3.8893344402313237,1.8039028644561768
1.931371331214905,3.592449188232422,0.4349285364151001,-1.3442695140838623,3.9572327136993413,1.6347199678421023
4.5239667892456055,3.5813667774200444,0.8994812965393066,-1.2315330505371094,4.00369691848755,1.3790538311004639
6.926685810089112,3.3446640968322754,0.8266448974609375,-0.8933333754539491,4.067158222198487,1.0317652225494385
8.951343536376953,3.8314707279205327,-0.012996938079595566,-0.5137018561363221,4.0185394287109375,0.662837326526642
11.05251216888428,3.8161814212799077,-0.7420128583908081,-0.27451032400131226,3.7827007770538335,0.4088486731052399
13.071496963500977,2.6726543903350835,-0.9584536552429199,-0.0133953457698226,3.420854091644287,0.29749557375907904
15.30156993865967,2.864774703979492,-0.0732773318886757,0.25697338581085205,3.0634350776672363,0.3080959022045136
16.71982192993164,3.898531913757324,0.37702810764312744,0.3231577575206757,2.79170560836792,0.42530193924903875
16.870191574096683,4.0326385498046875,-0.48581916093826294,0.2365197688341141,2.463883876800537,0.6112320423126221
15.869250297546388,3.7725563049316406,-3.2509105205535893,0.1755972653627396,1.9856233596801758,0.8584411740303041
14.725278854370117,9.85799789428711,-18.429019927978516,0.11965145170688629,0.9907324314117432,0.9238677620887757
72.92344665527344,22.48715591430664,2.037544965744019,-3.395608186721802,-4.994864463806152,0.2320603281259537
58.70063781738281,13.737833976745607,33.508636474609375,-1.8477346897125244,4.848418712615968,1.2943762540817263
-1.6592255830764773,-0.7490214705467225,-1.1971607208251953,-2.036010026931763,1.7083988189697266,2.330537080764771
1.3025858402252197,9.917098999023438,20.062820434570312,-1.301913142204285,3.4978072643280034,1.7493131160736084
-17.564067840576172,-19.292644500732422,11.256848335266115,-1.0114035606384277,2.4793837070465092,0.5506707429885864
6.779417037963867,-24.67361831665039,12.417275428771974,0.20543526113033297,0.853664755821228,-0.2958015203475952
-1.8675764799118044,-3.6341710090637207,12.57134532928467,0.732545018196106,0.163517102599144,-0.6952815055847168
2.002017736434937,-0.6602250933647157,10.752623558044435,0.6653281450271606,-0.17592564225196838,-1.0249747037887575
8.51058864593506,8.630063056945803,9.768412590026857,0.5173009634017944,-0.336289793252945,-0.7378765344619751
8.651278495788576,6.358499526977539,9.111442565917969,-0.018126135692000393,-0.04534119367599487,-0.12958085536956787
6.826041221618652,1.3784793615341189,8.771402359008789,-0.17906975746154785,0.2669548690319062,0.19770440459251404
4.607702255249023,-5.487954616546632,8.355257034301758,-0.14214244484901428,0.434287965297699,0.16645802557468417
3.3007485866546635,-3.72142767906189,9.605985641479492,0.10974817723035814,0.34564900398254395,-0.022320402786135677
3.826088190078736,-0.5163734555244447,10.174941062927248,0.11938422173261644,0.20452681183815002,-0.10003884136676788
4.74323844909668,1.4955986738204958,10.295664787292482,0.0011008222354575994,0.11567497253417969,-0.012763245962560179
4.619117736816406,0.23784178495407104,9.727558135986328,-0.140258863568306,0.10129524022340776,0.10662098228931427
3.918461799621582,-1.434901833534241,9.818685531616211,-0.16513271629810336,0.06710575520992279,0.1266041547060013
3.6925942897796635,-1.6736891269683838,10.055809020996094,-0.1345474123954773,-0.06013811752200127,0.07343716174364091
3.99037504196167,-1.1452362537384033,9.93807125091553,-0.10429208725690843,-0.18996137380599976,0.010578176937997343
4.701632022857667,-0.827975869178772,9.613121032714844,-0.11886970698833466,-0.2169789969921112,0.009631090797483923
4.907001972198487,-0.919715702533722,9.306726455688477,-0.12246376276016235,-0.19224451482295993,0.028161421418190002
4.947778224945069,-1.1369668245315554,9.381591796875,-0.09130717813968658,-0.14299111068248752,0.03022531978785992
4.713090419769288,-1.6229261159896853,9.273933410644531,-0.0673116222023964,-0.09045477211475372,0.03837378695607186
4.792227268218995,-1.1860871315002441,9.498152732849123,-0.027448054403066635,-0.07580359280109406,0.01900035329163075
4.723020553588867,-1.277684569358826,9.382540702819826,-0.02623151056468487,-0.03470681607723236,0.03021318279206753
4.869064807891847,-1.2078424692153933,9.392202377319336,-0.006450833287090064,0.004152335226535797,0.030731216073036194
4.923894405364991,-1.2553436756134033,9.320152282714844,0.03695981204509735,0.056058134883642204,0.026324953883886337
5.042314529418945,-1.4126358032226562,9.260865211486818,0.08998470753431322,0.12017799168825151,0.02045154944062233
4.9062299728393555,-1.322273373603821,9.379994392395021,0.13224467635154724,0.173101082444191,0.020472675561904907
4.79898738861084,-1.1538915634155273,9.505191802978516,0.14706297218799594,0.21314489841461182,0.03083799034357071
