AccX,AccY,AccZ,GyrX,GyrY,GyrZ
2.718122232181486e-05,-5.531383976631332e-06,6.503839540528135e-05,2.0331327732492355e-08,-3.2713455055954916e-08,-6.668463470305142e-08
4.046369552612305,-0.8414953351020814,9.73502826690674,0.002582065761089325,-0.006546329706907272,-0.011338162235915663
4.0754456520080575,-0.8112421035766602,9.774486541748047,0.0004163240955676884,-0.008983174338936806,-0.010451204143464567
4.054586410522461,-0.8213594555854798,9.750269889831545,0.0001940173242473975,-0.010880718007683754,-0.009156951680779457
4.061872005462647,-0.8377055525779725,9.751825332641602,-0.0016384107293561103,-0.011033395305275917,-0.009183171205222608
4.056866168975831,-0.8222122192382812,9.713328361511232,0.000184818753041327,-0.009841404855251312,-0.008983201347291471
4.077337265014648,-0.8143511414527894,9.766227722167969,0.0009465721668675542,-0.011637418530881407,-0.011326415464282036
4.084267139434815,-0.8284225463867188,9.759636878967287,0.0001662275608396158,-0.009834298864006996,-0.009298421442508698
4.081705093383789,-0.8171680569648744,9.753437995910646,0.0013085169484838846,-0.007631479762494564,-0.010442153550684454
4.052336692810059,-0.8136714100837709,9.743389129638672,0.0020746996160596613,-0.006166057195514441,-0.008888043463230133
4.050971984863281,-0.8407779932022095,9.716279029846193,0.0037654158659279346,-0.004594396334141494,-0.007907092571258545
4.059561252593995,-0.8376249670982362,9.747880935668945,0.004043366294354201,-0.005899325013160706,-0.010911550372838974
4.043753623962402,-0.7999182939529419,9.748666763305664,0.0027172230184078217,-0.004942271392792464,-0.011063188314437866
4.029521465301515,-0.8323327898979188,9.7738037109375,0.0030725661199539904,-0.007351010572165252,-0.013811884447932243
4.084275722503663,-0.8001793026924134,9.75692653656006,0.0024850652553141117,-0.009610597975552084,-0.01281830109655857
4.056485176086426,-0.808610498905182,9.76101589202881,0.00175005488563329,-0.010471466928720474,-0.010087519884109497
4.07187557220459,-0.826077163219452,9.770054817199709,0.0008260358590632677,-0.010800835676491262,-0.011111816391348839
4.081628799438477,-0.8101910352706909,9.777976989746094,0.0010123555548489094,-0.009265601634979248,-0.00965563114732504
4.081951618194581,-0.8054433465003968,9.746607780456545,0.0012023855233564975,-0.009762583300471306,-0.010010003112256529
4.074729919433594,-0.8183677196502686,9.75544548034668,0.0020039165392518044,-0.007303846534341575,-0.00804788898676634
4.07291078567505,-0.819770634174347,9.742983818054201,0.0015863144071772697,-0.002695671748369932,-0.009983959607779981
4.045275211334229,-0.8221017122268677,9.73327159881592,0.0025940935593098406,-0.0032246352639049296,-0.008814206346869469
4.068946838378906,-0.8196318745613099,9.771668434143068,0.0031577767804265022,-0.00446574715897441,-0.009768988937139511
4.040590286254883,-0.810125768184662,9.745224952697756,0.0020590007770806555,-0.005502532236278057,-0.00926368497312069
4.065865516662598,-0.8427208065986634,9.742093086242678,0.0018197253812104464,-0.008115497417747976,-0.009043013677001
4.058828353881836,-0.8155709505081177,9.749862670898438,0.003714477177709341,-0.00794944353401661,-0.01152125094085932
4.089450359344483,-0.8005948066711426,9.748854637145998,0.003167300019413233,-0.006687158253043891,-0.010075747966766357
4.06291389465332,-0.8145220279693604,9.761804580688477,0.0013424531789496543,-0.0053222645074129105,-0.009824976325035095
4.077384948730469,-0.8025252223014833,9.755870819091797,0.0013210446340963247,-0.004387822933495045,-0.006755033042281867
4.069710731506348,-0.8223374485969545,9.735247611999513,0.0020445683039724827,-0.0029470319859683514,-0.007878060452640058
4.044001579284668,-0.8133552074432373,9.760473251342773,0.0015984004130586984,-0.003002388868480921,-0.007923484779894354
4.041705608367921,-0.8310388326644897,9.744218826293945,0.0023503433912992477,-0.004226682242006064,-0.007838047109544279
4.035141944885254,-0.826019585132599,9.730722427368164,0.0024697061162441973,-0.003888435661792755,-0.009408141486346723
4.020055770874023,-0.8099104762077333,9.72683620452881,0.004635337740182877,-0.004262868314981461,-0.01063640881329775
4.085345268249512,-0.814765214920044,9.755412101745607,0.0017102264100685718,-0.00517057441174984,-0.010850447230041029
4.0661025047302255,-0.7923688292503358,9.738022804260256,0.00232798233628273,-0.005694270599633456,-0.012045566923916342
4.070083141326905,-0.7746021151542665,9.769631385803224,0.0015613804571330547,-0.004820161033421756,-0.00834057666361332
4.045134067535401,-0.7867226004600526,9.774418830871584,-0.0030236169695854187,-0.0051842620596289635,-0.00520247919484973
4.041886329650879,-0.8232182860374452,9.739435195922852,-0.0025991187430918217,-0.006628393661230803,-0.004227104596793652
4.044456005096436,-0.8394888043403627,9.742134094238281,-0.0007043189834803343,-0.008044403977692129,-0.006012653466314078
4.086970329284668,-0.8204232454299927,9.754144668579102,-0.0014431392773985863,-0.0061206002719700345,-0.007987730205059052
4.054142475128175,-0.8357115983963013,9.73628044128418,-0.0009093753178603948,-0.005315950606018306,-0.007026384584605694
4.050163745880128,-0.8479223251342773,9.731190681457521,-0.000995834358036518,-0.0031938191968947653,-0.007362963631749153
4.014278411865234,-0.8524078130722046,9.713520050048828,0.002608488779515028,-0.005922968033701182,-0.008839654736220838
4.0321197509765625,-0.8380241394042969,9.732868194580078,0.0034616999328136444,-0.005788444075733424,-0.011043762788176537
4.026438236236573,-0.8369967341423036,9.779173851013185,0.0042448388412594795,-0.006824915297329426,-0.012763929553329946
4.041614532470703,-0.8130199313163758,9.757030487060547,0.0024520079605281353,-0.006688807625323535,-0.012645168229937553
4.064823150634766,-0.8217679858207704,9.757804870605469,0.0041663176380097875,-0.007676689885556698,-0.011732837185263634
4.071216583251953,-0.8124129772186279,9.75344467163086,0.0020510524045675997,-0.006823173724114895,-0.011937900446355345
4.034473419189453,-0.795505166053772,9.73501205444336,0.002967554843053222,-0.009191907010972502,-0.012054933235049248
4.04425859451294,-0.8108534812927246,9.753376960754396,0.001326495548710227,-0.009860749356448652,-0.010773302987217903
4.049715042114258,-0.8226419091224672,9.767479896545412,-0.0007974785403348507,-0.010289289057254791,-0.008158698678016663
4.049264907836914,-0.833796501159668,9.732742309570312,-0.001383086433634162,-0.008574330247938635,-0.008544281125068665
4.049687862396241,-0.8294816017150879,9.742197036743164,0.0024019756820052867,-0.009325715713202955,-0.010560723021626472
4.063538551330566,-0.8129953742027284,9.760114669799805,0.0011135237291455269,-0.007482147309929133,-0.00815337710082531
4.056240081787109,-0.8257215023040771,9.75527572631836,0.001186967012472451,-0.00580059178173542,-0.008580479770898819
4.051695346832276,-0.8230384588241577,9.764679908752443,0.0031693815253674984,-0.006212662439793349,-0.010270021855831146
4.02234983444214,-0.8541491627693177,9.762585639953615,0.0038051148876547813,-0.006718495860695839,-0.010826156474649908
4.055368900299073,-0.8192875385284424,9.778736114501953,0.003513291012495756,-0.00830505881458521,-0.011296387761831284
4.049573421478272,-0.8076454997062684,9.749304771423342,0.0036444286815822124,-0.006953816395252944,-0.010159186087548734
4.039642810821534,-0.7982006669044496,9.731541633605959,0.0025877172593027358,-0.008374365046620369,-0.011428347788751127
4.032350540161133,-0.8176661729812622,9.774639129638672,0.0017217391869053247,-0.008822736330330374,-0.010031431913375854
4.062422752380371,-0.8134472966194154,9.737156867980959,0.0007064258679747581,-0.006908330600708724,-0.010738873854279518
4.04656744003296,-0.7981585264205933,9.75105953216553,0.002042212523519993,-0.0077633955515921125,-0.008443797938525678
4.030591487884522,-0.7976682186126709,9.7152099609375,0.0015306202694773674,-0.006948769558221103,-0.006970284506678581
4.065598011016847,-0.8361527919769287,9.747013092041016,0.0005139969289302826,-0.005260935053229332,-0.008079149760305883
4.029248714447022,-0.7991122007369995,9.74272346496582,0.0005126337637193502,-0.004813546314835548,-0.0072891642339527616
4.017967224121094,-0.8426169753074647,9.764769554138185,0.001313755405135453,-0.007887624204158783,-0.0088924840092659
4.054041385650636,-0.8100508451461792,9.737708091735842,0.0006237566703930497,-0.009302512742578985,-0.010643146932125092
4.055009365081788,-0.8175549507141113,9.757992744445803,0.002325082896277309,-0.008927167393267156,-0.009354807436466217
4.04620122909546,-0.8188778162002563,9.757912635803224,0.0014072384219616652,-0.009754107333719732,-0.009472893550992012
4.0720229148864755,-0.8256884217262269,9.728138923645021,0.0017082410631701352,-0.007487346418201923,-0.009923717007040977
4.050274848937988,-0.8329384326934814,9.767932891845703,0.0012779876124113798,-0.006060081999748946,-0.00969463586807251
4.047581672668457,-0.8250799775123597,9.777554512023928,9.612458234187216e-05,-0.007057366892695427,-0.009394389577209951
4.0618863105773935,-0.8285318613052368,9.760075569152834,-0.0003340972180012614,-0.008757498115301132,-0.008687975816428663
4.069185733795167,-0.7754264473915101,9.760419845581055,-0.001298435963690281,-0.00905775371938944,-0.008708707056939604
4.048327922821046,-0.7786675691604614,9.761105537414553,-0.0009055471164174379,-0.006642049178481102,-0.008551183156669142
4.041043281555176,-0.848089337348938,9.737885475158693,-0.00028228911105543375,-0.007184479385614395,-0.008052808232605459
4.029940605163574,-0.8112870454788208,9.77955436706543,-0.0009232624433934689,-0.009897696785628797,-0.008953157812356949
4.043227672576905,-0.8250786066055298,9.739612579345703,0.00030381625401787465,-0.01073642261326313,-0.01121523231267929
4.046961784362793,-0.8198553919792176,9.801057815551758,-4.1813007555902004e-05,-0.01203200872987509,-0.008278671652078629
4.0677809715271005,-0.8037949800491333,9.767027854919435,-0.0013616544893011453,-0.013708014972507955,-0.0071539441123604774
4.037034511566163,-0.7697380781173706,9.749257087707521,-0.00429547904059291,-0.013996371999382973,-0.006404887419193984
3.9854841232299805,-0.8024282455444336,9.756935119628906,-0.008352123200893402,-0.017476713284850124,-0.005850854795426131
4.059492111206055,-0.8278870582580566,9.771504402160646,-0.009960222989320755,-0.01919990219175816,-0.003721041139215231
4.052623748779297,-0.8031517863273622,9.750991821289062,-0.014054310508072378,-0.01990044675767422,-0.0050605181604623795
4.049164295196534,-0.7935800552368164,9.729028701782227,-0.012831522151827812,-0.017366962507367138,-0.0025465930812060833
4.08533525466919,-0.8740885257720947,9.722466468811037,-0.012292910367250443,-0.01670254580676556,-0.00464486749842763
4.045825004577637,-0.8557643294334413,9.721662521362305,-0.007312086410820484,-0.014696565456688406,-0.005136730149388313
4.063525676727296,-0.8759193420410156,9.710133552551271,-0.0040827817283570775,-0.012423881329596044,-0.005288451910018921
4.011499404907227,-0.8756535053253174,9.742869377136232,-0.0028339305426925425,-0.012836715206503868,-0.008820449002087118
4.079403877258301,-0.8715164065361024,9.727310180664062,0.0005330743151716889,-0.011617390438914299,-0.008653804659843445
4.043323516845703,-0.8275301456451416,9.740653038024904,0.000859295716509223,-0.009756297804415228,-0.010267311707139015
4.050899505615234,-0.8333340883255005,9.767981529235842,0.0006054439581930637,-0.010005297139286995,-0.009302577935159208
4.039288043975831,-0.8234982490539551,9.743108749389648,-0.001395980129018426,-0.006916618440300227,-0.007883869111537933
4.01953935623169,-0.8350051045417787,9.744422912597656,-0.001615138608030975,-0.009653119370341301,-0.010555276647210121
4.025734424591065,-0.8433451652526855,9.728099822998047,-0.0016453838907182217,-0.0106995040550828,-0.00962565653026104
4.048477649688722,-0.8310326337814331,9.738157272338867,-0.0010185318533331156,-0.015073059126734734,-0.010439905337989332
4.059882164001465,-0.8226394653320312,9.784979820251467,-0.0027338406071066856,-0.013541377149522306,-0.010002925992012024
4.049582481384277,-0.8515822291374208,9.749004364013672,-0.00227329065091908,-0.012571422383189201,-0.009498530998826027
4.08276128768921,-0.8510785102844238,9.754881858825685,0.0008308400865644217,-0.008370711468160154,-0.00935998186469078
4.0548505783081055,-0.8614827394485474,9.737555503845217,0.001815296709537506,-0.004536999389529228,-0.009749860502779486
4.062685489654542,-0.8719384074211122,9.753640174865724,0.00605918001383543,-0.002580013824626804,-0.01145109347999096
4.055150508880616,-0.8694806098937988,9.75333881378174,0.009555220603942871,-0.002192785264924169,-0.011922347359359266
4.061654090881348,-0.8135513663291932,9.757714271545412,0.009855222888290884,0.00012713391333818436,-0.011639718897640707
4.054551124572754,-0.8645310401916504,9.739089012145998,0.011934984475374222,0.004963401705026627,-0.012839230708777906
4.024806022644043,-0.8089509010314941,9.748772621154787,0.011955960653722288,0.003128532785922289,-0.012180713005363943
4.032654285430909,-0.8438220024108887,9.761250495910646,0.013496921397745611,0.002055421005934477,-0.01459386944770813
4.014634609222413,-0.8558399081230165,9.762407302856445,0.012090262956917288,-0.0007072021253407001,-0.012228394858539106
4.035017013549805,-0.8134151697158813,9.800182342529297,0.00938266795128584,-0.0034167955163866286,-0.013790005818009377
4.044940948486328,-0.8227102756500244,9.787573814392092,0.007514474447816611,-0.004967331886291504,-0.012426014058291914
4.061088562011719,-0.8084251880645752,9.758264541625977,0.005282364785671234,-0.007625803817063571,-0.012604725547134878
4.059419631958008,-0.8203037977218628,9.743258476257326,0.005229601170867682,-0.004752284847199917,-0.010246586985886099
4.081816196441651,-0.7921285629272461,9.766728401184084,0.006182419136166573,-0.0013670388143509626,-0.009701925329864027
4.044085502624512,-0.7885256409645082,9.751770973205568,0.007788193412125111,0.0016950812423601749,-0.00896291621029377
4.048794746398926,-0.857215404510498,9.75748062133789,0.005485513247549534,0.00046859690337441867,-0.00780579959973693
4.010209083557129,-0.8349257707595825,9.774604797363281,0.006120368372648955,0.0001730073126964271,-0.008256600238382818
4.032871246337891,-0.811680793762207,9.763153076171875,0.006321898195892573,-0.0020282336045056586,-0.008874736726284027
4.030090808868409,-0.7876310944557191,9.733336448669435,0.0035093820188194518,0.00035684247268363833,-0.005969495046883822
4.011884212493897,-0.8216670751571655,9.750887870788576,0.0008763800724409522,-0.0026435712352395058,-0.009113311767578125
4.049799919128418,-0.8180174827575684,9.771299362182617,-0.00025719922268763185,-0.003798521822318435,-0.007878603413701057
4.038439750671387,-0.8521339893341064,9.771695137023928,0.0008163737365975976,-0.006040552631020546,-0.007640235591679812
4.056560516357422,-0.7916863560676576,9.776985168457031,0.0005089588230475783,-0.006041731219738723,-0.008760547265410423
4.049032211303711,-0.8137988448143006,9.739787101745607,-0.0001305159239564091,-0.00325801013968885,-0.005695771891623736
4.04781436920166,-0.8478331565856934,9.721391677856445,0.0021195497829467063,-0.0008715174626559019,-0.00664225546643138
4.046720981597901,-0.8108665943145752,9.76734256744385,0.0010720544960349798,9.978098387364298e-05,-0.005266989115625621
3.9947099685668945,-0.8322503566741943,9.783369064331055,0.0005255317082628608,0.001189987291581929,-0.005132058635354042
4.007892131805421,-0.84253990650177,9.776686668395998,0.002247253432869911,-0.0019503164803609254,-0.0055091273970901975
3.997321605682373,-0.830514669418335,9.737911224365234,0.0010546079138293865,-0.0030735009349882603,-0.007409317884594203
3.9388513565063477,-0.8600084781646729,9.763359069824219,0.00048021026304923003,-0.007260700222104789,-0.011804619804024696
4.026444911956788,-0.8238611221313477,9.771277427673342,0.0002769601414911449,-0.013137104921042921,-0.013082414865493774
4.013636112213136,-0.7755544185638428,9.779232978820803,-0.0025571763981133704,-0.016869835555553436,-0.012239286676049232
4.0392422676086435,-0.8056579232215882,9.797118186950685,-0.005656665656715632,-0.01847163960337639,-0.009635978378355505
4.026958465576172,-0.7550517916679383,9.754445075988771,-0.008168767206370832,-0.019036276265978817,-0.009841710329055786
4.024566173553468,-0.8661514520645142,9.777294158935547,-0.00923175271600485,-0.02227887138724327,-0.009111492894589903
4.011844158172608,-0.8341017961502075,9.762472152709961,-0.007619114127010108,-0.020962130278348923,-0.01090199127793312
4.001239299774171,-0.8322414755821229,9.758032798767092,-0.007989205420017242,-0.021685665473341945,-0.010328516364097595
4.027891159057617,-0.8550914525985718,9.774980545043945,-0.006948503665626049,-0.024252701550722122,-0.012025333009660246
4.011662960052491,-0.8323782086372377,9.76577663421631,-0.005060424096882343,-0.025548612698912624,-0.01508018933236599
4.052096366882324,-0.8368834257125854,9.772025108337404,-0.0038712951354682446,-0.02671385742723942,-0.015520387329161169
4.065519809722901,-0.8137471079826356,9.787181854248047,-0.003560609417036176,-0.025256488472223282,-0.0148146552965045
4.079989910125733,-0.8053650856018066,9.757734298706055,-0.0016669887118041515,-0.023090697824954987,-0.014793456532061102
4.092843055725098,-0.820167064666748,9.776905059814453,-0.0002321327629033476,-0.017508519813418392,-0.013349471613764763
4.073064327239991,-0.8288917541503906,9.767079353332521,-0.0010894552106037738,-0.013964438810944557,-0.013953931629657745
4.045888423919679,-0.8452432155609131,9.75811767578125,0.001552072004415095,-0.011479893699288368,-0.012967309914529325
4.026935100555421,-0.8264380693435669,9.750231742858888,0.0009339351672679186,-0.00883406586945057,-0.011679326184093954
4.012181758880616,-0.8514875173568726,9.760000228881836,0.001860249903984368,-0.008916148915886879,-0.012144616805016996
3.9936354160308842,-0.8514910340309144,9.74987316131592,0.0028423576150089507,-0.013549190014600754,-0.014070091769099236
4.042651176452637,-0.8769416213035585,9.786278724670412,0.003162382869049907,-0.016794878989458084,-0.016665520146489147
4.044808864593507,-0.8175559639930726,9.774616241455078,0.0035839776974171404,-0.018559699878096584,-0.01714160665869713
4.09186887741089,-0.8269889950752259,9.773740768432617,0.002519214758649469,-0.018328316509723663,-0.015921989455819133
4.0758118629455575,-0.7993193268775941,9.765772819519045,0.001567305065691471,-0.01718358881771565,-0.01457402389496565
4.068846702575684,-0.8383827805519105,9.750295639038086,0.0022826984059065585,-0.012894216924905777,-0.012279427610337736
4.086963176727296,-0.8297611474990845,9.757030487060547,0.003266934771090746,-0.00999218039214611,-0.010982451029121877
4.06722354888916,-0.8329020738601685,9.756484031677248,0.0029957150109112263,-0.008961305953562261,-0.010831443592905998
4.070673942565918,-0.8257169127464296,9.74939823150635,0.0038078157231211662,-0.006843632552772761,-0.01059760805219412
4.048854351043702,-0.8355382680892944,9.753847122192383,0.005676360335201026,-0.0035267751663923264,-0.010283553041517736
4.018143177032472,-0.8408715128898622,9.735128402709961,0.004426208324730396,-0.00432146992534399,-0.011891438625752928
4.010544776916504,-0.8775848150253296,9.777276992797852,0.008904626592993736,-0.0077009820379316815,-0.014181315898895264
4.011230945587159,-0.8396083116531372,9.790341377258303,0.01038617454469204,-0.010596045292913915,-0.017125444486737255
4.064636707305909,-0.8070854544639589,9.777288436889648,0.007976883091032507,-0.011649210005998611,-0.01613854803144932
4.061368942260742,-0.7781402468681337,9.802435874938967,0.0053823357447981834,-0.012069972231984138,-0.012319167144596578
4.069864749908448,-0.7984731197357178,9.769014358520508,0.002054278738796711,-0.0098097687587142,-0.008903112262487411
4.064507961273194,-0.8146411180496216,9.778035163879396,0.0026970235630869865,-0.008998914621770384,-0.009873089380562307
4.0748305320739755,-0.8098904490470887,9.778941154479982,0.0029690915253013377,-0.0064117154106497765,-0.007854712195694448
4.069478511810304,-0.797924280166626,9.766308784484865,0.0012694355100393295,-0.003184635192155838,-0.006484664510935546
4.077089786529542,-0.7828648090362549,9.770789146423342,0.0019497789908200502,-0.0029191083740442996,-0.005105533637106419
3.989065647125244,-0.858952820301056,9.739891052246094,0.001109855133108795,-0.002007081639021635,-0.0057996585965156555
4.011346340179444,-0.8558444380760194,9.744831085205078,0.0005096268723718823,-0.005854080431163311,-0.008820374496281149
4.026355266571046,-0.8031047582626343,9.789483070373537,0.0005866026622243227,-0.005831431131809951,-0.009499717503786087
4.050963401794434,-0.7761852145195008,9.726959228515625,0.0007889107801020145,-0.007221303414553405,-0.008175814524292946
4.021364688873292,-0.7902556061744691,9.778445243835451,-0.004059063736349345,-0.009174952283501625,-0.006246413104236126
3.9977557659149174,-0.8293609023094178,9.770803451538086,-0.006370013579726219,-0.015768131241202358,-0.007704953663051128
4.047430992126465,-0.8420213460922241,9.778778076171875,-0.007515904027968646,-0.01911185868084431,-0.008439334109425545
4.036336421966554,-0.8272982239723207,9.776726722717287,-0.006483419332653285,-0.01945454627275467,-0.008103509433567526
4.015372753143311,-0.7744163870811464,9.751358032226562,-0.005064594093710185,-0.022323179990053177,-0.00948651134967804
4.0337538719177255,-0.8596923947334291,9.767742156982422,-0.0064203739166259766,-0.023497825488448146,-0.010860973969101906
4.018750667572022,-0.7898661494255067,9.721446990966797,-0.00575387105345726,-0.02481161057949066,-0.012357800267636778
3.9321656227111816,-0.8512080311775209,9.689352035522461,-0.005621291697025299,-0.03218961879611016,-0.018014419823884964
3.962681770324707,-0.8925997614860536,9.765207290649414,-0.00565066933631897,-0.0388784371316433,-0.024522995576262478
3.9538021087646484,-0.8342273831367494,9.761520385742188,-0.0071751996874809265,-0.048398654907941825,-0.02985089272260666
4.023880481719972,-0.7856301069259644,9.806611061096193,-0.007295504212379456,-0.056243568658828735,-0.03236731514334679
4.022054672241211,-0.8101940155029297,9.763312339782717,-0.012197775766253471,-0.05905886366963387,-0.028706911951303482
4.076310157775879,-0.8047012090682983,9.765089988708498,-0.014019708149135114,-0.06323593854904175,-0.029877424240112305
4.044270992279054,-0.7923169136047363,9.721287727355959,-0.0174872986972332,-0.05944434180855752,-0.028504114598035812
4.0369768142700195,-0.8527533411979676,9.736225128173828,-0.014518938027322294,-0.06146283820271493,-0.03263576328754425
4.049970149993897,-0.8712155222892762,9.743597030639648,-0.013088628649711609,-0.06318669766187669,-0.03585066646337509
4.113604545593262,-0.8660680055618286,9.773732185363771,-0.011676914989948273,-0.0639031156897545,-0.039418231695890434
4.139238357543945,-0.7729510664939881,9.735376358032227,-0.011937047354876997,-0.05981487035751343,-0.03914109244942666
4.046658992767335,-0.8194997310638428,9.714408874511719,-0.012232394888997078,-0.05831187963485718,-0.03633623942732812
3.900967359542847,-0.9858023524284364,9.74683952331543,-0.009695477783679962,-0.0645124986767769,-0.0447390079498291
4.100088119506836,-0.9872089624404907,9.770405769348146,0.003665739437565208,-0.06137467920780182,-0.05107143521308899
4.09934139251709,-0.8080143332481385,9.694908142089844,0.011868933215737343,-0.05054756626486779,-0.05659613013267517
4.078897953033448,-0.7635754346847534,9.771998405456545,0.0060104308649897575,-0.06029057502746582,-0.06370753794908525
4.146108627319336,-0.729621171951294,9.764533042907717,-0.008685483597218992,-0.0689813643693924,-0.05980221554636956
4.214812278747559,-0.7068335413932801,9.758900642395021,-0.016540106385946274,-0.07413888722658159,-0.057682756334543235
4.195389747619629,-0.7514940500259399,9.71532726287842,-0.02593496255576611,-0.07770878076553345,-0.044400032609701164
4.165955066680909,-0.7821806073188783,9.739356040954592,-0.02536931820213795,-0.07645107060670854,-0.0349392294883728
4.220735549926758,-0.7749024629592896,9.724058151245117,-0.0310228168964386,-0.07408422976732255,-0.02743816375732422
4.189190864562988,-0.740706205368042,9.692263603210451,-0.030799783766269684,-0.07181810587644578,-0.020916091278195385
4.122003078460694,-0.8791195154190063,9.704913139343263,-0.030642278492450714,-0.07071634382009508,-0.019149113446474075
4.146069049835206,-0.9732785820961,9.664770126342773,-0.023667739704251293,-0.07045594602823259,-0.024291031062602997
4.1593689918518075,-1.0576568841934206,9.70516586303711,-0.0051563368178904065,-0.06918852031230927,-0.03645066544413567
4.16812562942505,-0.9256072044372559,9.698263168334961,0.009333956055343153,-0.0689907968044281,-0.049047693610191345
4.119338035583496,-0.9418103098869325,9.693912506103516,0.01763947680592537,-0.06876423209905626,-0.05678083002567291
4.089790344238281,-0.9162800908088685,9.682332992553711,0.02490378357470036,-0.0759669914841652,-0.07196660339832306
4.02253293991089,-0.9458972215652466,9.73531723022461,0.03562271595001221,-0.08556499332189561,-0.08516325056552887
4.151569366455078,-0.7198472023010254,9.738335609436037,0.029342742636799816,-0.0924520492553711,-0.09416231513023376
4.131287574768066,-0.5743408203125,9.823578834533693,0.010460088960826399,-0.10496577620506287,-0.08266233652830125
4.248614788055421,-0.6005823612213135,9.782362937927248,-0.010437635704874992,-0.11530613899230957,-0.06706852465867998
4.221456527709961,-0.6574142575263978,9.705205917358398,-0.021222084760665894,-0.12256368249654771,-0.0534767210483551
4.299198150634766,-0.703923225402832,9.713788986206055,-0.027975296601653103,-0.1270284354686737,-0.04475231468677521
4.3156538009643555,-0.7615856528282167,9.670074462890625,-0.025377333164215088,-0.12419862300157548,-0.03457547724246979
4.401515483856202,-0.8156901001930238,9.621919631958008,-0.017703954130411148,-0.12005771696567535,-0.02985593490302563
4.437674999237061,-0.7544890642166138,9.610015869140625,-0.014645737595856191,-0.10079766809940338,-0.022939642891287807
4.407813549041749,-0.7878755927085878,9.532467842102053,-0.013791792094707489,-0.07799502462148668,-0.013110256753861906
4.358316898345948,-0.9361497759819032,9.52854633331299,-0.006026212591677905,-0.057201363146305084,-0.01099424157291651
4.381024360656738,-0.9024533033370972,9.561141014099123,0.001800319878384471,-0.03941357880830765,-0.017141913995146755
4.347600460052491,-0.8926513791084291,9.543797492980959,0.00755499815568328,-0.024597667157649994,-0.01959503255784512
4.386415958404542,-0.8571686744689941,9.560832023620607,0.011243486776947975,-0.011359027586877348,-0.024124389514327053
4.342372894287109,-0.7114834785461426,9.632823944091797,0.007454129401594401,-0.002666777465492487,-0.023489082232117656
4.312715530395508,-0.642007887363434,9.680844306945803,0.000432374217780307,-0.0021441646385937933,-0.012763291597366333
4.220957279205323,-0.7625695466995239,9.706928253173828,-0.0110480347648263,-0.005009172484278679,-0.002666671527549625
4.293309688568116,-0.7381374835968018,9.66727066040039,-0.01786293089389801,-0.013414439745247366,-0.00033365059061907237
4.225078105926515,-0.7583677768707275,9.65486812591553,-0.02600940316915512,-0.015535204671323301,0.0030309627763926983
4.22559690475464,-0.7403688430786133,9.763577461242678,-0.030206337571144104,-0.024515807628631592,0.005086645018309356
4.235302925109863,-0.910457968711853,9.708415985107422,-0.025408577173948288,-0.030814124271273616,0.003040637820959091
4.292250156402589,-0.9685131907463075,9.679548263549805,-0.017595920711755753,-0.03751990571618081,-0.0019456004956737163
4.311509132385254,-0.8218106031417847,9.610850334167482,-0.013555269688367844,-0.03783178701996804,-0.010166440159082413
4.318254947662354,-0.8395569324493408,9.626007080078125,-0.012890557758510114,-0.034284446388483054,-0.010484118014574051
4.334389209747315,-0.8636159896850586,9.621724128723146,-0.009363459423184395,-0.031060466542840007,-0.009157797321677208
4.337440013885499,-0.8444308042526245,9.5645227432251,-0.0027592226397246127,-0.024762727320194244,-0.012542592361569405
4.324570178985597,-0.850346565246582,9.602254867553711,-0.004013277590274811,-0.017804121598601345,-0.011360814794898033
4.298602104187012,-0.8010454773902894,9.613497734069826,-0.004266745410859585,-0.014089444652199745,-0.011682839132845403
4.31287956237793,-0.8064693808555604,9.646181106567383,-0.005706436932086945,-0.012041096575558187,-0.009348299354314804
4.299067020416261,-0.8663147091865541,9.57720947265625,-0.00422608619555831,-0.010634426027536392,-0.009777449071407318
4.267359256744386,-0.8445100188255311,9.649399757385256,-0.001153209712356329,-0.011078563518822195,-0.014963403344154358
4.221386432647706,-0.8253619074821473,9.647773742675781,-0.0031370439101010565,-0.014443906955420973,-0.017430923879146576
4.258892536163331,-0.8500723838806152,9.716502189636232,0.004180322401225567,-0.022039571776986126,-0.020248401910066605
4.296855449676515,-0.8750237226486206,9.662797927856445,0.0055650859139859685,-0.025680847465991974,-0.021191421896219254
4.299048900604249,-0.7820467948913574,9.675926208496094,0.006844983901828528,-0.029099412262439728,-0.022515824064612392
4.345332145690918,-0.6884446144104004,9.681221008300781,-0.001509860623627901,-0.03080376237630844,-0.014649757184088232
4.3386077880859375,-0.8041881322860718,9.615947723388672,-0.004161011893302203,-0.030208095908164978,-0.008571377955377104
4.293659210205078,-0.8653026819229126,9.594861030578615,-0.0027368301525712013,-0.026550164446234707,-0.005600237753242255
4.3166823387146005,-0.8882908821105957,9.62056636810303,-0.0006971242255531253,-0.02420705556869507,-0.008712234906852247
4.373733997344972,-0.8504431247711182,9.585127830505373,-0.003945893608033657,-0.02001585066318512,-0.010374800302088262
4.382301807403565,-0.7834567427635194,9.562200546264648,-0.003763048676773906,-0.008592665195465088,-0.01551072206348181
4.36934518814087,-0.6228220462799072,9.61992931365967,-0.010062088258564474,-0.0022839270532131195,-0.0061536915600299835
4.310550212860108,-0.6790196895599365,9.625831604003906,-0.02168817631900311,4.598314262693748e-05,0.005202815402299167
4.291965007781983,-0.7175476551055908,9.68143939971924,-0.03803771734237671,-0.0023040827363729477,0.015385153703391554
4.270917892456055,-0.6707688570022583,9.643465995788576,-0.0518827885389328,-0.009079380892217161,0.021623283624649048
4.311308383941651,-0.6435686349868774,9.65682125091553,-0.07119753956794739,-0.01494210120290518,0.02930407784879208
4.293281555175781,-0.6430596113204956,9.621919631958008,-0.08434388041496277,-0.014238131232559683,0.04696572571992874
4.2760725021362305,-0.7307130694389344,9.616157531738281,-0.09404246509075165,-0.014398684725165367,0.0629691705107689
4.33853816986084,-0.7268750667572021,9.626179695129396,-0.10539779812097551,-0.010602090507745743,0.07107288390398027
4.363476276397706,-0.7571620345115663,9.581974983215334,-0.11298856884241106,-0.008804185315966606,0.07946428656578064
4.352425575256348,-0.8901546001434326,9.578754425048828,-0.11467471718788147,-0.0003184968663845212,0.08429020643234253
4.435866355895996,-1.04341995716095,9.567350387573242,-0.10525349527597429,0.015984373167157177,0.07906472682952881
4.348289489746094,-1.056587100028992,9.572164535522461,-0.09098608046770097,0.03257650136947632,0.07117410749197008
4.424016952514648,-0.9303748607635498,9.641062736511232,-0.08403275907039642,0.05148667469620705,0.07133097201585771
4.289987087249757,-1.0761563777923584,9.594852447509766,-0.07929593324661255,0.06060456112027169,0.069835364818573
4.1672515869140625,-1.077322840690613,9.70684337615967,-0.07625705748796464,0.0472874902188778,0.06533575057983398
4.162303924560547,-1.114797830581665,9.692262649536133,-0.07044899463653564,0.029020613059401516,0.05217765271663666
4.193586826324464,-0.9797462821006776,9.705951690673828,-0.06780833750963212,0.019378628581762314,0.04447399079799652
4.1665968894958505,-0.7772205471992494,9.777836799621584,-0.07559453696012498,0.0030452674254775047,0.04809780046343804
4.181223392486573,-0.797387957572937,9.738622665405273,-0.09133835881948472,-0.01579336263239384,0.06758405268192291
4.1113905906677255,-0.979817271232605,9.774150848388672,-0.10366749018430711,-0.03834687918424606,0.07239506393671037
4.187905311584473,-1.1045105457305908,9.77016830444336,-0.10542157292366028,-0.06592706590890886,0.061635438352823264
4.275558948516847,-1.0448598861694336,9.679895401000977,-0.10363657772541046,-0.08265405148267747,0.0506768599152565
4.404318809509277,-0.945621132850647,9.636297225952148,-0.10978028178215027,-0.08118380606174469,0.05174779519438744
4.392092704772949,-1.0537621974945068,9.590834617614748,-0.11265630275011064,-0.07251285016536713,0.05488673225045205
4.277474880218507,-1.1452027559280398,9.55175304412842,-0.10853588581085205,-0.06130494549870492,0.055586922913789756
4.266375541687012,-1.197314739227295,9.590306282043459,-0.10216331481933594,-0.05977103486657143,0.04668305069208145
4.257925510406495,-1.1129531860351562,9.644876480102539,-0.09664608538150787,-0.05966591089963913,0.043945100158452995
4.123357772827148,-1.125155329704285,9.714187622070312,-0.10123090445995331,-0.07634335011243822,0.04107537865638733
4.162692070007324,-1.2456352710723877,9.703936576843263,-0.10180991142988206,-0.09406596422195435,0.030777528882026672
4.218864440917969,-1.1047754287719727,9.742585182189943,-0.10114277154207231,-0.1164168268442154,0.02102909423410893
4.302039623260499,-1.0127667188644411,9.708585739135742,-0.10935970395803453,-0.13232396543025973,0.02204110473394394
4.365416049957276,-1.1748778820037842,9.624748229980469,-0.11292987316846849,-0.13781729340553284,0.021766053512692455
4.3109755516052255,-1.0417584180831911,9.611942291259766,-0.11644484847784044,-0.13995057344436646,0.01886460930109024
4.42866325378418,-1.1034975051879883,9.555234909057617,-0.11757066100835802,-0.1389733850955963,0.023725712671875957
4.361895561218262,-1.0424734354019167,9.60397243499756,-0.12222260236740112,-0.136683851480484,0.029435006901621822
4.273204803466797,-1.032979965209961,9.690155029296875,-0.12753321230411532,-0.14788833260536194,0.03492636606097222
4.26724672317505,-1.0126811265945437,9.651413917541506,-0.1396421194076538,-0.16782416403293612,0.04285321757197381
4.279511451721191,-1.0896098613739014,9.654010772705078,-0.15191529691219333,-0.19274112582206726,0.04791074618697167
4.284152030944824,-1.2441266775131228,9.570722579956055,-0.15584446489810946,-0.21908716857433322,0.04704901576042175
4.414167881011964,-1.3073334693908691,9.543914794921875,-0.14984461665153503,-0.23402042686939242,0.040789127349853516
4.416969299316406,-1.21026611328125,9.608160018920898,-0.15604087710380554,-0.25192579627037054,0.0390622727572918
4.374444007873535,-1.2479375600814822,9.618433952331545,-0.1687208563089371,-0.27356958389282227,0.04175307229161263
4.34934139251709,-1.4593337774276736,9.534556388854982,-0.17000667750835421,-0.29546752572059637,0.029534459114074707
4.474938869476319,-1.2343590259552002,9.49363422393799,-0.172127366065979,-0.3108817040920258,0.024411335587501526
4.53053092956543,-1.3138465881347656,9.415135383605959,-0.18107080459594727,-0.31945511698722845,0.02369252406060696
4.68839979171753,-1.2986379861831667,9.41287612915039,-0.19128189980983737,-0.3203219771385193,0.02375450171530247
4.638921260833741,-1.3936764001846316,9.279411315917969,-0.18533846735954285,-0.3080873489379883,0.029407562687993053
4.694560527801515,-1.4515941143035889,9.273483276367188,-0.187096044421196,-0.29945945739746094,0.027990905568003658
4.660268306732179,-1.442284345626831,9.2988977432251,-0.18444302678108215,-0.2933956682682038,0.03101589344441891
4.654880046844483,-1.6046108007431032,9.273975372314453,-0.1745231002569199,-0.2879810333251953,0.025387225672602657
4.749347209930421,-1.660045862197876,9.217967033386232,-0.16038419306278232,-0.2767071425914765,0.01641659438610077
4.8117170333862305,-1.574522137641907,9.229169845581055,-0.1408597677946091,-0.2559383511543274,0.010709489695727827
4.8326873779296875,-1.6471741199493408,9.182367324829102,-0.12465932965278625,-0.23005987703800204,0.00766706606373191
4.890872478485108,-1.7979372739791872,9.07940196990967,-0.10135286301374437,-0.20179998874664307,-0.001487847766838968
5.071812629699707,-1.6292436122894287,9.138553619384766,-0.08301533013582231,-0.16345177590847018,-0.006681944243609905
5.07709550857544,-1.654342293739319,9.1214599609375,-0.06370307505130768,-0.11513685435056688,-0.005196543410420418
5.093360900878906,-1.7359702587127686,9.0107421875,-0.03854149580001831,-0.06694696098566057,-0.012134625576436521
5.0890398025512695,-1.7050946950912478,9.03135395050049,-0.00816584937274456,-0.009160383604466917,-0.018296781927347183
5.010804176330566,-1.8416039943695068,8.987877845764162,0.03192920610308648,0.047334756702184684,-0.02946551889181137
4.941854476928711,-2.0050194263458256,8.904260635375977,0.07546497881412506,0.10165057331323625,-0.05571426451206207
4.861847400665284,-1.6096724271774294,9.068685531616211,0.09701350331306458,0.13898037374019626,-0.07615587860345842
4.5715069770813,-1.2801436185836794,9.249512672424318,0.09478298574686052,0.14365604519844055,-0.07230097800493242
4.646632671356202,-1.275227189064026,9.407382011413576,0.0739174336194992,0.12294860184192657,-0.06590602546930314
4.6531386375427255,-1.3807311058044434,9.402222633361818,0.06939734518527985,0.10931579023599626,-0.060646750032901764
4.65049695968628,-1.2688298225402832,9.415979385375977,0.06546676158905029,0.09639517217874528,-0.06042296066880227
4.500975131988526,-0.9882947802543641,9.515122413635256,0.04432431608438492,0.06729339808225633,-0.04614008218050003
4.102444648742676,-1.1090540885925293,9.451560974121094,0.05389253422617913,0.018042610958218578,-0.04596582055091858
4.128640651702882,-1.411466956138611,9.549536705017092,0.0575711727142334,-0.058845285326242454,-0.06067202240228653
3.9509005546569824,-1.6379191875457764,9.661929130554201,0.08573926240205766,-0.14087837934494019,-0.0969039648771286
3.9607684612274174,-1.6450592279434206,9.642711639404297,0.10321762412786485,-0.24184101819992065,-0.1416883617639542
4.111957550048828,-1.4162375926971436,9.530245780944826,0.1200723946094513,-0.3414291739463806,-0.19678257405757907
4.3327741622924805,-0.8969091176986694,9.780383110046388,0.08393042534589769,-0.4624430537223816,-0.2176516801118851
4.1468243598938,-1.0713496208190918,9.864068984985352,0.03892690315842629,-0.6040997505187988,-0.21459761261940002
3.6457002162933354,-1.3110092878341677,10.024416923522951,0.014044054783880712,-0.7963800430297852,-0.257659524679184
3.796198129653931,-1.1570477485656738,10.082534790039062,-0.0034435223788022995,-1.0355181694030762,-0.2818469107151032
3.73778510093689,-1.440251350402832,10.146224021911623,-0.015062107704579832,-1.267913579940796,-0.3218019306659699
3.5851233005523686,-1.3799246549606325,10.168366432189943,-0.008242109790444374,-1.5396059751510622,-0.33724108338356024
4.146476745605469,-1.497060775756836,10.130837440490724,0.005353138782083988,-1.7946733236312868,-0.36278021335601807
4.114189624786378,-1.4981402158737185,10.174070358276367,0.020895499736070633,-2.0366172790527344,-0.3675940930843354
4.049783229827882,-1.148648738861084,10.137312889099123,0.04640144854784012,-2.3187801837921147,-0.3947155475616455
4.408409595489503,-0.9856076240539551,10.279808998107912,0.07650455832481384,-2.631335020065308,-0.4045297801494599
4.239236354827882,-1.5877112150192263,9.923282623291016,0.1982315480709076,-2.965636491775513,-0.44117385149002075
4.342368602752686,-2.420238494873047,9.606509208679201,0.42681327462196356,-3.412488222122193,-0.5226576328277588
4.733484745025636,-2.584748983383179,9.484262466430664,0.6486529111862183,-3.918373346328736,-0.6460174322128296
5.706233024597168,-2.5742123126983647,9.92708492279053,0.8445760011672974,-4.4333157539367685,-0.6982737183570863
7.222076416015625,-2.1585829257965092,10.890933990478516,0.9420276284217836,-4.839456558227539,-0.7109276652336122
9.805660247802734,-3.0962963104248047,12.106404304504396,0.9907104372978212,-4.924498081207276,-0.7080574035644531
12.735158920288086,-2.983920812606812,13.39625644683838,1.0321481227874756,-4.8655667304992685,-0.7217612266540527
16.125623703002933,-4.250430583953858,13.955491065979006,1.3728231191635134,-4.666080474853516,-0.8827003240585327
20.02749252319336,-2.784805059432984,13.624964714050295,1.7466019392013552,-4.327935218811035,-1.0163224935531618
26.804498672485355,-1.2791087627410889,13.487481117248537,1.7283861637115479,-3.945627212524414,-1.0981372594833376
27.461648941040043,-3.2731206417083745,5.4842543601989755,1.7975959777832031,-3.553380727767945,-1.3349924087524414
32.05929183959962,-5.15539312362671,6.209577560424805,2.6994678974151616,-3.5374131202697754,-1.5653386116027832
30.515172958374027,-1.6482864618301394,4.638450145721436,3.3539891242980957,-3.0467908382415776,-1.410172462463379
38.824230194091804,6.176274299621582,10.976011276245117,2.568732023239136,-3.107739686965943,-1.2863211631774902
38.542877197265625,3.327836036682129,21.139789581298828,1.0262651443481445,-1.5194181203842165,-1.1023120880126953
24.449024200439453,1.1922686100006104,14.0493860244751,-0.3953095376491547,-0.7408576011657715,-0.688543438911438
19.171945571899418,-1.1744258403778076,10.424385070800781,-1.3030602931976318,-0.8980924487113954,-0.6626826524734497
15.059675216674805,-4.449716091156007,8.459849357604982,-1.333475112915039,-1.243335485458374,-0.8314859271049501
13.041637420654297,-6.712115287780762,8.63271236419678,-0.7035654783248901,-1.5923238992691042,-1.0675232410430908
13.077402114868164,-7.163997650146484,11.462169647216797,0.17793457210063937,-1.6269159317016602,-1.1968514919281006
12.00832748413086,-5.12221384048462,14.21947765350342,0.8152261376380922,-1.3115801811218262,-1.1046491861343386
8.955865859985352,-2.52863621711731,15.050142288208008,0.9381031394004823,-0.7200780510902406,-0.8494775295257568
4.5532546043396005,-0.8022730946540834,13.815135955810547,0.6917280554771424,-0.13681313395500183,-0.6106140017509462
0.24929359555244446,-0.43052494525909424,11.478564262390138,0.3697075545787812,0.2703118324279785,-0.5093729496002197
-2.5909278392791752,-0.17289964854717257,9.20913600921631,0.10050752758979797,0.5676255822181703,-0.4680420756340027
-4.54567575454712,-0.5972084403038026,7.317655563354492,0.026421934366226196,0.779822587966919,-0.4662321507930756
-5.645499229431152,-0.9820246100425721,6.586465358734132,0.07284613698720933,0.9718335866928101,-0.4514280259609223
-6.01557207107544,-1.3135590553283691,6.773676872253418,0.1568393111228943,1.2171062231063845,-0.40234813094139105
-5.128565788269043,-1.4692329168319704,7.96424150466919,0.1677912920713425,1.5982317924499512,-0.2867473661899567
-5.890972614288331,-2.1932723522186284,6.824371337890625,0.2080497890710831,2.1204273700714116,-0.14823397994041443
-8.245452880859375,-1.99473512172699,4.254603862762452,0.2455531656742096,2.459431886672974,-0.03283204138278961
-9.38944721221924,-0.7283504009246826,2.1140377521514897,0.08560007065534593,2.5418920516967773,0.0825909972190857
-9.650558471679688,-0.5112694501876831,0.7423584461212158,-0.20788662135601046,2.5564651489257812,0.2161604017019272
-9.160168647766115,-1.364957571029663,0.5389133095741273,-0.4360113441944123,2.5227611064910893,0.3695523738861084
-7.697222232818604,-1.583776116371155,1.3303406238555908,-0.5726747512817383,2.5984451770782475,0.5694988965988159
-6.764948844909668,-1.7797396183013916,1.5487500429153445,-0.6245909929275513,2.814062356948853,0.7882884144783021
-6.514270782470703,-1.6109824180603027,0.9072951674461366,-0.6159368753433228,3.0029699802398686,0.9836039543151855
-5.257211685180664,-0.7491372227668763,0.9256578683853149,-0.6763077378273011,3.1400034427642827,1.1791927814483643
-3.9502685070037846,-0.2154122740030289,1.0767949819564822,-0.7797178626060487,3.3109664916992188,1.3810647726058962
-3.0057728290557866,0.7401235103607178,0.747118890285492,-0.85591721534729,3.4723165035247807,1.5406607389450075
-2.3804616928100586,2.5631992816925053,0.3981616497039795,-0.9831227660179139,3.5705227851867676,1.6362901926040652
-1.0121663808822634,3.8572821617126465,0.8159881830215454,-1.1396661996841433,3.6066515445709233,1.595268726348877
1.409631133079529,4.333615303039551,2.060842514038086,-1.1792690753936768,3.65357518196106,1.4263279438018799
4.096791744232179,4.814340591430664,3.013904571533203,-1.0550204515457156,3.811938762664795,1.141634464263916
6.205106735229492,4.489788055419922,2.8491716384887695,-0.8037916421890259,3.976577997207642,0.7490137815475464
7.351419925689698,4.715777873992921,2.4611239433288574,-0.49941861629486084,4.000537872314453,0.372475951910019
9.496006965637209,5.111075878143311,3.058258056640625,-0.3922044038772583,3.9140837192535405,0.10809554159641266
11.86716079711914,3.153946876525879,3.083739757537842,-0.2870797216892243,3.8208541870117188,-0.029830463230609894
13.008278846740724,2.0487806797027592,2.1552019119262695,-0.01639346033334732,3.612118482589722,-0.006780751049518585
13.763276100158693,2.636842489242554,1.4135823249816895,0.14190849661827087,3.205738067626953,0.14740271866321566
15.510456085205078,2.948656797409058,1.479584574699402,0.12159822136163713,2.696345329284668,0.3927930891513825
17.1890869140625,2.3885607719421387,1.1468573808670046,0.13663682341575623,2.1397864818573002,0.625795066356659
17.428451538085938,1.811654806137085,-0.2318519949913025,0.3166250288486481,1.508601427078247,0.7670415043830873
15.800199508666992,2.31813383102417,-3.5869812965393066,0.5379780530929565,0.7282975912094116,0.8283895850181581
11.453490257263185,2.223133087158203,-7.987284183502198,0.7003741860389711,-0.3874260187149048,0.8237892985343934
72.31690216064455,32.780662536621094,28.790557861328125,-3.4033870697021484,-3.807153463363648,2.088417291641236
43.390338897705085,8.092029571533203,23.27302742004395,-2.1795589923858647,3.01102352142334,0.4225414097309113
5.148093223571777,-10.753473281860352,8.786796569824219,-1.7448188066482546,1.7765549421310427,1.508065938949585
-3.2205729484558105,-6.832487106323242,12.866575241088867,-0.30782246589660645,2.3452432155609135,0.9881407022476196
-9.813264846801758,-7.619128704071046,9.43704605102539,-0.11449001729488373,0.5927017331123353,0.11653450876474382
0.9070734381675721,-9.930181503295898,12.163078308105469,0.32549443840980535,0.05098343640565872,-0.7196856141090394
1.9127020835876465,-2.8722093105316167,12.343467712402344,0.38399836421012884,-0.2985316216945649,-0.7116634845733643
6.871354103088379,6.778075695037843,10.153898239135742,0.28039577603340154,-0.4246155023574829,-0.694550931453705
8.065449714660646,5.523429393768311,8.724520683288576,-0.10543895512819292,-0.2704053521156311,-0.22123906016349792
7.134964466094972,0.782450795173645,8.898669242858888,-0.31017652153968817,-0.0239713117480278,0.1423677355051041
5.4855313301086435,-1.806999921798706,8.779769897460938,-0.30185258388519287,0.19857105612754822,0.21614198386669162
4.060992717742921,-3.093761444091797,9.394205093383789,-0.15524207055568698,0.17535752058029175,0.09585394710302354
3.7837233543395996,-1.4017298221588135,10.08623790740967,-0.10425643622875214,0.07905585318803789,0.01544033829122782
4.119777679443359,0.5949897766113281,10.034971237182617,-0.16717958450317383,0.0031583404634147887,0.036947354674339294
4.466588973999023,0.8311753273010254,10.264622688293459,-0.2956719398498535,-0.06178731471300125,0.13279040157794955
4.184640884399414,-0.5814552307128906,10.068089485168459,-0.344775915145874,-0.11941199749708177,0.18413665890693665
3.9493799209594727,-1.6382154226303103,9.853057861328125,-0.3084885179996491,-0.23269617557525635,0.14668911695480347
4.25638246536255,-1.2600958347320557,9.789259910583498,-0.27528402209281927,-0.31919556856155396,0.09496489912271501
4.669564247131348,-1.1193032264709473,9.560463905334474,-0.22757889330387118,-0.3470864593982697,0.044998809695243835
5.029005527496339,-1.0519206523895264,9.467581748962404,-0.2057151645421982,-0.3179422616958618,0.04059674963355065
4.497833728790284,-0.8722904324531556,9.402368545532227,-0.20738789439201355,-0.33067229390144354,0.032049205154180534
4.441078662872315,-0.8253180980682373,9.798537254333498,-0.2425740361213684,-0.3570076525211335,0.035647161304950714
4.230386257171632,-0.9973700046539307,9.75527095794678,-0.27345430850982666,-0.43752944469451904,0.03159780427813531
4.3909759521484375,-1.2725050449371338,9.602942466735842,-0.2672417163848877,-0.5004354119300843,0.01654129847884178
4.54699468612671,-1.191923499107361,9.446451187133789,-0.2760888934135437,-0.5374611020088197,0.005735235754400493
4.759047508239746,-1.549149513244629,9.09553623199463,-0.26783400774002075,-0.5422062277793885,-0.018230382353067398
4.770760536193848,-0.9053827524185181,9.44939708709717,-0.25530707836151123,-0.5695040225982666,-0.011344528757035734
4.602948188781738,-1.0719991922378542,9.498463630676271,-0.29097580909729004,-0.6110942959785463,0.0069204820320010185
4.6959595680236825,-0.6566740274429321,9.663763999938967,-0.28711864352226263,-0.6884751319885254,0.02278713509440422
4.804206848144531,-1.1450846195220947,9.261411666870117,-0.3076337277889252,-0.7388308048248291,0.047763746231794364
4.753344058990479,-0.9655591249465942,9.30279064178467,-0.2863530814647675,-0.8199228644371034,0.05267687886953354
4.904078483581543,-1.2706866264343262,9.052848815917969,-0.28254339098930364,-0.8732842206954956,0.03554878756403924
4.778864383697511,-1.0086469650268555,9.211734771728516,-0.31283953785896307,-0.8869990110397339,0.03246999531984329
5.3533949851989755,-1.4066667556762695,8.912845611572266,-0.27727404236793524,-0.9360299110412598,0.010142332874238493
5.367921829223633,-1.3640557527542116,8.756461143493654,-0.27571189403533936,-0.9098401069641113,0.006712109316140414
5.389970779418945,-1.4259833097457888,8.638888359069826,-0.23675286769866943,-0.8813835978507997,-0.007180218584835529
5.713954448699952,-1.912640452384949,8.637540817260742,-0.20778217911720276,-0.8474184870719911,-0.0326930694282055
5.564653396606445,-1.9269943237304688,8.443323135375977,-0.12348029017448425,-0.8028929829597474,-0.04100973159074783
5.639258861541749,-2.1059508323669434,8.410955429077148,-0.09452433139085771,-0.7799697518348695,-0.08055523037910461
5.926790714263917,-2.343240737915039,8.197538375854492,-0.015131233260035515,-0.7363823056221009,-0.1281668245792389
6.051238059997559,-2.078282356262207,8.222135543823242,0.05010040476918221,-0.6707861423492432,-0.17994019389152527
6.099136829376222,-1.71387255191803,8.200435638427734,0.07389916479587555,-0.6211159825325013,-0.21006295084953308
6.077574729919434,-1.8790528774261475,8.079084396362305,0.12148132920265198,-0.5628705024719238,-0.25072130560874945
5.8375258445739755,-1.8216215372085574,8.350273132324219,0.1676628589630127,-0.5360329747200013,-0.2936590313911438
5.691180229187012,-1.4554083347320557,8.567925453186037,0.21740204095840454,-0.5495588183403016,-0.3108477890491486
5.657299041748047,-1.3503550291061404,8.354095458984375,0.2282829433679581,-0.5880441665649414,-0.3233272731304169
5.737416744232179,-1.2234466075897217,8.592456817626953,0.21838489174842834,-0.6341687440872192,-0.35022386908531195
6.031885623931886,-0.9789854288101196,8.471825599670412,0.20974974334239962,-0.6510859727859497,-0.36696562170982366
6.125826835632324,-0.65200012922287,8.360551834106445,0.20330615341663363,-0.6485681533813477,-0.34870636463165283
6.314883232116699,-0.19318468868732455,8.544509887695312,0.18952146172523499,-0.6438617110252381,-0.2898877263069153
6.366123199462891,-0.46294614672660833,8.202301025390625,0.17978988587856296,-0.6353337168693544,-0.24984237551689148
5.921999931335449,-0.8304597735404969,8.60968017578125,0.17696142196655273,-0.6638180613517762,-0.2563741207122803
5.521318435668945,-1.0940759181976318,8.905409812927248,0.22488287091255188,-0.7463517785072328,-0.27303865551948553
5.714004993438722,-1.8483190536499023,8.786326408386232,0.3001792132854462,-0.8394111394882202,-0.3165183365345002
6.056664943695069,-1.6903799772262575,8.003458976745607,0.3812635242938996,-0.9254786372184755,-0.37583494186401367
6.830925464630128,-0.6315282583236694,7.961428642272949,0.3755444288253784,-0.9445073008537294,-0.3887483477592468
6.444576263427734,-1.4990149736404421,7.887314796447754,0.40178868174552923,-0.9366892576217651,-0.39697200059890747
6.393290042877198,-1.1040537357330322,7.946186065673828,0.4206328094005585,-0.991884708404541,-0.42368349432945257
6.4534010887146005,-0.9403050541877748,8.09215831756592,0.4506238102912903,-1.0628957748413086,-0.446481078863144
6.409574508666992,0.2657528221607209,8.699255943298342,0.4390378892421723,-1.1831645965576172,-0.4213272631168366
5.9652113914489755,-0.807587742805481,8.83901596069336,0.44602677226066595,-1.34602952003479,-0.4055606722831726
6.044167041778565,-0.45942264795303345,8.42171859741211,0.48996242880821234,-1.5816764831542969,-0.42599126696586614
6.153494358062745,0.06745900213718414,8.655736923217773,0.49826100468635565,-1.8712276220321657,-0.4243767261505127
6.037625312805176,-0.13275966048240662,8.470783233642578,0.5221843123435975,-2.235196590423584,-0.41071310639381414
5.814569473266602,-0.4149273633956909,8.711450576782227,0.5685107707977295,-2.69829535484314,-0.39457359910011297
6.1718716621398935,0.18888680636882785,8.439315795898438,0.601001799106598,-3.2862491607666016,-0.3871332705020905
7.37111520767212,-0.22374120354652405,8.799253463745117,0.5946886539459229,-3.9734320640563965,-0.2042840272188187
7.676077842712402,1.0157887935638428,9.354032516479492,0.5620777606964111,-4.743711948394776,0.03283853828907013
8.641422271728516,1.3894854784011843,10.027585029602053,0.45770078897476196,-5.297275066375733,0.2873826920986176
10.182685852050781,1.6243280172348025,10.547011375427248,0.2987715303897858,-5.4040374755859375,0.40033397078514105
13.603371620178224,0.9168086051940918,11.855425834655763,-0.010170839726924896,-5.057463645935059,0.4360679686069489
17.664505004882812,-0.09138044714927673,11.396571159362795,-0.35049301385879517,-4.4769864082336435,0.4717286229133606
25.70895576477051,1.324206829071045,11.953380584716797,-1.0142912864685059,-3.665502309799195,0.6702052950859071
23.147499084472656,-1.9383908510208132,9.559335708618164,-1.6006349325180056,-2.8333959579467773,0.7857467532157899
19.06026649475098,-1.7007440328598025,4.308249950408936,-1.834157943725586,-2.4171953201293945,0.4877589643001557
18.29964637756348,-1.1853424310684206,-1.9409543275833132,-1.7262966632843018,-2.7093222141265874,-0.13591501116752625
22.3872241973877,2.2318882942199707,-2.169429302215576,-1.507529139518738,-2.935433864593506,-0.8938932418823242
22.935771942138672,2.0518689155578613,-1.912128210067749,-1.498566269874573,-2.840256690979004,-1.693266272544861
19.11559295654297,-0.30082398653030396,-5.724577426910401,-1.0640884637832644,-3.1623237133026127,-2.7151947021484375
29.04647254943848,-2.769169092178345,2.8266286849975586,-0.20850226283073425,-3.821725130081177,-3.618002414703369
26.717967987060547,-3.2978956699371342,8.604726791381836,0.344667911529541,-3.135828256607056,-3.9794971942901616
21.71007347106934,-2.6322989463806152,6.267822742462159,0.5582876205444336,-3.0025055408477788,-4.211956024169922
21.16367912292481,-2.8325767517089844,8.110095024108888,0.7432842254638672,-2.9173107147216797,-4.451969623565675
17.013219833374027,-2.125607252120972,6.8261456489563,0.6650963425636293,-2.828282356262207,-4.476730823516847
14.317655563354492,-1.881068229675293,6.620032787322999,0.4034879207611084,-2.92918610572815,-4.455708980560304
11.911203384399414,-3.313638687133789,6.595751762390137,0.23039363324642184,-3.058988571166992,-4.371720790863038
10.450167655944826,-4.421699523925781,6.762233734130859,0.2814807891845703,-3.185096263885498,-4.206439495086671
9.851123809814453,-5.685073375701905,7.616570949554444,0.5807934403419496,-3.157154083251953,-3.9875581264495854
8.70159435272217,-6.718912124633789,8.481236457824709,1.0420180559158327,-2.9550328254699707,-3.7031893730163574
7.052524089813233,-7.1178436279296875,9.523797035217287,1.4510561227798464,-2.59951114654541,-3.3315265178680424
5.179961681365968,-6.819390773773194,10.887896537780763,1.7377893924713135,-2.1519737243652344,-2.885410070419312
4.512658596038819,-5.369189739227296,12.889606475830078,1.7162022590637207,-1.606513857841492,-2.333683967590332
4.2571759223938,-3.810622215270996,15.009566307067873,1.1792454719543457,-0.768384873867035,-1.6059783697128298
4.103535175323487,-4.176292419433594,16.60222625732422,0.38026219606399536,0.36116537451744085,-0.7832639217376709
3.8788735866546635,-5.167191505432129,16.91909980773926,-0.3102759420871735,1.5723444223403933,0.03129773586988449
2.0617313385009766,-6.206769466400147,15.011417388916016,-0.6873313188552856,2.6553747653961186,0.7212085723876953
-1.5376567840576172,-6.428797721862793,11.33231830596924,-0.7348154187202455,3.351667881011963,1.2410621643066406
-5.354061126708984,-5.908776760101319,7.479403972625733,-0.5716246962547303,3.6030125617980957,1.6026786565780642
-7.455789566040039,-4.860671043395996,4.865478515625,-0.29183116555213934,3.4594299793243413,1.8170745372772217
-6.880353450775147,-3.0493741035461426,4.363746166229249,-0.1161450445652008,3.1512119770050053,1.9759554862976074
-4.904762268066406,-1.0880382061004639,5.734504699707031,-0.17879472672939303,2.9596991539001465,2.1173644065856934
-2.8676562309265137,0.06115974485874176,7.455453872680664,-0.43981257081031805,3.0570201873779297,2.2479131221771245
-1.8353072404861452,0.3588338196277619,8.303385734558107,-0.7410719990730287,3.403119802474976,2.3044261932373047
-1.9791754484176638,0.5944258570671083,8.401175498962404,-0.9331391453742982,3.7884888648986816,2.267760038375855
-1.5055108070373535,1.1563123464584353,8.37594223022461,-1.0600789785385134,4.129480361938477,2.1605801582336426
-0.2627173066139221,1.56687867641449,8.686344146728516,-1.198288917541504,4.472773075103761,2.011502742767334
1.0670560598373415,1.5515826940536501,9.149864196777344,-1.297415018081665,4.866374969482422,1.8063133955001833
2.0114541053771973,2.159121513366699,9.156661987304688,-1.432197093963623,5.252393245697022,1.6044902801513672
2.0265870094299316,2.971590995788574,8.365009307861328,-1.6514801979064941,5.559304714202882,1.4331537485122683
2.3179497718811035,3.469465732574463,7.465417385101319,-1.932734727859497,5.681869983673097,1.2709612846374512
3.2512221336364746,3.48386025428772,7.112745761871339,-2.221432685852051,5.660379409790039,1.098785996437073
4.891438961029054,3.150599956512451,7.475412845611573,-2.4102175235748295,5.5821332931518555,0.8933280110359193
6.973243236541749,2.930529356002808,8.686710357666016,-2.5014746189117436,5.554344177246094,0.6766184568405151
8.371742248535156,3.4405293464660645,9.742731094360352,-2.5151939392089844,5.568074703216554,0.47268950939178467
9.661859512329102,5.117238998413086,10.33919429779053,-2.703489303588867,5.576962471008301,0.28160050511360174
10.536648750305178,5.305537223815918,10.54982662200928,-2.9987142086029057,5.521788597106934,0.05035876855254174
11.614128112792969,4.000249862670898,10.826762199401857,-3.1486220359802246,5.413226604461671,-0.24759979546070102
12.467125892639162,3.988885641098023,11.1990442276001,-3.1015341281890874,5.225530624389648,-0.5172578692436219
13.389924049377443,6.232935428619386,11.882899284362795,-3.1935691833496094,4.941445350646973,-0.7487747073173524
15.064986228942873,8.154019355773928,12.627309799194336,-3.6020140647888184,4.645085811614991,-0.9920711517333984
16.187719345092777,9.337950706481935,13.086951255798342,-4.1219940185546875,4.390311717987061,-1.2749603986740115
17.17923164367676,10.06374263763428,13.248859405517578,-4.612278938293457,4.170790195465089,-1.6252355575561523
18.02597236633301,10.432677268981935,13.245049476623537,-4.959975719451905,3.9735572338104252,-1.9707486629486084
17.958410263061527,11.203768730163576,12.520257949829102,-5.123330593109132,3.797576904296875,-2.267852067947388
16.48714637756348,12.753843307495117,10.380876541137695,-5.183061122894288,3.5515966415405273,-2.47572660446167
15.17469882965088,14.638822555541992,8.400570869445803,-5.175071716308594,3.09925389289856,-2.6490821838378906
15.599323272705078,15.474466323852539,8.018921852111818,-4.983754634857179,2.580690145492554,-2.865248680114746
16.158300399780277,14.970956802368164,7.843413829803468,-4.463557243347168,2.2098319530487065,-3.081979274749756
16.110729217529297,12.30007553100586,6.923080921173097,-3.5720176696777344,1.9303094148635866,-3.2399618625640874
15.861824035644531,10.143613815307617,4.52812385559082,-2.4305164813995366,1.633859634399414,-3.2800104618072514
15.516604423522951,9.76767349243164,1.1760845184326172,-1.5173823833465576,1.2467801570892334,-3.130667924880982
15.945867538452148,8.46986198425293,-1.0644710063934326,-1.05204176902771,0.7725771069526673,-2.780613422393799
18.8217945098877,-7.347163200378418,-6.434972763061523,1.6881419420242312,-0.06601840257644653,-2.508190155029297
12.164313316345217,14.863068580627443,-3.0375673770904545,3.88765287399292,-0.652900516986847,-2.613635540008545
1.6144634485244753,6.8079590797424325,16.74062538146973,2.631346464157105,-0.3076217472553254,-1.139012336730957
11.84161376953125,-17.00802993774414,22.637365341186527,1.7398895025253298,-0.5873324871063232,-0.5676074624061586
9.877216339111328,-12.438051223754883,13.968868255615234,1.8022288084030154,-1.0179145336151123,-0.916654109954834
7.462802410125733,-0.8868381977081299,10.116717338562013,1.911837935447693,-1.1103341579437256,-0.4623758494853974
11.250584602355959,16.213665008544922,17.907789230346683,1.0349472761154177,-0.7012433409690858,-0.023618388921022415
3.254189729690552,14.640992164611818,13.59674072265625,0.4222022294998169,-0.08662956207990648,-0.20890524983406067
2.8333816528320312,0.691632866859436,10.872472763061523,-0.041464418172836304,-0.28768822550773626,-0.2012014836072922
4.984957218170167,-3.668214082717896,9.39051628112793,0.03194637224078179,-0.3645949959754944,-0.1973829418420792
4.451453685760499,0.5595850348472596,9.11919689178467,0.061166193336248405,-0.3187823593616486,-0.13404661417007446
4.494547367095948,0.8078975081443788,10.116517066955568,-0.04590639844536782,-0.11525759100914001,-0.11202790588140489
4.046558856964112,-3.250296831130982,8.906239509582521,-0.02124551869928837,-0.05224552005529404,-0.17241567373275757
4.875710487365723,-2.0822362899780273,9.883746147155763,0.06182138249278069,-0.07025599479675293,-0.13191007077693942
5.177867889404297,-0.29673880338668823,10.404028892517092,0.08186287432909013,-0.0017850290751084687,-0.05760174244642258
4.548703193664551,-0.6733318567276001,10.081567764282227,0.0410333126783371,0.025206355378031734,-0.0235733725130558
4.319770812988281,-0.4878351092338562,10.169330596923828,0.002789270132780075,0.018587840721011165,0.022396387532353405
3.7498841285705566,-0.884405553340912,10.036915779113771,-0.02405744977295399,-0.020970750600099564,0.03244822099804879
3.920632839202881,-0.8758851289749146,10.155816078186037,-0.0495704896748066,-0.07639058679342271,0.03128433972597122
3.8955650329589844,-0.9057689905166626,9.983506202697756,-0.06729575246572496,-0.09929822385311127,0.03013856522738934
3.836252927780152,-0.9152089357376099,9.772531509399414,-0.0662037581205368,-0.12512074410915378,0.017875323072075847
3.923121452331543,-0.948379635810852,9.697477340698242,-0.05904185771942139,-0.15119658410549167,0.008047427982091904
4.097537040710449,-0.815843939781189,9.841028213500977,-0.07136508822441101,-0.17149537801742554,0.009571599774062635
4.350200176239015,-1.029508709907532,9.890810012817383,-0.08662047982215881,-0.1710324734449387,0.009035501629114151
4.482512950897218,-1.2145354747772217,9.797849655151367,-0.09284793585538866,-0.15732073783874512,0.016473956406116486
4.3852081298828125,-0.9075813293457031,9.77560043334961,-0.09892375767230988,-0.13330869376659396,0.02915213257074356
4.2779860496521005,-0.928201735019684,9.742199897766115,-0.10707379132509233,-0.11189203709363939,0.03983934968709946
3.7756075859069824,-1.2151559591293337,9.477700233459474,-0.10918279737234117,-0.11223174631595612,0.04039581492543221
3.6852221488952637,-1.5482870340347292,9.59257221221924,-0.10612034052610399,-0.16557207703590393,0.020322147756814957
4.299559593200684,-1.4889405965805056,9.537090301513672,-0.08917725086212158,-0.1779166013002396,0.0020777666941285133
4.213733673095703,-1.2788270711898806,9.470601081848146,-0.07402048259973527,-0.16410215198993686,0.005287520587444305
4.2383770942688,-1.4163353443145752,9.457539558410646,-0.06429930031299591,-0.16240148246288302,-0.0025321473367512226
4.309808254241944,-1.4218618869781494,9.379459381103516,-0.03067981265485287,-0.14365455508232117,-0.02125217765569687
4.218069076538086,-1.567140817642212,9.315360069274904,0.015473708510398865,-0.13138444721698764,-0.05429084599018097
4.232322216033936,-1.7210592031478884,9.310267448425295,0.04649236053228378,-0.13149258494377136,-0.06844391673803331
4.516540050506593,-1.0058012008666992,9.636224746704102,0.04846243187785149,-0.11939932405948639,-0.07069515436887742
4.254844188690186,-1.3117175102233887,9.52107906341553,0.041469324380159385,-0.09872613847255707,-0.061874181032180786
4.064915657043457,-1.0053634643554688,9.632060050964357,0.03221535682678223,-0.12326874583959581,-0.06137019395828247
4.369579315185547,-0.9375305771827699,9.741017341613771,0.018337249755859375,-0.13422539830207825,-0.0676453933119774
4.394797325134277,-0.735954761505127,9.67192268371582,-0.005504836793988944,-0.12711206078529358,-0.05543120577931405
4.320316314697266,-1.165055274963379,9.683922767639162,-0.030315127223730087,-0.13185770809650424,-0.04433651641011239
4.358814239501953,-1.0627822875976562,9.597764015197756,-0.04365022853016854,-0.13315540552139282,-0.042918276041746146
4.1045880317688,-1.0034974813461306,9.599379539489748,-0.06165948137640954,-0.14324216544628146,-0.042052336037158966
4.022757530212402,-1.13220751285553,9.73554801940918,-0.08634041249752045,-0.18132720887660983,-0.046588584780693054
4.266318321228027,-1.375162482261658,9.733578681945803,-0.09716282039880754,-0.22426673769950867,-0.059728965163230896
4.166783809661866,-1.263312816619873,9.643046379089357,-0.10916587710380554,-0.26732286810874945,-0.07555098831653595
3.995158433914185,-0.8988503813743592,9.695764541625977,-0.12182880192995073,-0.3107414543628693,-0.0918569415807724
4.325015068054199,-1.1031023263931277,9.652217864990234,-0.1294102668762207,-0.3487204015254975,-0.09973540902137756
4.556929588317871,-1.2684588432312012,9.659370422363281,-0.12625892460346225,-0.38286054134368896,-0.12016898393630981
4.409819602966309,-1.0990760326385498,9.658590316772461,-0.13725425302982333,-0.4046359062194824,-0.12788586318492892
4.4193115234375,-1.0615707635879519,9.645084381103516,-0.15806499123573303,-0.43461620807647705,-0.13829906284809115
4.1581830978393555,-1.2091511487960818,9.559193611145021,-0.18079623579978943,-0.47264948487281805,-0.15660953521728516
4.122422218322754,-1.475909948348999,9.467512130737305,-0.1983150839805603,-0.5487378239631654,-0.2216136306524277
3.9826884269714355,-1.2259050607681277,9.686565399169922,-0.21492820978164673,-0.6330224871635438,-0.2533198595046997
4.330620288848878,-0.9827038049697876,9.812372207641602,-0.26806700229644775,-0.7737176418304443,-0.24802000820636752
3.970026969909668,-0.36076611280441284,9.869647979736328,-0.34616115689277654,-0.9571050405502319,-0.19060425460338595
4.044571876525879,-0.7637754678726196,10.101428985595703,-0.40747967362403875,-1.1679162979125977,-0.11171576380729675
3.061367750167847,-0.4930265843868256,10.257201194763185,-0.47707539796829224,-1.4498265981674197,-0.10081975162029266
2.911910057067871,-0.2874084413051606,10.40359115600586,-0.5938237905502319,-1.8163824081420898,-0.12040919810533525
2.716469049453736,-0.11942145228385925,10.613492965698242,-0.7055933475494385,-2.2148249149322514,-0.10947731137275696
2.5966148376464844,-0.05817672610282898,10.765185356140138,-0.7830726504325868,-2.698835849761963,-0.09290625154972076
2.50860595703125,-0.9657893776893617,10.56855869293213,-0.8206007480621338,-3.25775694847107,-0.09016846120357513
1.8574481010437012,-0.770550012588501,10.646190643310547,-0.7426739335060121,-3.994726419448853,-0.15580642223358154
2.0652055740356445,-1.4875767230987549,11.441291809082031,-0.6004241108894349,-4.9014739990234375,-0.17836157977581027
2.34691071510315,-0.8810051679611206,12.483424186706545,-0.5004054903984071,-5.940179824829102,-0.16009637713432312
2.8247528076171875,-1.705930471420288,14.268362998962404,-0.545883595943451,-7.12751579284668,-0.09443920105695726
5.963435173034668,-4.146750450134277,16.048934936523438,-0.9533258676528931,-8.465700149536133,0.10303769260644914
9.788785934448242,-1.2878713607788086,20.938507080078125,-1.6470590829849245,-9.555078506469727,0.3457879722118378
15.414479255676271,-3.0626745223999023,19.039627075195312,-2.324957609176636,-9.714637756347656,-0.06394839286804199
21.634225845336918,-4.930001735687257,19.9065113067627,-2.881506204605103,-9.476982116699219,-0.5540835261344911
27.2210865020752,-5.940323829650879,24.738018035888672,-3.321753978729248,-8.99146842956543,-0.7679758667945863
26.000003814697266,-6.344867706298828,19.49503898620606,-4.114354610443116,-8.324047088623047,-0.9420613646507264
30.52313995361328,-2.24063777923584,24.409652709960938,-6.5389466285705575,-7.066065788269043,-0.13358727097511292
25.099821090698246,-1.5579214096069336,23.851333618164062,-9.621095657348633,-5.0272183418273935,0.5799927711486816
12.434309959411623,-9.907716751098633,16.29113578796387,-8.954900741577148,-1.9236524105072021,-0.5790464282035829
40.36902236938477,-18.437030792236328,31.238059997558594,-5.731791019439698,0.920100212097168,-2.179820775985718
18.79831123352051,-18.96251487731934,23.970123291015625,-2.4775269031524663,4.679501533508301,-2.2203526496887207
4.305601119995117,-8.194633483886719,10.606703758239748,-0.5860794186592103,5.3232927322387695,-2.086382150650025
1.3036025762557986,1.615281343460083,5.199114322662354,0.06678716838359833,5.302619934082031,-2.3214294910430913
0.45636069774627686,6.4231934547424325,3.337312459945679,-0.6592761278152466,4.898247241973878,-2.4065380096435547
-0.8444373607635498,6.112984657287598,1.5561168193817139,-1.7965176105499268,4.520778179168702,-2.297923803329468
-0.16548325121402743,2.519592761993408,2.124673366546631,-2.3285944461822514,4.349908828735352,-2.13524603843689
-0.49365437030792236,-0.6879057288169862,2.529324293136597,-2.0847146511077885,4.35640573501587,-1.9167146682739258
-1.3950089216232302,-0.9509636759757997,3.0221338272094727,-1.4659359455108643,4.411682605743409,-1.6798374652862549
-0.9250382781028749,0.865510106086731,4.177720069885254,-1.130402207374573,4.500382423400879,-1.3759565353393555
-0.5797877907752992,2.1071200370788574,4.233885765075684,-1.169241786003113,4.688215255737305,-0.9631896615028382
-1.7902936935424805,2.504526138305664,2.8918986320495605,-1.347901225090027,4.838355541229249,-0.5471358299255371
-1.682228207588196,2.248377799987793,2.7170939445495605,-1.4656226634979248,4.796807765960694,-0.09252816438674927
-1.1598619222640993,1.9370032548904421,3.0553119182586674,-1.349231481552124,4.800132274627686,0.2572686970233918
1.0824807882308962,3.418607711791992,4.96547794342041,-1.250629186630249,4.923652172088624,0.49770843982696533
1.7244009971618652,5.3011627197265625,4.580556869506836,-1.2759814262390137,5.195656776428223,0.621876895427704
1.7955975532531738,6.214328765869141,2.2779335975646973,-1.4057449102401736,5.3470869064331055,0.5520305037498475
2.5032627582550053,5.227410316467285,0.773982346057892,-1.3537366390228271,5.230196475982667,0.32309105992317205
4.000601291656495,5.2739973068237305,0.7569494843482972,-1.0876379013061523,5.067029476165772,0.04789099842309952
5.4913697242736825,5.957557201385499,0.9254937171936035,-0.9423798322677612,4.986258506774902,-0.20923276245594027
7.234829902648926,5.354769229888917,0.45073184370994573,-0.8680561780929565,4.916800975799561,-0.37014853954315186
8.256380081176758,4.794547557830811,-1.1405041217803955,-0.723987638950348,4.733838081359863,-0.41898149251937866
9.131067276000977,3.916825294494629,-2.765018224716187,-0.4971050322055817,4.327624320983887,-0.43016293644905096
10.742364883422852,2.840948820114136,-3.5670199394226074,-0.14928005635738376,3.7176520824432377,-0.427094042301178
12.891836166381836,2.6974956989288335,-3.4628274440765385,0.22902432084083557,2.9799921512603764,-0.40757882595062256
15.89851188659668,3.2132103443145756,-2.656789779663086,0.4630016088485718,2.2092516422271733,-0.3214623630046845
19.63534736633301,3.1703755855560307,-1.0279468297958376,0.5939066410064697,1.557260870933533,-0.16267436742782593
22.027130126953125,2.785354375839234,0.5368723273277284,0.7571349143981934,1.1186740398406982,0.018371241167187694
22.514869689941406,2.8903861045837402,0.7006202340126039,0.9142913222312928,0.8575668334960938,0.18152432143688205
21.46847915649414,3.6467621326446538,-0.6356576681137085,0.9545890092849731,0.5968183875083924,0.381949931383133
18.61601066589356,3.8669197559356694,-3.9184033870697026,0.8567482233047485,0.17011855542659762,0.589725136756897
15.439730644226076,2.6385967731475835,-6.72645378112793,0.7772275805473329,-0.5369333624839784,0.8220908641815186
13.062610626220703,0.9143084287643433,-7.816236019134522,0.8610806465148926,-1.3073045015335085,1.1078503131866455
37.659515380859375,8.039932250976562,-5.59760332107544,0.34196990728378296,-2.9538710117340092,1.5081938505172732
87.77348327636719,37.84383773803712,59.53411102294922,-2.755689382553101,-0.3732299208641052,0.9068964123725892
-19.163375854492188,0.42234015464782715,-3.2324831485748295,-0.27268502116203314,1.9934796094894411,-0.10632658004760742
4.442817687988281,-9.764079093933107,16.935621261596683,-0.1641194969415665,0.99016273021698,0.340295284986496
-13.548336982727053,-2.7439410686492924,7.378981113433839,-0.008023999631404877,-0.2237801402807236,0.14052830636501315
4.137183666229249,-4.076807975769043,15.224201202392578,-0.13772594928741455,-0.5601186156272889,-0.8102799654006958
8.320323944091797,-10.939180374145508,8.481626510620117,0.2917219698429108,-0.6645177006721498,-1.0779383182525635
7.5830397605896005,8.873998641967773,8.344367980957031,0.4812946915626526,-0.33217462897300726,-0.8287287950515747
9.662346839904787,3.084677934646607,7.90458869934082,0.22566537559032443,0.0318719744682312,-0.48354780673980713
7.369760990142823,0.933603584766388,8.584158897399904,0.1260777711868286,0.40332517027854925,-0.08815130591392517
4.324061870574952,-1.3685086965560915,9.86288356781006,0.15266539156436923,0.5253619551658631,-0.05473566800355911
3.363707780838013,-2.017576932907105,10.275418281555178,0.16520890593528748,0.4130242764949799,-0.13271105289459229
4.128791332244874,-1.1744803190231325,10.073837280273438,0.20280125737190247,0.2566193044185639,-0.2111807614564896
4.747921943664551,1.3600192070007324,10.063046455383303,0.12099547684192657,0.16737170517444613,-0.1271798014640808
4.672959327697754,1.0984933376312256,10.017230033874513,-0.02921530790627003,0.10325542837381364,-0.0012798439711332321
4.0387678146362305,0.0645533949136734,10.080559730529787,-0.08992165327072144,0.024242704734206203,0.073054239153862
3.8454113006591797,-1.1603664159774782,10.06593990325928,-0.08036703616380693,-0.09279888868331909,0.04517742246389389
4.072685718536378,-0.906250298023224,9.963803291320803,-0.05464861169457436,-0.20260334014892578,-0.0038438218180090193
4.440206527709961,-0.03946007788181305,9.909543037414553,-0.08987196534872056,-0.27404186129570013,-0.001661388436332345
4.607314586639405,0.40435928106307983,9.844714164733888,-0.15341381728649142,-0.3202383518218994,0.0468529723584652
4.559971809387207,-0.35449767112731934,9.708335876464844,-0.19661924242973328,-0.34308013319969183,0.08350662142038347
4.4976043701171875,-0.872839391231537,9.590512275695803,-0.19305330514907837,-0.37785610556602484,0.06718744337558746
4.59231996536255,-1.307024121284485,9.44739627838135,-0.1561202108860016,-0.39469319581985474,0.03363809362053872
4.6471099853515625,-1.1654846668243408,9.39619541168213,-0.11147479712963104,-0.4060430824756623,0.0065114302560687065
4.733427524566651,-0.9319123625755311,9.454109191894531,-0.0743163749575615,-0.42137259244918823,-0.0055711157619953156
5.001853466033936,-0.857183873653412,9.287859916687013,-0.06133058294653893,-0.4005117416381836,-0.018902046605944637
5.149635314941406,-0.8493689298629761,9.082456588745117,-0.06683633476495744,-0.3407373130321503,-0.031971052289009094
5.022583961486816,-0.8347618579864502,9.074767112731935,-0.03569056838750839,-0.2948600351810456,-0.03134523332118988
4.765567779541016,-0.383117288351059,9.401674270629883,-0.04020575806498528,-0.2912740111351013,-0.0063802581280469894
4.5339064598083505,-0.2811821401119233,9.593170166015625,-0.06898099929094316,-0.34241312742233276,0.00467469496652484
4.248200416564941,-0.5537093877792358,9.686757087707521,-0.09757485240697862,-0.4317984879016877,0.015726733952760696
4.365437030792237,-0.382476806640625,9.556397438049318,-0.10980519652366638,-0.5435681939125062,0.02766869217157364
4.798269271850586,-0.4710060954093933,9.471818923950195,-0.1307502239942551,-0.5999248027801514,0.034619562327861786
4.746500492095948,-0.8317943811416626,9.101748466491701,-0.13171431422233582,-0.6470258831977845,0.02457611635327339
4.838589668273926,-0.9309573769569398,9.039954185485842,-0.13553476333618164,-0.6716991662979126,0.014549494720995428
4.662435531616211,-0.7389309406280518,9.03302001953125,-0.12026127427816392,-0.7491203546524048,-0.00852253567427397
4.778485298156738,-0.691379189491272,9.247337341308594,-0.17571592330932617,-0.8020462393760682,-0.04697034135460854
4.610628128051758,-1.2065558433532715,9.151527404785156,-0.15578001737594604,-0.8847745060920716,-0.08795382082462311
5.147530555725098,-0.9032233953475952,9.007511138916016,-0.1274261474609375,-0.9366097450256348,-0.11992334574460985
5.991074085235597,-0.7413129210472108,8.7850341796875,-0.08000908046960832,-0.9094221591949463,-0.11827421933412553
5.852465152740479,-0.39744737744331365,8.575329780578615,-0.04110821709036828,-0.841667652130127,-0.09251818060874939
5.429340362548828,-1.3211365938186648,8.620305061340334,0.010764333419501783,-0.8035824298858643,-0.11399955302476884
5.1449995040893555,-1.9606803655624392,8.652432441711428,0.11297250539064409,-0.8425464034080506,-0.1791636049747467
5.418001174926758,-1.4695264101028445,8.708336830139162,0.16386677324771884,-0.880256175994873,-0.24156360328197482
5.009269714355469,-1.6679885387420654,8.87518310546875,0.18875634670257568,-0.9453465342521669,-0.3016113936901093
5.275481224060059,-0.975539267063141,9.225016593933107,0.23401506245136264,-1.071655511856079,-0.3206279575824738
5.513051509857179,-0.8084344863891602,9.340333938598633,0.2574208378791809,-1.1774883270263672,-0.3365826308727265
5.437837600708008,-0.6266632676124574,9.003822326660156,0.2622750103473664,-1.3185501098632812,-0.36030337214469915
5.684692859649659,0.009792745113372803,9.557240486145021,0.2383386790752411,-1.4601348638534548,-0.36857798695564276
5.687461853027344,0.017824679613113403,9.38366222381592,0.22545677423477173,-1.6461590528488161,-0.3529582619667053
5.289180755615234,0.22882153093814853,9.31838607788086,0.2088343054056168,-1.8779202699661257,-0.32592540979385376
5.32255744934082,-0.1154017820954323,9.138548851013185,0.22074575722217563,-2.1375465393066406,-0.3232016265392304
5.3931288719177255,-0.18323983252048495,8.899345397949219,0.26564684510231024,-2.4711155891418457,-0.3396175503730774
5.421407699584961,-0.3880283832550049,8.605870246887209,0.35845103859901434,-2.83836030960083,-0.36001518368721014
5.874828338623047,-0.04098585247993469,8.592500686645508,0.4285926818847656,-3.246487617492676,-0.329382210969925
6.194851875305176,0.6310261487960815,9.129312515258789,0.46854060888290405,-3.707481145858765,-0.21595129370689392
7.466756343841554,0.7512799501419067,10.519237518310547,0.47774615883827215,-4.212018013000488,-0.033801473677158356
9.631032943725586,1.7925901412963867,12.143941879272461,0.23365749418735507,-4.564308166503906,0.2576782405376435
13.764880180358888,1.6027709245681765,14.13427257537842,-0.39303568005561834,-4.720784664154054,0.5975301265716553
16.6017017364502,0.10288003087043762,14.683802604675295,-0.825615406036377,-4.501058101654054,0.9029864072799683
23.20149421691895,-1.460803747177124,16.214107513427734,-0.8220586776733398,-4.108153820037843,0.8666872382164003
26.895273208618168,-1.456207871437073,10.761693954467773,-0.9930357336997987,-3.842708110809326,0.6482569575309755
28.192184448242188,-6.716389179229737,0.08517223596572876,-0.16047812998294833,-3.80072569847107,-0.19206395745277405
32.439170837402344,-7.613564491271973,1.539407730102539,1.723355770111084,-3.9521787166595463,-1.10062575340271
30.699781417846683,-4.264939308166504,1.9494061470031738,3.187229633331299,-3.749067068099976,-1.509984374046326
35.30319595336915,-0.24560678005218506,5.191133499145508,3.825674533843994,-4.338378429412843,-2.0054917335510254
40.81499481201172,3.851122617721558,20.315660476684574,3.1349952220916752,-3.4925119876861577,-2.1077728271484375
28.071674346923828,5.384761333465577,17.25056648254395,1.5099163055419922,-2.4273450374603276,-1.9659538269042969
25.525169372558594,4.46431827545166,17.34783172607422,-0.18885746598243713,-1.7784515619277956,-1.9434651136398318
20.256702423095703,1.9000991582870486,15.733838081359865,-1.6289303302764893,-1.11438524723053,-1.929102897644043
15.858595848083498,-2.2396786212921147,14.036662101745607,-2.4882514476776127,-0.6187327504158021,-2.018308639526367
11.215555191040039,-7.152803421020508,12.458200454711914,-2.4606170654296875,-0.2301360219717026,-2.135687828063965
6.871730804443359,-11.455022811889648,11.18837642669678,-1.407606601715088,0.03909751400351525,-2.161779165267945
3.8959121704101562,-10.928395271301271,11.41145420074463,0.0468747802078724,0.3087483048439026,-2.122407674789429
2.970224380493164,-7.141939640045167,13.093057632446289,0.881406605243683,0.7640295624732972,-1.9128553867340088
0.024429738521575928,-3.8330078125,13.033159255981445,0.9216426014900209,1.4242358207702637,-1.5607453584671023
-4.638232231140137,-2.696448802947998,10.120704650878906,0.5346485376358032,2.025248289108277,-1.222952723503113
-9.39662265777588,-3.662461280822754,5.877416610717773,0.14655779302120212,2.270839214324951,-0.9636558890342714
-12.318658828735352,-5.137017250061035,2.381063938140869,0.039306119084358215,2.051300525665283,-0.7889257073402406
-12.45547103881836,-4.94788694381714,1.7350784540176394,0.05443562567234039,1.647808909416199,-0.553868293762207
-10.525261878967287,-3.9947865009307866,3.596249580383301,-0.1150493323802948,1.426185727119446,-0.2163507789373398
-9.004378318786623,-4.560323238372804,5.157130718231202,-0.34886750578880316,1.5309622287750244,0.18511204421520236
-8.677968025207521,-5.102747917175293,5.131213188171387,-0.4301435947418213,1.8621654510498047,0.5743311047554017
-9.439075469970703,-4.4385952949523935,3.677907228469849,-0.4082470834255219,2.147716522216797,0.8924112915992738
-9.49330806732178,-2.721043586730957,2.5293695926666264,-0.48827773332595825,2.2833578586578374,1.1536997556686404
-8.902441978454592,-1.7405378818511963,1.9764735698699951,-0.6841060519218446,2.384230136871338,1.3493739366531374
-7.663627624511719,-1.5747727155685427,2.4046239852905273,-0.8599742054939271,2.5333607196807866,1.4784281253814697
-5.479691505432129,-1.2123875617980957,3.5700597763061523,-0.9789659976959229,2.837946176528931,1.5979299545288086
-4.145926952362061,-0.797340214252472,3.56996488571167,-1.0289347171783447,3.296066522598267,1.727128863334656
-3.614430665969849,0.4950913488864899,2.441321849822998,-1.0881257057189941,3.693729162216187,1.8459842205047607
-2.60573148727417,2.9042320251464844,0.9194761514663696,-1.2786672115325928,3.9059667587280273,1.9218109846115115
-0.6533095240592958,4.428735256195069,-0.014765322208404541,-1.562436819076538,3.958202123641968,1.8761341571807861
2.6310644149780273,4.300624370574952,0.2713137567043305,-1.7084866762161257,3.952535629272461,1.682795524597168
6.0641493797302255,3.2829053401947026,0.40854281187057495,-1.5006655454635622,3.958909034729004,1.3840931653976443
9.558952331542969,3.25519347190857,0.20845040678977966,-1.052471995353699,3.9152595996856694,1.0549349784851074
13.015902519226076,4.455841064453125,-0.7556118369102479,-0.632621467113495,3.742819309234619,0.7690154910087587
16.432996749877933,4.751800537109375,-1.647863268852234,-0.37069016695022583,3.426123380661011,0.5157372355461122
19.72811317443848,3.6500389575958256,-1.6396871805191042,-0.06857255101203918,3.053268194198609,0.3094847798347473
22.077581405639652,2.8448915481567383,-1.1027231216430664,0.373337596654892,2.70647406578064,0.17415738105773926
22.80788612365723,2.680423974990845,-1.3167227506637575,0.7973513603210449,2.4175302982330327,0.09259925782680511
21.642208099365234,3.298995018005371,-2.6448194980621342,1.0766725540161133,1.9710131883621218,0.09084985405206682
19.361242294311527,4.253915309906007,-3.9110279083251953,1.0901819467544558,1.3817377090454102,0.2016837447881699
17.301702499389652,4.271565914154054,-4.083840847015382,0.9561067819595337,0.7729583978652954,0.30571779608726507
23.52918243408203,13.29922866821289,-4.952343463897706,0.448402613401413,0.07905519008636475,0.4088254272937775
48.724456787109375,23.430910110473636,19.6033935546875,-2.3791339397430424,-0.9618864059448242,0.4272937774658203
24.526891708374027,5.416292667388917,14.155561447143555,-2.477153539657593,2.653623104095459,0.5088918805122377
1.138761878013611,-6.2178692817688,6.56919813156128,-1.5119091272354128,2.1639549732208256,1.542891502380371
0.8421781063079834,12.583452224731445,14.80469608306885,-1.526041030883789,2.7057712078094487,1.28619384765625
5.137297630310059,-14.613688468933107,15.353446960449219,-1.1918506622314453,3.1294438838958745,0.04418865218758584
3.5212597846984863,-16.478103637695312,9.48597812652588,0.13551849126815796,2.211135625839234,-0.08563166856765747
-5.457589626312257,-2.8400743007659917,14.743745803833008,0.48894184827804565,1.0965328216552734,-0.3544797003269196
-1.5727623701095583,-2.1837065219879155,12.878830909729006,0.5337004661560059,0.0968422368168831,-0.690313458442688
5.602785587310792,4.378362178802491,10.943238258361818,0.33754578232765203,-0.44135773181915283,-0.5999151468276978
7.330817699432374,4.507534980773926,8.90401363372803,-0.015804981812834743,-0.4720837473869324,-0.23847426474094394
7.8083906173706055,-0.1534154713153839,7.772496700286866,-0.09175366908311845,-0.1774934679269791,-0.02146044746041298
6.065166473388672,-1.0972148180007937,8.332171440124513,-0.050032850354909904,0.11367824673652649,0.019607158377766613
4.865416526794434,-0.19584526121616366,9.703680038452148,-0.058162152767181396,0.21071816980838778,0.028887981548905376
4.027351379394531,0.3629000782966614,10.251163482666016,-0.1378875970840454,0.12501977384090426,0.09867261350154877
4.123773574829102,-0.13006597757339478,10.12095355987549,-0.21417723596096042,0.00832748878747225,0.14717301726341248
4.728408336639405,-0.6639102697372437,9.737823486328125,-0.26314932107925415,-0.05799183622002602,0.16823670268058777
4.642924785614015,-0.3840218186378479,9.784508705139162,-0.2776967585086823,-0.10724586248397827,0.18294525146484375
4.330841064453125,-0.48531919717788696,9.985846519470217,-0.2970427870750427,-0.16916055977344516,0.18848064541816711
4.038344383239746,-0.812983512878418,9.876829147338867,-0.29856923222541815,-0.27627101540565496,0.16494950652122498
4.471408367156983,-1.0683833360672,9.875105857849123,-0.28621625900268555,-0.39941838383674627,0.10009533166885376
4.2122802734375,-0.8020926713943481,9.582405090332031,-0.32014080882072454,-0.4566470980644226,0.07061748206615448
4.793801784515382,-0.6341956853866577,9.612174987792969,-0.358862191438675,-0.5254398584365845,0.03836767747998238
4.693913459777832,-0.6820632219314575,9.558712959289553,-0.36501026153564453,-0.5606362819671631,0.07618156820535661
4.659749507904054,-1.0043445825576784,9.16748046875,-0.3539585471153259,-0.590267837047577,0.10879397392272949
4.920100212097168,-1.1466212272644043,9.304774284362795,-0.36515250802040106,-0.6274611949920654,0.12526342272758484
4.842069149017335,-1.0487325191497803,9.300904273986818,-0.3350949287414551,-0.6568050980567933,0.13783669471740723
5.187828063964844,-1.2481834888458252,9.049208641052248,-0.3086535334587097,-0.6610821485519409,0.12283258885145189
5.244923114776612,-1.0961923599243164,8.842051506042482,-0.30054345726966863,-0.6325156688690186,0.1275676637887955
5.3349456787109375,-0.8846597671508789,9.000486373901367,-0.2980921566486359,-0.6058697700500488,0.13715127110481262
5.567238330841065,-1.0646915435791016,8.862406730651857,-0.2880801558494568,-0.5737550854682923,0.14001065492630005
5.454668998718262,-1.0294131040573122,8.74120616912842,-0.28551742434501654,-0.5323708653450013,0.1543373465538025
5.340048789978027,-1.4428330659866335,8.678548812866211,-0.27802076935768133,-0.4870779514312744,0.13777835667133334
5.426207542419434,-1.5551869869232178,8.767127990722656,-0.24285158514976501,-0.4641334712505341,0.10483235865831377
5.423872947692871,-1.6963441371917725,8.66061019897461,-0.21715658903121948,-0.4270253479480744,0.08102090656757355
5.381700038909913,-2.1683783531188965,8.305303573608398,-0.16598498821258545,-0.39928895235061646,0.029267461970448497
5.635764598846436,-1.7282019853591921,8.39011859893799,-0.11730045080184937,-0.36720976233482366,-0.013620980083942413
5.737298488616944,-1.4091238975524902,8.610332489013672,-0.09149396419525146,-0.30289450287818914,-0.028773972764611248
5.949831008911133,-1.6734426021575928,8.348143577575685,-0.062434513121843345,-0.23634696006774902,-0.038787823170423515
6.015073776245117,-1.4983839988708496,8.342803955078125,-0.035140156745910645,-0.14293009042739868,-0.042050588876008994
5.789494514465332,-1.238098382949829,8.545328140258789,-0.007935438305139542,-0.06068297848105431,-0.03301040083169937
5.663413524627686,-1.3569626808166504,8.499791145324709,0.0024181769695132975,-0.008672170341014862,-0.028742771595716476
5.220410346984863,-1.7918163537979128,8.561483383178711,0.03799083456397057,0.007442465052008629,-0.06061764433979989
5.114556312561035,-1.5432287454605105,8.788322448730469,0.07040073722600938,-0.02578866668045521,-0.10287164151668549
5.412420272827148,-1.1540256738662722,8.766606330871584,0.08134704828262329,-0.06400708109140398,-0.11587630212306976
4.9404263496398935,-1.2784314155578613,8.749692916870117,0.09170633554458618,-0.08789464086294176,-0.12825737893581393
4.634315490722656,-1.074418902397156,9.252881050109865,0.12331508845090867,-0.19575047492980957,-0.14956222474575046
4.486135959625245,-1.0221552848815918,9.582411766052248,0.10665838420391083,-0.3585776090621948,-0.16983704268932345
4.1829833984375,-1.1089327335357666,9.795234680175781,0.05923674628138543,-0.5792578458786011,-0.21377895772457126
4.331713199615479,-0.9712285995483398,9.831318855285646,0.010947438888251783,-0.8329348564147949,-0.2557142376899719
4.871879577636719,-0.5915796160697938,9.943231582641602,-0.01445780135691166,-1.056582808494568,-0.268351674079895
4.624914169311523,-1.2800239324569704,10.126320838928224,0.0657060816884041,-1.2614475488662722,-0.26617956161499023
4.497126102447511,-0.9510250091552734,10.03941535949707,0.10463009029626848,-1.5378742218017578,-0.28455248475074774
4.764794826507569,-1.31681227684021,9.83097553253174,0.15309303998947144,-1.8504344224929812,-0.31569924950599676
4.699166297912598,-0.9788824915885926,9.621880531311037,0.20733261108398438,-2.2072374820709233,-0.3553028702735901
4.819384098052979,-0.926159143447876,9.236721992492678,0.2542552053928376,-2.6024334430694585,-0.3723640441894531
4.902360916137695,-0.5942949056625366,9.333603858947756,0.30792066454887396,-3.0597991943359375,-0.3459863960742951
5.281141757965089,-0.26437982916831976,9.168036460876467,0.3426314294338227,-3.5536885261535645,-0.32567155361175537
6.121416091918945,0.14725634455680847,9.516165733337404,0.3259906768798828,-3.9896590709686284,-0.20013916492462158
7.037679195404054,0.3936670422554016,10.76876449584961,0.30681136250495916,-4.418198108673097,0.03791505843400955
9.674549102783203,-0.648291826248169,12.182903289794922,0.24571681022644043,-4.603646755218507,0.2787870168685913
11.698182106018068,-1.6833609342575075,13.878285408020021,0.08125173300504686,-4.607513427734375,0.5179309844970703
14.132976531982422,-2.1722230911254883,13.148896217346193,0.06059029698371887,-4.429791927337647,0.4509902596473694
21.97869682312012,-3.3976006507873535,14.352148056030273,0.17184779047966003,-4.1297407150268555,0.4446286261081696
24.967247009277344,-3.613513469696045,10.261820793151857,0.622106671333313,-3.7275550365448002,0.29165834188461304
27.302505493164062,-1.740147948265076,3.1175570487976074,1.0385507345199587,-3.7443294525146484,-0.1306445598602295
31.419305801391605,-1.945122838020325,0.9993059039115907,1.5054689645767214,-4.044439315795898,-0.7759079337120057
32.59009170532227,-0.40807366371154785,4.279572486877441,2.028199911117554,-3.821537256240845,-1.3622322082519531
33.83395004272462,0.3387497067451477,6.124276161193848,2.0766191482543945,-3.8525741100311284,-1.9490211009979248
41.72827529907227,2.47069001197815,20.929088592529297,1.4540208578109743,-2.9142117500305176,-2.2214841842651367
27.67601776123047,1.2802925109863281,16.41502952575684,0.3305016756057739,-1.6587644815444949,-2.133340358734131
21.948558807373047,-0.34196746349334717,13.05491352081299,-0.6102480292320253,-1.3179856538772585,-2.2334160804748535
16.310863494873047,-2.173409938812256,10.313665390014648,-1.0154114961624148,-1.3240232467651367,-2.45439887046814
13.131079673767092,-3.7094202041625977,10.037425041198732,-1.2520854473114014,-1.539450287818909,-2.6099174022674565
12.586877822875977,-6.445234298706055,11.469694137573242,-1.074514985084534,-1.5196378231048584,-2.6885826587677006
10.876696586608888,-9.556759834289553,12.30154037475586,-0.334449827671051,-1.1906037330627441,-2.6036231517791752
8.05129146575928,-8.958453178405763,12.80526351928711,0.6058565378189087,-0.6913496851921083,-2.4551925659179688
4.749903678894043,-6.573453903198242,13.195201873779297,1.0988417863845827,-0.14772453904151917,-2.178894519805908
1.325803518295288,-5.120220661163331,12.582796096801758,1.0813417434692383,0.33490863442420965,-1.7869973182678223
-1.3988580703735352,-5.484997272491456,11.142964363098146,0.9052178263664247,0.7408745884895326,-1.3862686157226562
-3.4609587192535405,-6.185366153717042,9.67434597015381,0.8717475533485414,1.106081247329712,-1.059746861457825
-4.618638515472413,-5.933304786682129,9.126699447631836,0.8745568990707397,1.4186345338821413,-0.7780957818031312
-5.633442401885987,-5.460824489593507,8.09028434753418,0.7900770902633667,1.7177633047103884,-0.4865070581436157
-7.416711330413819,-5.172088623046875,6.0896501541137695,0.6405777931213379,1.9545307159423828,-0.17429630458354953
-8.855011940002443,-4.71942138671875,4.610024452209473,0.4357877671718598,1.9972000122070312,0.13554452359676364
-8.863851547241211,-4.066002368927003,4.267856121063233,0.12156137079000474,1.982511281967163,0.5005075931549072
-8.90869140625,-4.209012031555176,3.711069822311402,-0.1703246980905533,2.0542502403259277,0.8486140370368959
-8.684184074401857,-4.664693355560304,3.3855762481689453,-0.2921567261219025,2.164024114608765,1.1549112796783447
-7.777222156524659,-4.0991716384887695,3.682546615600586,-0.32778382301330566,2.3238508701324467,1.4034006595611572
-7.114139080047608,-2.5781350135803223,3.8563468456268315,-0.46188682317733765,2.5831506252288823,1.6016393899917605
-7.0564637184143075,-1.9877667427062988,3.214617013931275,-0.6586185693740845,2.8722393512725835,1.7230758666992188
-6.438268184661866,-1.2510974407196045,2.8833351135253906,-0.8381800651550293,3.1095786094665527,1.7764016389846804
-5.39290475845337,-0.1412830352783203,2.6900923252105717,-1.0171749591827393,3.3680136203765874,1.783595085144043
-4.334276676177979,0.6612576246261597,2.0873606204986577,-1.1845388412475586,3.6040680408477788,1.7398716211318972
-3.382445096969605,1.9031882286071777,1.6537551879882812,-1.3061110973358154,3.7515518665313725,1.6332190036773682
-0.7691054344177246,3.1900427341461186,2.1141712665557866,-1.4698311090469363,3.888771295547486,1.4225802421569824
2.3100533485412598,3.1818203926086426,2.109238624572754,-1.543588399887085,4.067407131195069,1.1041061878204346
4.377166271209718,2.589617013931275,1.2666258811950684,-1.3767526149749756,4.21244764328003,0.7229959368705751
6.771015644073487,2.9820868968963627,0.6359038352966309,-1.129240155220032,4.242887496948242,0.35299971699714666
10.00537967681885,3.922619342803955,0.5597884654998779,-1.0161335468292236,4.179442405700684,0.0813058987259865
14.342162132263185,3.1061625480651855,0.5187792778015137,-1.0033046007156374,4.046404838562012,-0.08772214502096178
17.90801048278809,0.9755672812461854,-0.05539768189191818,-0.7896195650100708,3.852110624313355,-0.12412407249212266
19.583871841430668,-0.1365668773651123,-1.3482428789138796,-0.429451584815979,3.545368909835816,-0.004178568720817566
20.448186874389652,-0.1302395462989807,-2.713506937026978,-0.14646638929843905,3.0445368289947514,0.31021714210510254
20.868221282958984,-0.28771859407424927,-3.606992721557617,-0.006572744343429805,2.397028923034668,0.7860888838768006
20.41979789733887,0.8937092423439027,-4.336531162261964,0.059538368135690696,1.6948778629302979,1.295445203781128
18.672889709472656,2.8801045417785645,-7.000995159149171,-0.07227583229541779,0.9582552313804628,1.7069571018218994
12.924717903137209,3.5044312477111816,-13.528189659118654,-0.16175907850265503,-0.09622028470039368,1.8375412225723269
64.84819030761719,27.61293983459473,14.515047073364258,-2.2743616104125977,-3.367238283157349,1.1575889587402344
40.46765518188477,31.959095001220703,34.138206481933594,-0.2670482397079468,5.009764194488526,-1.3620389699935915
-2.2547867298126225,-6.561246395111085,0.45795708894729614,-1.6453514099121094,1.4785405397415163,-0.24864503741264343
-2.8063781261444096,-1.5665020942687988,13.164056777954102,-0.1431485861539841,2.97317385673523,0.2705351710319519
0.5595394372940063,2.7541930675506596,20.00771713256836,-0.692261040210724,1.787796974182129,-0.26730027794837957
3.944728374481201,-16.042581558227543,7.455456733703613,0.4449988603591919,1.8347934484481814,-0.6740630269050599
-0.5347769856452943,3.1048583984375,14.166662216186523,0.3387148380279541,0.6894380450248719,-0.09312088787555695
1.2398324012756348,-6.033347129821777,11.497974395751953,0.3635569512844086,-0.015419867821037771,-0.4246375560760498
4.7996625900268555,0.6958415508270264,10.015757560729982,0.5091863870620728,-0.2152926176786423,-0.5279755592346191
7.335114479064941,2.438457489013672,8.4444580078125,0.33219012618064886,-0.12455011904239655,-0.3810310959815979
7.327309608459473,2.196046829223633,8.450450897216797,0.17703881859779358,0.17972882091999057,-0.15126362442970276
5.654092311859132,-1.174398422241211,8.704137802124023,0.16862533986568454,0.41096547245979315,-0.06281834840774536
4.185707092285156,-0.38002538681030273,9.795351982116701,0.18584807217121127,0.4534151554107666,-0.03330891206860543
3.9965240955352788,-0.18050225079059604,10.193057060241701,0.14444658160209656,0.3432442247867585,-0.01955622993409634
4.096429347991944,0.07905150949954987,10.131243705749513,0.08716072887182237,0.23891392350196838,-0.004811431746929885
4.401820659637452,0.45779320597648626,9.901251792907717,0.00863208994269371,0.1770153045654297,0.020588224753737453
4.415883541107179,0.11581423878669739,9.805544853210451,-0.04472452402114868,0.1283262223005295,0.062119632959365845
4.431923866271973,0.08520781993865967,10.03973388671875,-0.07934511452913286,0.059348270297050476,0.09722594916820526
4.164186477661133,-0.337702214717865,9.852975845336914,-0.11796589195728302,-0.0008049097959883512,0.12043106555938721
3.9847924709320073,-1.0054655075073242,9.6791467666626,-0.10372012853622437,-0.08070299029350281,0.08632697910070421
4.254987716674805,-0.15285940468311313,9.964028358459474,-0.12470489740371704,-0.14685373008251193,0.0901264101266861
4.3046231269836435,-0.3421853184700012,9.786732673645021,-0.14897990226745605,-0.22104461491107943,0.09565555304288866
4.599841117858887,0.0759117603302002,9.612034797668459,-0.19111603498458862,-0.24373559653759005,0.14491698145866394
4.472096920013429,-0.010075390338897705,9.676537513732912,-0.22813445329666138,-0.27920347452163696,0.1651691645383835
4.4520630836486825,0.03405773639678955,9.809521675109865,-0.2686752676963806,-0.31273248791694647,0.19927585124969482
4.066021442413331,-1.093947172164917,9.509763717651367,-0.253240168094635,-0.3844758570194245,0.16716600954532626
4.417833805084229,-0.3251806795597077,9.904702186584474,-0.254341870546341,-0.4487636685371399,0.16187678277492526
4.2407073974609375,-0.777341663837433,9.659581184387209,-0.24670135974884033,-0.5003554821014404,0.13722391426563266
4.788537979125977,-0.766628623008728,9.40323257446289,-0.2783148586750031,-0.503876805305481,0.12105412036180498
4.935358047485352,-0.853204905986786,9.177310943603516,-0.2552098035812378,-0.49113896489143377,0.11979613453149797
4.929272174835206,-1.310890078544617,8.790342330932617,-0.24721840023994446,-0.45878282189369207,0.12019588053226471
4.826208114624023,-1.291541337966919,9.039319038391115,-0.21908780932426453,-0.44549888372421265,0.1248070076107979
4.46092176437378,-1.4016648530960085,9.192320823669435,-0.20252819359302524,-0.4388417601585388,0.08239925652742387
4.5276808738708505,-1.7470761537551882,9.066582679748537,-0.15706533193588257,-0.4578141868114472,0.011050469242036344
4.549714088439941,-1.4680321216583252,9.233648300170898,-0.12712182104587558,-0.48504018783569336,-0.0552780069410801
4.764823913574219,-1.251781702041626,9.085745811462404,-0.08312205970287323,-0.5053757429122925,-0.0929396077990532
5.13832712173462,-1.0154476165771484,8.815361976623537,-0.038082916289567954,-0.5142903327941895,-0.11290741711854936
5.231932163238526,-0.5964726805686952,8.993289947509766,-0.018270088359713558,-0.48600703477859497,-0.11171327531337738
5.197040081024171,-0.34743452072143555,9.162687301635742,-0.032526545226573944,-0.47015920281410223,-0.09137171506881714
5.111713409423828,-0.39299693703651434,9.296018600463867,-0.0485505796968937,-0.4699027836322785,-0.06903097033500671
5.179152965545655,-0.5089200139045716,9.168132781982422,-0.06170839443802834,-0.4702959656715393,-0.053995724767446525
5.173100948333741,-0.505635142326355,9.135077476501467,-0.05901772156357766,-0.4835919737815857,-0.032347872853279114
4.843557357788086,-0.858403205871582,9.274421691894531,-0.049075715243816376,-0.526170313358307,-0.027692317962646484
4.4199676513671875,-1.8772102594375613,9.316025733947756,0.014423338696360588,-0.6005326509475708,-0.07464807480573656
4.454425334930421,-1.9019787311553955,9.137228012084961,0.08560562133789062,-0.7179453969001771,-0.16151878237724304
5.199777603149414,-0.9349241852760316,9.185972213745117,0.11418870091438293,-0.835171401500702,-0.2081743031740189
5.247620582580566,-0.7654097080230713,9.435491561889648,0.1270055323839188,-0.8917359113693237,-0.21010039746761325
4.926968574523926,-1.1193701028823855,9.498032569885256,0.1624180227518082,-0.9839890599250795,-0.21605044603347778
4.83954954147339,-0.8685726523399354,9.59353256225586,0.20756813883781433,-1.1384381055831911,-0.23137891292572021
5.140468120574952,-0.15386229753494263,9.984745025634766,0.18509253859519958,-1.3235679864883425,-0.21556036174297336
5.024899482727051,-0.20060791075229648,9.972511291503906,0.11254642903804779,-1.4909130334854128,-0.18945252895355225
4.809687137603761,-0.7152806520462036,9.867983818054201,0.09424065798521043,-1.7325488328933718,-0.19588643312454224
4.766719341278077,-1.014805555343628,9.470327377319336,0.14308108389377597,-2.026400566101074,-0.24569632112979892
4.44944715499878,-0.5297982692718506,9.121469497680664,0.2193587273359299,-2.3907346725463867,-0.30001378059387207
4.59326982498169,-0.6805462241172792,8.95180416107178,0.3315779268741608,-2.8047356605529785,-0.3729707300662995
5.27506971359253,-0.7055177688598633,9.04781723022461,0.4339852631092072,-3.2469389438629155,-0.40496933460235596
5.353865623474121,-0.30588737130165106,9.432662963867188,0.5308095812797547,-3.7133193016052246,-0.3663644492626191
6.445055484771729,0.19965443015098572,10.494736671447756,0.5945550203323364,-4.199208736419679,-0.2564967572689057
8.152987480163576,-0.8806066513061523,11.832829475402834,0.6386504769325257,-4.607108116149902,-0.10010462254285814
10.806297302246094,-0.8559992909431459,13.88601589202881,0.5625168085098267,-4.817157745361328,0.015132040716707708
15.84965229034424,-1.5598742961883545,15.414203643798828,0.3119405508041382,-4.785869121551515,0.17028337717056274
22.192428588867188,-2.7053990364074707,16.26596260070801,0.4016007483005524,-4.435413360595703,0.13704881072044373
27.52227020263672,-2.089817523956299,12.212437629699709,0.6034409999847412,-4.042203426361085,-0.07179360091686249
32.47379684448243,-5.198360443115234,5.280782699584961,0.9684514999389648,-3.8092293739318848,-0.45714291930198675
32.98322296142578,-6.217673778533936,-0.12376987934112549,2.2918434143066406,-4.024011135101319,-1.105945348739624
31.846759796142578,-2.2862539291381836,1.6514222621917725,3.288538932800293,-4.027763843536378,-1.324151396751404
37.02030944824219,3.3115620613098145,6.01906681060791,3.2030372619628906,-4.42187261581421,-1.4652538299560547
39.6553077697754,4.486774921417237,19.409891128540043,2.0280225276947026,-3.3977005481719975,-1.2860357761383057
26.144384384155277,3.6495308876037598,14.461510658264162,0.5681552886962891,-2.4551537036895756,-1.040266990661621
21.91027069091797,1.3021655082702637,12.775899887084961,-0.43903666734695435,-2.1601207256317143,-1.1053608655929568
17.142059326171875,-0.14605453610420227,11.631072998046875,-1.0857397317886355,-1.9837565422058105,-1.172321438789368
13.531668663024904,-1.641129493713379,11.428460121154787,-1.5455719232559206,-1.8267391920089724,-1.2779884338378906
10.466033935546875,-4.567570686340332,11.437202453613281,-1.5916455984115603,-1.5885298252105713,-1.3662627935409548
7.521882057189941,-6.905379295349121,11.570051193237305,-1.150079131126404,-1.2639825344085693,-1.3141815662384033
5.028032302856445,-6.682792663574219,12.226342201232912,-0.46554940938949585,-0.8341193795204164,-1.1447017192840576
2.4253287315368652,-5.211884021759034,12.730578422546388,0.024735882878303528,-0.26320523023605347,-0.8999475836753846
-0.9692199230194092,-4.54239320755005,12.46133041381836,0.2893322408199311,0.3375661373138428,-0.6752747893333436
-4.066537380218507,-3.9691529273986816,11.406861305236818,0.44620838761329656,0.8612508773803711,-0.49525952339172363
-5.298212528228761,-3.2334771156311035,10.640523910522461,0.454589456319809,1.3159558773040771,-0.32100185751914984
-6.759638309478761,-3.208016633987427,9.286450386047365,0.41349565982818604,1.7213623523712158,-0.14463682472705844
-7.91201114654541,-3.050972700119019,7.865275859832765,0.3732928335666657,2.04307222366333,0.020584242418408397
-9.424562454223633,-2.9740278720855717,6.009659767150879,0.33318740129470825,2.2351386547088627,0.16753523051738742
-10.802377700805664,-2.6998341083526616,4.414935111999512,0.29340663552284246,2.2712039947509766,0.30678668618202215
-10.777153015136719,-2.2546079158782963,4.187448978424073,0.16284385323524475,2.249837875366211,0.4642730057239533
-9.129953384399414,-2.0611927509307866,4.979864120483398,-0.045634899288415916,2.3905324935913086,0.6751835942268373
-7.907191276550293,-2.2701172828674316,5.233826637268066,-0.23841829597949984,2.736908435821533,0.9007742404937744
-7.5041093826293945,-2.353074073791504,4.505974769592285,-0.33920979499816895,3.116951227188111,1.118476390838623
-7.547028541564941,-1.9988641738891602,2.7206501960754395,-0.3549939692020417,3.435038328170777,1.29701828956604
-7.869174480438233,-0.9448385238647461,0.7225120067596436,-0.3638174533843994,3.5712802410125737,1.4236812591552734
-6.693759918212891,0.6590149402618408,0.22836652398109436,-0.5300871133804321,3.5626289844512944,1.5241960287094118
-3.7961876392364506,1.7364566326141357,1.4957617521286013,-0.8516573309898378,3.6595234870910645,1.6175540685653689
-1.0037884712219238,2.4119474887847905,2.186221122741699,-1.1295903921127322,3.9566934108734135,1.6662237644195557
0.6171828508377075,3.0711901187896733,1.1512317657470703,-1.2733079195022585,4.232110023498535,1.6091676950454714
2.9891636371612553,3.664310216903687,0.366055577993393,-1.279984474182129,4.321915149688722,1.4265948534011843
6.324779987335206,3.916101694107056,0.33631736040115356,-1.1766679286956787,4.3218398094177255,1.1488354206085205
9.505909919738771,3.2070829868316655,0.23527267575263977,-0.9070850014686586,4.320453166961671,0.7859221696853638
11.59634780883789,3.805789709091187,-0.1990945041179657,-0.5621321201324463,4.216468334197999,0.4518294334411621
14.20103645324707,5.221310615539551,-0.46446794271469116,-0.4637541472911835,3.995342254638672,0.17845499515533447
16.50301742553711,4.079334259033203,-1.102905869483948,-0.4533875584602356,3.712530374526978,-0.03845728188753128
17.77883338928223,2.6419363021850586,-1.991911053657532,-0.23122325539588928,3.2888731956481934,-0.15904502570629123
18.46927070617676,2.4965112209320073,-2.7397356033325195,0.035508561879396446,2.7365312576293945,-0.1694280654191971
18.391901016235355,3.0768573284149174,-3.0919981002807617,0.20141080021858215,2.1264393329620366,-0.0920112654566765
16.44776153564453,3.1860191822052006,-4.168325901031495,0.2514269053936005,1.5052344799041748,0.02392990328371525
12.04097080230713,2.996501684188843,-7.816632270812988,0.22848719358444214,0.7669397592544556,0.15965558588504794
15.302269935607912,9.232065200805664,-12.855761528015138,-0.1035308688879013,-0.48388919234275823,0.34399211406707764
106.86369323730469,21.435247421264652,67.38502502441406,-4.172986030578613,-1.6941105127334597,1.0995143651962282
-11.102545738220217,0.41414776444435125,-30.06414794921875,-0.6429819464683534,4.772242546081543,0.13682483136653903
20.004789352416996,-10.188235282897951,28.646173477172855,-1.4930807352066042,2.7615973949432377,1.3260631561279297
-13.074748992919922,-0.5133453011512757,9.908423423767092,-0.7382797598838807,2.925881862640381,0.6342115998268129
-3.5272932052612305,-13.958117485046388,13.908527374267578,0.25483423471450806,1.6418999433517458,-0.41775998473167425
-2.2979555130004883,-6.469370365142823,14.344598770141602,0.46908423304557806,0.38248294591903687,-0.574591100215912
1.1308103799819949,2.8713531494140625,12.69106674194336,0.3600270748138428,-0.3911200761795044,-0.7034779191017152
6.739216327667237,3.423694133758545,9.659306526184084,0.1673445701599121,-0.7173714041709901,-0.5180149078369141
9.396128654479982,1.988974452018738,7.71990728378296,-0.10075604915618896,-0.4407939016819001,-0.16860468685626986
8.103489875793459,0.9228415489196777,7.813048362731934,-0.19536651670932773,-0.00959867425262928,0.0983371064066887
6.2962708473205575,-2.382757902145386,8.377507209777834,-0.14851598441600802,0.304504543542862,0.09911046922206879
4.203296184539796,-1.7613707780838015,9.290926933288576,-0.0835864245891571,0.3584685027599335,0.043980784714221954
3.834267377853394,-0.3403613567352295,10.042610168457031,-0.10876823216676713,0.26641595363616943,0.06692102551460266
4.268562316894531,0.007113918662071228,10.17030143737793,-0.19820892810821533,0.12079086154699327,0.13553044199943542
4.506930828094483,-0.692981779575348,9.713259696960451,-0.26355734467506414,0.04453350231051446,0.17364531755447388
4.6903886795043945,-0.9582003355026245,9.579295158386232,-0.26894813776016235,0.009850184433162214,0.19267824292182922
4.532264709472656,-0.9797750115394593,9.736033439636232,-0.2643936276435852,-0.04956388100981713,0.19436813890933993
4.2069458961486825,-1.226521134376526,9.819049835205078,-0.25167921185493475,-0.13489890098571777,0.171252116560936
4.334671497344972,-1.3411874771118164,9.79205322265625,-0.24562034010887146,-0.23082059621810913,0.1420887261629105
4.485489368438722,-1.0246461629867556,9.69838619232178,-0.24677617847919467,-0.3005625605583191,0.1263445168733597
4.60562562942505,-0.6858687400817871,9.70180416107178,-0.27862742543220526,-0.3443133234977722,0.12435142695903778
4.748987674713136,-0.9000703692436219,9.74526119232178,-0.33264076709747314,-0.3864837586879731,0.13743433356285095
4.448386669158936,-0.8746404051780702,9.57115364074707,-0.3667650818824768,-0.4277993440628052,0.1623233407735825
4.537245273590089,-1.7219080924987793,9.380960464477539,-0.3374404609203339,-0.4891469478607178,0.1473774164915085
4.764389991760254,-1.6336003541946413,9.226518630981445,-0.3193889260292053,-0.5094228386878968,0.13754709064960483
5.081900119781495,-1.3098828792572021,9.09462070465088,-0.28086754679679876,-0.5308927297592163,0.12118805199861528
5.392508506774902,-1.6955894231796267,8.805287361145021,-0.26324608922004705,-0.47231504321098333,0.12091869115829468
5.4139142036438,-1.2133276462554932,9.00996494293213,-0.22393982112407687,-0.4367711544036865,0.12453008443117143
5.32694959640503,-1.516883730888367,8.918672561645508,-0.20791366696357727,-0.38337758183479315,0.12455096095800401
5.411956310272218,-1.4573282003402712,8.947129249572756,-0.1774205714464188,-0.35029399394989014,0.12676893174648288
5.14190435409546,-1.3968677520751953,8.754696846008303,-0.1649614125490189,-0.32925972342491155,0.12180566787719727
5.3400282859802255,-1.5148473978042605,8.735095024108888,-0.1645985245704651,-0.29482981562614446,0.14281392097473145
5.319635391235352,-2.049570083618164,8.554835319519045,-0.13461458683013916,-0.2647999227046967,0.11531954258680345
5.406316757202148,-2.1086995601654057,8.57893466949463,-0.10778191685676575,-0.19168083369731906,0.08229458332061768
5.2490386962890625,-2.1414613723754883,8.647149085998537,-0.06990457326173784,-0.13548661768436435,0.04040886461734772
5.2419142723083505,-2.231383562088013,8.547250747680664,-0.03766120970249176,-0.0842655971646309,0.004087937995791435
5.561954021453858,-2.0048692226409917,8.507783889770508,-0.01329968310892582,-0.017872223630547527,-0.02337673865258694
5.472305774688722,-1.8583246469497683,8.560506820678711,0.008444356732070448,0.07437898218631744,-0.030082633718848232
5.33161211013794,-1.7594145536422732,8.565919876098633,0.020217137411236766,0.13590563833713534,-0.0414261594414711
5.07651424407959,-2.241319179534912,8.158987045288086,0.07454754412174225,0.21049617230892184,-0.06277003884315491
4.628274917602539,-2.5135974884033203,8.522141456604006,0.18117323517799377,0.2213241904973984,-0.11228769272565843
4.879039764404297,-1.6138103008270264,8.708694458007812,0.22057099640369418,0.1968017816543579,-0.15149883925914767
4.214928150177003,-1.7621114253997803,9.212378501892092,0.2621745169162751,0.1413582414388657,-0.1714215874671936
4.542816638946534,-1.4165812730789187,9.683805465698242,0.22507408261299133,0.00969697628170252,-0.21830031275749207
4.9395952224731445,-1.3325797319412234,9.556834220886232,0.22461950778961182,-0.0814972296357155,-0.2422588020563126
4.300539493560792,-0.02549874782562256,9.998357772827148,0.16721755266189575,-0.18789158761501315,-0.2265963852405548
4.131253719329835,-0.28081613779067993,9.991404533386232,0.09249085187911987,-0.3778316378593445,-0.18355222046375277
3.9200572967529297,0.041448742151260376,10.480767250061037,0.02475163154304028,-0.6450694799423218,-0.14190430939197543
3.107023239135742,-0.5749762654304506,10.33202648162842,-0.06647936254739763,-0.9565830230712891,-0.12860611081123352
3.376664161682129,-0.9312601685523988,10.449983596801758,-0.1375763714313507,-1.3547610044479372,-0.16477224230766296
3.679360151290894,-1.0183489322662354,10.203221321105959,-0.18627460300922397,-1.7502840757369997,-0.23337087035179138
3.623730182647705,-0.8311824202537538,9.768973350524904,-0.2126040756702423,-2.105630159378052,-0.2744619846343994
4.490217685699464,-0.9118974208831787,9.916588783264162,-0.2537708878517151,-2.460119962692261,-0.3167326748371125
5.017930507659913,-2.068574905395508,10.127422332763672,-0.17065420746803284,-2.741144418716431,-0.35888177156448364
4.4817914962768555,-1.4509608745574951,9.425229072570803,0.09936337918043138,-3.1477820873260502,-0.3953792452812195
4.8560686111450195,-1.7835811376571657,9.375757217407227,0.18047857284545898,-3.580081701278687,-0.47482383251190186
5.16193723678589,-1.9978652000427246,9.389662742614748,0.333895355463028,-4.089435577392578,-0.4474111795425415
6.278285980224609,-1.2679513692855837,10.065862655639648,0.37529700994491577,-4.549311161041261,-0.3088861107826233
7.808119773864746,-0.9673900604248047,11.57704257965088,0.3590185046195984,-4.89362907409668,-0.08216855674982072
10.798385620117188,-2.1827330589294434,13.083142280578615,0.3275321125984192,-4.937457561492921,0.013724878430366516
12.829992294311523,-3.2487461566925053,13.864415168762209,0.34692040085792547,-4.6829071044921875,-0.04507617652416229
17.10490989685059,-5.370156764984132,12.925461769104006,0.866692066192627,-4.508469104766847,-0.23876649141311646
22.856483459472656,-5.78325080871582,14.238941192626953,1.5151288509368896,-4.285616874694824,-0.3291751444339753
25.343517303466797,-2.329565763473511,9.448531150817873,1.6573225259780886,-4.10811710357666,-0.40009948611259466
26.389505386352543,-4.103817939758301,1.1739294528961182,1.9069119691848757,-4.227947235107422,-0.8962370157241821
30.76895523071289,-3.443586826324463,3.3326270580291752,2.4515280723571777,-4.319798946380616,-1.263199806213379
26.203138351440433,-1.2594052553176882,1.3501596450805664,2.701744556427002,-4.361069679260254,-1.5448271036148074
32.397003173828125,0.7481576800346376,4.764913558959961,2.4619495868682866,-5.02171516418457,-1.8346458673477175
37.0305519104004,0.21759426593780518,17.842693328857422,1.8564714193344118,-4.257524490356445,-1.818140983581543
28.89900398254395,2.0734484195709233,16.75920867919922,0.7493325471878052,-3.1886432170867924,-1.6031911373138428
28.04715156555176,1.2926499843597412,18.157934188842777,-0.4139119684696198,-2.1579239368438725,-1.5088763236999512
22.263441085815433,-0.17449043691158297,16.740081787109375,-1.403085470199585,-1.1351400613784792,-1.396909236907959
17.633295059204105,-2.900689125061035,15.201359748840334,-2.041450023651123,-0.30179372429847723,-1.332886576652527
12.140612602233888,-6.413896083831788,12.599067687988281,-1.9878536462783816,0.24558010697364807,-1.300817370414734
6.545403003692628,-9.252887725830078,9.457470893859865,-1.1717180013656618,0.44419839978218084,-1.286991834640503
2.128890752792359,-8.844655036926271,7.696647644042969,0.0464756116271019,0.4030491411685944,-1.3287816047668457
