AccX,AccY,AccZ,GyrX,GyrY,GyrZ
0.0004905832465738058,-8.130817150231451e-05,0.0009709809091873468,2.1205120503964284e-07,-8.339252417499665e-07,-1.224123366228014e-06
4.747572898864746,-0.7789822816848755,9.367069244384766,0.0024130188394337897,-0.009171041660010816,-0.011313743889331818
4.753665924072266,-0.7451398372650146,9.392614364624023,0.0007941760122776031,-0.008634080179035665,-0.010020457208156586
4.735149383544922,-0.8021504878997803,9.395312309265138,-0.0008851083694025874,-0.008621892891824247,-0.010680860839784147
4.7521376609802255,-0.7794221043586732,9.38641357421875,0.0007922794320620597,-0.00840224139392376,-0.011178911663591863
4.752996444702148,-0.7716782689094545,9.370271682739258,0.0006430071080103517,-0.008320197463035583,-0.008000043220818044
4.737430095672608,-0.7914169430732728,9.391587257385256,0.000842543027829379,-0.007244700565934181,-0.00871801469475031
4.735095500946046,-0.795206129550934,9.391116142272951,0.0017604725435376167,-0.007843294180929663,-0.009696471504867079
4.735149383544922,-0.7797400355339051,9.418507575988771,0.0017543809954077005,-0.006759615149348975,-0.01099032536149025
4.722993850708008,-0.7834999561309814,9.390286445617678,-0.0002621408784762025,-0.009160680696368217,-0.010644809342920782
4.762604713439941,-0.7597869038581849,9.386158943176271,-0.0005341356736607851,-0.006791193038225174,-0.00851756986230612
4.705254077911378,-0.780616581439972,9.390487670898438,-0.00010460381599841641,-0.008723285049200058,-0.007952520623803139
4.738594055175781,-0.7857731580734253,9.404294013977053,-0.0006575415027327837,-0.008503204211592674,-0.008465313352644445
4.739911079406738,-0.8050959706306459,9.393198966979982,-0.00170990452170372,-0.0071404846385121346,-0.007352445740252734
4.725905895233155,-0.8055588006973267,9.39777946472168,-4.129775334149599e-06,-0.009868276305496694,-0.008108232170343399
4.745877265930176,-0.7903590202331543,9.397044181823732,-0.0009053191752173008,-0.011479992419481277,-0.01031222753226757
4.735269069671632,-0.7836264371871948,9.381038665771484,-0.001642662100493908,-0.008263383992016317,-0.0092841237783432
4.750395774841309,-0.7768508791923524,9.412637710571289,-0.0009673230233602227,-0.010590306483209135,-0.00865931622684002
4.739611148834229,-0.7737761735916138,9.403959274291992,-0.0011791844153776767,-0.007810535840690136,-0.008259995840489866
4.737295627593995,-0.7920912504196167,9.391681671142578,-0.000991838867776096,-0.010465994477272034,-0.008562227711081505
4.720048427581788,-0.7809479236602783,9.398893356323242,-0.0011489496100693941,-0.01038466487079859,-0.010981293395161629
4.74628496170044,-0.7528015375137329,9.435286521911623,-0.0020631721708923583,-0.00907555501908064,-0.008380558341741562
4.747992515563965,-0.7680059671401978,9.396234512329102,-0.004914034157991409,-0.008367753587663175,-0.005902846343815327
4.7284512519836435,-0.8146061897277832,9.39246463775635,-0.0018792176852002742,-0.006734455935657024,-0.006277875043451786
4.727268218994141,-0.8238966464996338,9.39866352081299,-0.0009347719606012106,-0.007831509225070478,-0.007906265556812286
4.716590881347656,-0.7948462963104248,9.394413948059084,2.2125650502857756e-05,-0.006619561929255725,-0.007129369303584099
4.723217964172363,-0.7894519567489624,9.382975578308107,0.0028516645543277264,-0.005820988211780787,-0.009387457743287086
4.725510120391847,-0.8122746348381044,9.386176109313967,0.005562052130699158,-0.005896485876291991,-0.01083918195217848
4.729366302490234,-0.7666307091712953,9.384298324584961,0.004957057535648346,-0.005684764590114356,-0.012848451733589172
4.712186336517335,-0.7655463218688965,9.403575897216797,0.002687164815142751,-0.00624349294230342,-0.010030906647443771
4.721776008605957,-0.7756848335266113,9.411928176879883,0.0008174654212780298,-0.007051629945635796,-0.008872938342392446
4.7256178855896005,-0.766660511493683,9.439099311828615,0.0013554859906435013,-0.008002140559256079,-0.008817906491458418
4.7231550216674805,-0.7733883857727051,9.423005104064943,-0.0005888292216695846,-0.007890090346336365,-0.00952111463993788
4.715517997741699,-0.7877106666564941,9.380385398864748,-0.001400237437337637,-0.01077704131603241,-0.008768728934228422
4.732325077056886,-0.7885301113128662,9.415122985839844,-0.0026224609464406967,-0.01483008358627558,-0.01136631891131401
4.750414848327637,-0.7677053213119507,9.40756130218506,-0.0011136878747493029,-0.012311662547290327,-0.010223141871392729
4.7397198677063,-0.8026615381240845,9.393107414245607,-0.0009954827837646008,-0.01042712014168501,-0.00950963981449604
4.7314252853393555,-0.7917352914810181,9.371061325073242,-0.00014152206131257117,-0.008197758346796036,-0.009222754277288915
4.744128227233887,-0.7822183966636659,9.390299797058107,-0.0018345071002840996,-0.009186911396682264,-0.008703438565135002
4.714130401611328,-0.794596791267395,9.412434577941896,0.0003084778727497906,-0.007721352390944958,-0.008033931255340576
4.697115898132324,-0.7997352480888368,9.411383628845217,0.001360289752483368,-0.009173353202641012,-0.008969157934188843
4.714647769927979,-0.814128339290619,9.423734664916992,0.0008576493128202857,-0.010333112441003324,-0.01156247965991497
4.715664863586426,-0.7981037497520448,9.392222404479982,0.0009676730260252953,-0.010011351667344572,-0.011762427166104317
4.726205825805664,-0.7781702876091005,9.418217658996584,0.0014053026679903269,-0.011068808846175672,-0.011715426109731199
4.738112449645996,-0.7950482964515687,9.395037651062013,0.00048070042976178234,-0.009662382304668427,-0.00972776021808386
4.73772954940796,-0.7686212658882142,9.400706291198732,0.00034582504304125905,-0.00888943113386631,-0.010958797298371794
4.720942497253418,-0.7731479406356812,9.408744812011719,0.00016318073903676125,-0.010288812220096588,-0.009954738430678846
4.715041160583496,-0.7755683660507202,9.402928352355959,-0.00014772234135307372,-0.010417497716844084,-0.009533225558698179
4.727849960327148,-0.7867387533187866,9.397228240966797,-0.00014064557035453618,-0.011445785872638227,-0.010391604155302048
4.721837520599366,-0.8080203533172607,9.394963264465334,-0.00016636343207210302,-0.010942133143544197,-0.010205441154539587
4.741557598114015,-0.7844752073287964,9.382554054260256,0.0005104748415760697,-0.01070050522685051,-0.012416129000484945
4.72807502746582,-0.7623492479324341,9.41434955596924,-0.0006623836816288532,-0.011724364012479782,-0.009659316390752792
4.71623182296753,-0.7695409655570985,9.387545585632326,-0.0011512096971273422,-0.01167075987905264,-0.010758625343441963
4.728149890899659,-0.7779830694198608,9.388919830322266,0.0012019559508189561,-0.008996973745524885,-0.009994201362133026
4.7253127098083505,-0.7908676266670228,9.413166046142578,0.0024886606261134148,-0.010273798368871214,-0.010865816846489906
4.704744338989258,-0.7823829650878906,9.394068717956545,-0.0001347771321889013,-0.008883812464773657,-0.011049279011785986
4.718238353729249,-0.8130658864974976,9.414002418518068,0.0004872555728070438,-0.008395102806389334,-0.011489156633615494
4.726418495178223,-0.8021851181983949,9.39878559112549,0.00011930031905649231,-0.009666402824223043,-0.01013696938753128
4.719148635864258,-0.7887866497039795,9.40994644165039,0.0018266707193106413,-0.007682631257921458,-0.011661762371659279
4.739637851715089,-0.7731447219848633,9.407522201538086,0.0007838948513381184,-0.009523231536149979,-0.010050181299448013
4.743202686309815,-0.7584927678108216,9.41346836090088,4.4226329919183634e-05,-0.010611895471811295,-0.00829893257468939
4.731997013092042,-0.7765434384346009,9.388220787048342,-0.0010133364703506231,-0.00842839851975441,-0.00965732801705599
4.711871623992921,-0.8026873469352723,9.39432144165039,-0.0007086956175044179,-0.006942307110875846,-0.008918479084968567
4.689946651458741,-0.8160668611526489,9.400963783264162,0.0017826477997004986,-0.008454847149550916,-0.011048878543078901
4.693445682525636,-0.7966312766075135,9.425478935241701,0.0027785471174865965,-0.011628549546003342,-0.01256359647959471
4.705334663391113,-0.7662237882614136,9.429380416870117,0.0019657425582408905,-0.01075831614434719,-0.013821478001773359
4.7269392013549805,-0.7743930816650391,9.409305572509766,0.0009367088205181063,-0.010863794013857841,-0.014283086173236372
4.7400922775268555,-0.7864223122596742,9.419872283935547,0.0016693094512447717,-0.01120794378221035,-0.012731390073895454
4.749654293060304,-0.7623782157897949,9.416959762573242,0.000548408948816359,-0.01180818770080805,-0.011617442592978477
4.729799747467042,-0.7976043224334717,9.408723831176758,0.00023630859504919502,-0.011454244144260885,-0.01125587522983551
4.711944103240968,-0.7787464261054994,9.3809289932251,0.001633388106711209,-0.008970692753791809,-0.009343327023088934
4.728031158447266,-0.7987974882125854,9.399971008300781,0.0015399530529975891,-0.0065300515852868566,-0.011447162367403509
4.7186903953552255,-0.7898406386375428,9.386177062988281,0.0023672983516007666,-0.008062129840254784,-0.01087914686650038
4.7289628982543945,-0.7789639234542847,9.403784751892092,0.0034983025398105387,-0.00912879314273596,-0.013203639537096024
4.723893165588379,-0.7659856081008911,9.388668060302734,0.002405671169981361,-0.008804701268672943,-0.012427992187440397
4.721264362335206,-0.7806127071380615,9.392049789428711,0.0024887281470000744,-0.008324773050844671,-0.011683362536132337
4.712393760681152,-0.8096556663513184,9.432283401489258,0.002001684391871095,-0.008925158530473709,-0.01284271012991667
4.714255332946777,-0.7889441251754761,9.389472961425781,0.002106798114255071,-0.009811083786189558,-0.011030953377485275
4.718798160552979,-0.7700737714767456,9.422050476074219,0.0037878470029681925,-0.012417497113347054,-0.01191468629986048
4.706480979919434,-0.7810171842575073,9.442365646362305,0.0028027589432895184,-0.01176522206515074,-0.012377399019896986
4.735513210296632,-0.7696160078048706,9.431429862976076,0.0035543695557862525,-0.012960843741893768,-0.012224647216498854
4.745265483856202,-0.7886075377464296,9.41493320465088,0.002560891909524799,-0.010543818585574629,-0.012715589255094528
4.736788749694824,-0.7568175196647645,9.419870376586914,0.0022871638648211956,-0.01042501349002123,-0.012018494307994843
4.7294936180114755,-0.7516655921936035,9.407258987426758,0.003239122917875648,-0.008906273171305656,-0.011255670338869095
4.722730159759522,-0.7581926584243774,9.43367099761963,-2.5782886950764805e-05,-0.009801042266190054,-0.01064775325357914
4.710410118103027,-0.751041352748871,9.412560462951662,0.00016245389997493478,-0.00966125261038542,-0.008088072761893272
4.701260566711426,-0.7847652435302734,9.398182868957521,1.6962068912107497e-05,-0.009620546363294126,-0.01106344535946846
4.707792282104492,-0.7930366396903993,9.402941703796388,0.00013258159742690623,-0.009980755858123304,-0.010013000108301641
4.725003719329835,-0.7926615476608276,9.41861343383789,0.0013451098930090666,-0.010134258307516577,-0.010662147775292397
4.706957340240479,-0.7972462177276611,9.391895294189453,0.0012922646710649135,-0.00995172467082739,-0.010491007938981056
4.719724655151367,-0.7810693979263306,9.418826103210451,0.0013305934844538572,-0.011777583509683609,-0.013515979982912542
4.7389492988586435,-0.7856029272079468,9.42478656768799,0.00029536613146774476,-0.010520586743950844,-0.011694330722093582
4.73412847518921,-0.7473320960998535,9.398390769958498,0.0005906007136218251,-0.011690299957990646,-0.00898235570639372
4.737791061401367,-0.7613554000854492,9.42537593841553,-0.0006982610793784261,-0.010062607005238533,-0.009030341170728208
4.718301296234132,-0.7850587964057923,9.403920173645021,-0.0021391496993601322,-0.010765290819108488,-0.008509514853358269
4.734927177429199,-0.7840522527694702,9.416854858398438,-0.0012497850693762302,-0.012940038926899435,-0.00903389882296324
4.725598335266113,-0.7648061513900757,9.413980484008789,-0.0010791977401822805,-0.012082082219421865,-0.008122948929667473
4.743393898010254,-0.7772600650787354,9.41786861419678,-0.0013646854786202314,-0.0103827016428113,-0.006410129368305206
4.7057390213012695,-0.7869191765785218,9.41249752044678,-0.003619270166382194,-0.008919158950448036,-0.008759065531194212
4.711321830749512,-0.8118339776992798,9.407319068908693,-0.0025402107276022434,-0.010712410323321821,-0.008815039880573751
4.71718454360962,-0.8208857774734497,9.385916709899904,-0.0029236990958452225,-0.012211895547807218,-0.007662281394004822
4.730367183685304,-0.7627607583999634,9.420103073120117,-2.8039345124852847e-05,-0.011254766024649145,-0.009342780336737633
4.728288650512695,-0.7708881497383119,9.405808448791506,0.0006162606296129526,-0.009064024314284325,-0.008947518654167654
4.766261577606202,-0.7669931650161743,9.432187080383303,-0.0014662534231320026,-0.010094603523612022,-0.007465965114533901
4.743225574493409,-0.7615098357200624,9.40553092956543,-0.0013945325044915082,-0.006746475584805012,-0.0052739628590643415
4.687340259552003,-0.830914080142975,9.423332214355469,-0.0007713066297583283,-0.006498271133750678,-0.003359244205057621
4.7177138328552255,-0.7655134201049805,9.414961814880373,0.00031782215228304267,-0.00947603862732649,-0.0064465804025530815
4.7766175270080575,-0.7143588066101074,9.39920425415039,-0.004136438015848399,-0.007877640426158905,-0.000829392927698791
4.647237300872804,-0.7625669836997987,9.387309074401857,-0.005015077069401741,-0.007851402275264265,-0.0003090072423219681
4.731023311614991,-0.8410477638244629,9.371731758117678,-0.003095307154580951,-0.00838273297995329,-0.0025046956725418568
4.664008617401124,-0.8032510280609131,9.360337257385256,-0.002973213559016586,-0.004748327657580376,-0.003387602278962732
4.628868103027344,-0.8471619486808778,9.408560752868654,-0.001228151610121131,-0.008295848034322264,-0.008230497129261495
4.717472553253175,-0.8240921497344971,9.444234848022461,0.0009647436090745033,-0.013533459976315498,-0.008942575193941595
4.701837062835694,-0.7868005037307739,9.438311576843263,-0.0005374128231778741,-0.01742561161518097,-0.01155493874102831
4.732196807861328,-0.780746340751648,9.439484596252443,-0.0017361341742798688,-0.021454956382513046,-0.010923414491117002
4.753966808319093,-0.6929462552070619,9.403032302856445,-0.003843007143586874,-0.02142414636909962,-0.009402207098901274
4.770431995391847,-0.7650073170661927,9.45225715637207,-0.00712738884612918,-0.019128918647766113,-0.00519845960661769
4.74296522140503,-0.8045919537544252,9.432836532592773,-0.008253565058112144,-0.017710302025079727,-0.0028559926431626086
4.7803053855896005,-0.7642922997474672,9.44100570678711,-0.007913544774055481,-0.017711156979203228,0.0011282514315098524
4.804553031921387,-0.744376540184021,9.44613552093506,-0.010576382279396057,-0.013759023509919645,0.006677549798041583
4.829370498657227,-0.7443888783454896,9.434733390808107,-0.011515628546476364,-0.008642663247883322,0.012241818010807037
4.88114881515503,-0.6697322130203247,9.464588165283203,-0.012953788973391058,-0.0012792834313586356,0.020754020661115646
4.887577056884766,-0.7236756086349487,9.458176612854006,-0.014617692679166794,0.004051750991493464,0.03231009840965271
4.887055397033691,-0.6648083329200746,9.44356918334961,-0.014149558730423452,0.014376863837242126,0.04200061410665512
4.805105209350586,-0.758758544921875,9.447681427001953,-0.013941317796707153,0.02748368121683598,0.05267036706209183
4.63764524459839,-0.8791472911834717,9.402937889099123,-0.014538664370775223,0.03274092823266983,0.052872557193040855
4.6031904220581055,-0.9273210763931274,9.368101119995117,-0.008990337140858175,0.02651602029800415,0.04445256665349007
4.536703109741211,-0.9122586250305176,9.393704414367678,-0.003148077055811882,0.01936447806656361,0.031440254300832755
4.607610702514648,-0.7947337627410889,9.395544052124023,0.00012831653293687853,0.010039329528808594,0.02355276979506016
4.63501787185669,-0.8405475616455078,9.403371810913086,0.001245225430466235,0.004567075986415149,0.018684688955545425
4.660833358764648,-0.7955073118209839,9.421019554138185,-0.0017722221091389656,0.004712423775345088,0.014807973057031631
4.699851512908936,-0.8291436433792114,9.37067985534668,-0.0028748905751854186,0.007257676683366299,0.012487677857279778
4.704659461975098,-0.8490532040596009,9.35177516937256,-0.002556537510827184,0.013897199183702469,0.013875833712518217
4.72884225845337,-0.8287106156349183,9.361795425415039,-0.00041555246571078897,0.023551378399133682,0.014603822492063047
4.553078651428223,-0.8707720041275024,9.250187873840334,0.000962104182690382,0.03307051584124566,0.012362733483314514
3.795182704925537,-1.1788717508316042,9.107485771179201,-0.0022782546002417807,0.008904393762350082,-0.009747086092829704
4.364755630493164,-1.1914188861846924,9.514828681945803,0.006234238389879466,-0.041365884244441986,-0.04901189729571343
4.980125904083253,-0.9134433269500732,9.514348030090334,0.01084547769278288,-0.04408838227391244,-0.05369999259710312
4.921354770660401,-0.6845273971557617,9.471035957336428,0.010475603863596916,-0.02813886292278767,-0.040465690195560455
4.908943176269531,-0.9636789560317993,9.362829208374023,0.018802151083946228,-0.005959888454526664,-0.03248118981719018
4.833247184753418,-0.8284075856208802,9.395978927612305,0.027092497795820236,0.013113583438098432,-0.028622832149267197
4.839398860931397,-0.6667956113815308,9.409324645996094,0.029397753998637203,0.02961530722677708,-0.018923133611679077
4.774001121520996,-0.704265058040619,9.442911148071289,0.02504290081560612,0.03865499049425125,-0.00865480210632086
4.763147830963136,-0.6062130928039551,9.487736701965334,0.019186584278941158,0.04224216938018799,-0.0018504364416003227
4.658146858215332,-0.6246153116226196,9.462693214416506,0.0084977587684989,0.04032794386148453,0.009253154508769514
4.515070915222168,-0.8001880645751953,9.438446044921875,0.00348267168737948,0.034955833107233054,0.0124139953404665
4.543440341949464,-0.6133815050125122,9.407659530639648,-0.0009157441090792418,0.02616391517221928,0.011405479162931442
4.435595035552979,-0.6615079641342163,9.469767570495607,-0.025191271677613262,0.013325996696949005,0.021142248064279556
4.437727451324464,-0.9369373917579652,9.38784694671631,-0.03974800556898117,-0.004622140433639289,0.015346355736255646
4.601105213165284,-0.8771089315414429,9.418261528015138,-0.03412175923585892,-0.016545195132493973,0.00028603288228623574
4.750261306762695,-0.7135858535766602,9.480521202087404,-0.031927179545164115,-0.012902479618787766,0.0006943956832401456
4.788410186767578,-0.7543922662734985,9.365604400634766,-0.030951527878642086,0.0010842266492545605,0.005908576771616936
4.828096866607667,-0.6277853846549989,9.410024642944336,-0.03638823330402374,0.016000436618924144,0.01930200681090355
4.68457841873169,-0.838394582271576,9.367207527160646,-0.0433659553527832,0.026704005897045135,0.03217714652419091
4.559762477874757,-1.1186515092849734,9.388718605041506,-0.03432033956050873,0.03198276087641717,0.028814490884542465
4.626758575439453,-1.0211098194122314,9.382266998291016,-0.01724154688417912,0.03846298158168793,0.015780765563249588
4.563054561614991,-1.0692694187164307,9.40444850921631,0.0029601438436657195,0.04733025282621384,-0.0027987265493720774
4.724315643310547,-0.8786315321922303,9.366147994995117,0.019539741799235347,0.05307378247380257,-0.012973608449101448
4.640151023864746,-0.5794237852096558,9.422169685363771,0.007728272583335639,0.06931892037391663,-0.00024646476958878344
4.602105140686035,-0.8671733736991883,9.444046020507812,-0.0033276272006332874,0.0829240456223488,0.00487435655668378
4.758584499359132,-0.8343783617019653,9.46687984466553,-0.0006503281183540821,0.08791882544755937,0.008725039660930634
4.709454536437988,-0.8386143445968628,9.464583396911623,0.00029469790752045816,0.09884469956159593,0.012629671022295952
4.567278385162354,-0.890273928642273,9.476243019104006,0.00052388763288036,0.10219603776931763,0.012827518396079542
4.567364692687988,-0.8350666761398315,9.557188987731935,0.00289748003706336,0.09514678269624711,0.012030704878270628
4.473947525024414,-0.9138463735580444,9.616161346435547,0.0018690743017941713,0.08412558585405351,0.009977346286177635
4.429868698120117,-1.0229538679122927,9.560039520263672,0.013012561015784742,0.06928185373544694,-0.007073645479977131
4.444408893585206,-0.835464596748352,9.557947158813477,0.017218159511685375,0.05408702790737152,-0.017987014725804332
4.456462860107422,-0.7951185703277588,9.609603881835938,0.01395844202488661,0.03462497144937515,-0.022455278784036636
4.514050006866456,-0.602385401725769,9.661198616027834,0.00326461810618639,0.014659200794994833,-0.01981145143508911
4.544722080230714,-0.5875270366668701,9.670430183410646,-0.022464007139205933,-0.00992894358932972,-0.0053238370455801496
4.538064002990723,-0.7434704303741455,9.604068756103516,-0.040554724633693695,-0.028528796508908275,0.0034224316477775574
4.582524776458741,-0.9043302536010742,9.511425971984865,-0.04283326119184494,-0.04084265604615212,0.004333528224378825
4.608607769012452,-0.8584290742874146,9.522265434265138,-0.043913185596466064,-0.042625505477190025,0.007107672281563282
4.579090595245362,-0.8563066124916078,9.54428005218506,-0.047996267676353455,-0.04838569462299347,0.008166135288774969
4.592133522033691,-0.8704981803894043,9.537458419799805,-0.05139105021953583,-0.05343506112694741,0.006356334313750267
4.555819034576417,-0.9145328998565674,9.506315231323242,-0.052956417202949524,-0.057454187422990806,0.00874155666679144
4.499270915985108,-1.074101448059082,9.464123725891115,-0.041113022714853294,-0.05515075474977493,3.869965803460219e-05
4.610729217529297,-0.8273988962173462,9.493560791015625,-0.034306593239307404,-0.057572461664676666,-0.004938734229654075
4.545228004455566,-0.8111982345581055,9.51098155975342,-0.042124077677726746,-0.05780415609478951,0.002268408890813589
4.585966587066651,-0.7737317085266113,9.506261825561523,-0.047984439879655845,-0.06113570183515549,0.006333124823868275
4.628593921661378,-0.730309545993805,9.474864006042482,-0.05432941019535065,-0.06045570597052575,0.01299818605184555
4.5096192359924325,-0.9064798355102539,9.419937133789062,-0.05984203144907952,-0.05681418254971505,0.019176002591848373
4.487477779388429,-1.0764774084091189,9.455687522888185,-0.05202331021428109,-0.06038305163383484,0.005183614324778319
4.658621311187745,-0.9910055994987489,9.435857772827148,-0.03770855441689492,-0.05670127272605896,-0.005204581655561924
4.697569847106934,-0.858613431453705,9.426393508911133,-0.03530417755246163,-0.04784524440765381,-0.002090405905619264
4.650732040405273,-0.9754424691200257,9.427447319030763,-0.031187968328595165,-0.038569327443838126,-0.0006693772738799453
4.623453140258789,-1.027024269104004,9.392554283142092,-0.02241181954741478,-0.030931746587157253,-0.007057850249111652
4.558478832244874,-0.9081263542175293,9.422203063964844,-0.015579743310809135,-0.02579688094556332,-0.01187021378427744
4.515862941741944,-0.9376630187034608,9.440463066101076,-0.020905856043100357,-0.027865087613463405,-0.014432314783334732
4.4538726806640625,-0.8077999949455262,9.510555267333984,-0.03336720541119576,-0.04421866312623025,-0.011708548292517662
4.491549015045167,-0.7463113665580751,9.5296630859375,-0.04961271211504937,-0.06000901758670807,-0.007883912883698942
4.422782421112061,-0.7379311919212342,9.492975234985352,-0.06515008211135864,-0.08289536088705064,-0.0027060310821980242
4.130007743835449,-0.8902120590209961,9.475927352905273,-0.08214721828699113,-0.11001130938529968,-0.006236488465219737
4.394980907440186,-0.8774787187576294,9.605241775512695,-0.09201169013977051,-0.152643620967865,-0.015612077899277212
4.524637699127198,-1.107840418815613,9.358016967773438,-0.08994469046592712,-0.17531524598598483,-0.02254325896501541
4.349452972412109,-0.993668794631958,9.444208145141602,-0.08684382587671281,-0.19260892271995544,-0.035096995532512665
4.599910259246827,-1.16642427444458,9.454512596130373,-0.0672256425023079,-0.21839147806167603,-0.05726777389645577
4.523564815521241,-1.3078234195709229,9.33924674987793,-0.021528426557779312,-0.23028439283370972,-0.09262340515851976
4.518838405609132,-1.1449505090713503,9.333816528320312,0.012932036072015762,-0.2448556870222092,-0.12504756450653076
4.649993419647218,-1.0208191871643066,9.423604011535646,0.01869834400713444,-0.25631076097488403,-0.1378704309463501
4.515444755554199,-1.0850563049316406,9.339426994323732,0.03311455249786377,-0.2702269852161408,-0.14366409182548523
4.668397903442383,-0.8295794725418091,9.521624565124513,0.052035726606845856,-0.3131833076477051,-0.1547089368104935
4.695977687835694,-0.9211232662200928,9.485077857971193,0.06531246751546861,-0.34978944063186646,-0.1643498092889786
4.764300823211671,-0.7072181701660156,9.53942394256592,0.07324654608964921,-0.3929824233055115,-0.18922781944274902
4.950794219970703,-0.5439720749855043,9.316992759704592,0.06884127110242845,-0.4211578369140625,-0.187902107834816
4.531772613525391,-0.7164073586463929,9.431607246398928,0.05679395794868469,-0.4485241770744324,-0.19469030201435092
4.580438613891602,-0.9473010301589966,9.606500625610352,0.036862559616565704,-0.5305431485176088,-0.20620635151863098
4.405601024627686,-0.7422037720680238,9.7414026260376,0.03934362530708313,-0.6506353020668031,-0.2120342403650284
3.871367931365967,-0.8995463848114014,10.077853202819826,0.03962673619389535,-0.8270409107208252,-0.23189215362071994
4.168728828430176,-0.8055843710899354,10.087234497070312,0.04059112444519997,-1.069322466850281,-0.21042650938034058
3.748271942138672,-0.8247711658477783,10.256680488586428,-0.0030784525442868475,-1.3307390213012695,-0.18723927438259128
3.863034248352051,-0.7373573184013368,10.321312904357912,-0.0467236377298832,-1.6325187683105469,-0.17322754859924316
3.8729770183563237,-1.3373872041702273,9.918601989746094,-0.042397346347570426,-1.9234938621520996,-0.2106118053197861
4.189567089080811,-1.0734649896621706,9.855121612548828,-0.0004678697150666267,-2.210133314132691,-0.28789645433425903
4.8128557205200195,-0.3536304235458374,10.332642555236818,0.04839551076292992,-2.4790778160095215,-0.32247057557106024
4.940124034881593,-0.4376990795135498,10.252224922180178,0.05172893032431603,-2.7563247680664062,-0.3267783522605896
5.704562187194824,-0.37696036696434027,10.461292266845703,0.0391518697142601,-3.024281740188599,-0.32363057136535645
5.198814868927003,-1.250648617744446,10.030717849731445,0.0475328452885151,-3.294777631759644,-0.36012428998947144
4.615324020385742,-1.5521730184555056,9.657885551452638,0.11540725082159044,-3.6293444633483887,-0.45099171996116644
4.709564685821534,-2.1137902736663823,8.914669036865234,0.43721818923950195,-4.102592945098878,-0.6271480917930604
5.878580093383789,-2.9650170803070073,9.82926654815674,0.8681569695472718,-4.738832473754883,-0.8470503687858583
8.406600952148438,-3.059598922729492,11.894202232360842,1.0930784940719607,-5.228418827056886,-0.9405039548873901
11.967487335205078,-3.4119086265563965,13.29572868347168,1.0814170837402344,-5.49229383468628,-0.9872673749923706
14.653918266296388,-4.568005084991456,14.533975601196289,1.2820216417312624,-5.454292297363281,-1.14947509765625
21.02806854248047,-2.2986543178558354,15.273935317993164,1.4286613464355469,-5.297641277313233,-1.2982163429260254
31.110540390014652,-0.8219884037971498,13.760670661926271,1.1359642744064333,-4.744130611419679,-1.276059865951538
33.46356964111328,-6.24601697921753,7.998589992523194,1.3554655313491824,-4.212974548339844,-1.4221612215042116
35.24897766113281,-11.16452407836914,3.733923196792603,3.200785398483277,-3.9101219177246094,-1.7077467441558838
35.72289276123047,-6.946201324462891,3.161083221435547,4.701432228088379,-3.2385704517364506,-1.0251827239990234
47.207618713378906,4.840676307678223,11.436433792114258,4.16856575012207,-2.8158249855041504,-0.20475767552852633
39.42900848388672,6.089827537536621,19.384130477905277,2.4566831588745117,-1.174692749977112,0.2479032278060913
22.39657783508301,4.61204481124878,11.468452453613281,0.4314025640487671,-0.8036944270133973,0.7381539940834047
17.448501586914062,2.338638544082642,8.612112045288086,-0.8719252943992616,-1.2767493724822998,0.8957167267799379
15.579993247985842,-1.491566061973572,8.917835235595703,-1.3283038139343262,-1.6602935791015625,0.6811733841896058
14.411534309387209,-4.872629165649414,10.214105606079102,-0.9651922583580018,-1.7639052867889404,0.21460564434528354
12.357218742370607,-5.039477348327637,11.66645622253418,-0.04018214717507363,-1.5281963348388672,-0.2342033088207245
9.798770904541016,-2.760724782943726,13.143308639526367,0.793608546257019,-1.042903542518616,-0.5352500677108765
6.052916526794434,0.6646220684051514,13.453035354614258,1.1060358285903933,-0.42407563328742987,-0.7688397169113159
1.1830741167068484,2.381135702133179,12.004415512084961,0.8864647150039673,0.12724001705646518,-1.0161659717559814
-2.735236644744873,1.9156782627105713,9.773250579833984,0.4940144419670105,0.5048006176948548,-1.1969124078750613
-5.4530606269836435,-0.016483455896377563,7.834305286407472,0.3307574093341828,0.7808841466903687,-1.3136154413223269
-6.884862422943116,-1.7398228645324707,7.166685104370117,0.44172117114067083,1.0203241109848025,-1.3677406311035156
-7.380030155181886,-1.887714147567749,7.525877952575684,0.563394606113434,1.3166155815124512,-1.2984045743942263
-7.644767284393311,-1.955568790435791,7.8338332176208505,0.5026993155479432,1.6814970970153809,-1.0983893871307373
-8.541658401489258,-2.640974998474121,6.8919034004211435,0.3627419769763947,2.0931763648986816,-0.841926395893097
-9.6609582901001,-2.797173023223877,5.594681262969972,0.18868361413478854,2.4236428737640385,-0.5692464113235474
-9.505002021789553,-2.594925165176392,4.587846755981445,-0.057968512177467346,2.7535049915313725,-0.22234487533569336
-10.135553359985352,-2.9245734214782715,2.795431137084961,-0.26144608855247503,3.0062170028686523,0.1369081735610962
-9.640987396240234,-2.710862636566162,1.9798579216003418,-0.4342167377471924,3.1386554241180424,0.47710561752319336
-8.742680549621584,-2.4196689128875737,1.3008033037185671,-0.5752480626106263,3.2873885631561284,0.7948174476623535
-8.343681335449219,-2.1030044555664062,0.270383358001709,-0.6459944248199463,3.395159006118775,1.0257456302642822
-7.222623825073242,-1.1801929473876953,0.29288616776466375,-0.744478702545166,3.437339067459107,1.226307511329651
-5.003098011016847,-0.6377673745155336,1.1680607795715332,-0.9140800833702089,3.56471586227417,1.4364084005355837
-3.649131059646607,-0.36522310972213745,0.9129015803337098,-1.0100419521331787,3.7544407844543457,1.60571825504303
-2.9111664295196538,1.2786761522293093,0.3829900026321411,-1.0904479026794434,3.837628602981568,1.740593433380127
-1.1408880949020388,2.655733108520508,0.45285671949386597,-1.2483282089233398,3.8377993106842045,1.7776736021041872
0.846414625644684,3.067996025085449,0.5910900831222534,-1.3326847553253174,3.8080236911773686,1.6790008544921875
2.705908536911011,3.567326068878174,0.8020511865615845,-1.269916892051697,3.750658750534058,1.4625442028045654
4.6162686347961435,4.90476942062378,1.2113792896270752,-1.1947176456451416,3.6805136203765874,1.1519496440887451
6.5446319580078125,6.4734816551208505,1.715391278266907,-1.2403298616409304,3.574552536010742,0.8096038103103638
9.89834213256836,6.01147222518921,2.8081848621368413,-1.2876062393188477,3.479535818099976,0.4286288022994995
12.86390495300293,3.8991856575012207,2.621416330337525,-1.057446002960205,3.4287543296813965,0.054578345268964774
14.126565933227539,3.1797492504119877,2.166007280349732,-0.6748036742210389,3.217959403991699,-0.15462760627269748
16.054046630859375,3.549196720123291,3.3268673419952397,-0.4890211224555969,2.869177579879761,-0.13283599913120273
19.344928741455078,3.4533586502075195,5.342410564422608,-0.5325282216072084,2.6126794815063477,0.08930581063032152
20.7085132598877,1.9287384748458865,4.806975841522218,-0.5113394856452943,2.4479019641876225,0.29550015926361084
18.693130493164062,1.5706334114074707,2.394486427307129,-0.2827208340168,2.0737524032592773,0.3685776293277741
16.490371704101562,2.318949937820435,1.124575138092041,-0.1342078894376755,1.462925910949707,0.3425871729850769
14.648193359375,2.394618034362793,1.3056267499923708,-0.13828472793102267,0.8812226057052612,0.22452743351459506
13.298500061035156,1.8319156169891357,1.562324404716492,-0.14304937422275546,0.4224428236484528,0.07783368229866028
10.789676666259766,2.1541457176208496,0.15640771389007568,-0.08789223432540894,0.02592399157583714,-0.014924069866538048
6.622563838958741,2.4697165489196777,-2.582401514053345,-0.01713208481669426,-0.5453802943229676,-0.14456556737422946
4.319019317626953,1.6856817007064822,-3.727363109588623,0.207394540309906,-1.3389397859573366,-0.32543790340423584
6.417462825775147,2.858148336410523,-2.433545351028443,0.5970135927200317,-2.108631134033203,-0.6716269850730897
43.56878280639649,17.34142112731934,21.801448822021484,-1.5349286794662478,-3.1171393394470215,0.025301566347479824
53.884246826171875,-2.899755239486695,40.228893280029304,-2.1508529186248784,2.59574031829834,0.6204028129577637
-7.571974277496339,-0.7187014222145082,-8.270044326782227,-1.0150694847106934,1.8639217615127566,0.9263246059417725
11.980504035949709,1.9711081981658936,20.66977310180664,-0.7057981491088867,2.262305736541748,1.1265119314193728
-6.381293773651124,-3.4379723072052006,11.261682510375977,-0.4583202004432678,1.3636897802352907,0.470755398273468
-3.034303665161133,-10.069396018981935,12.125694274902344,-0.10645048320293427,0.4796570837497712,0.15161906182765963
1.469898581504822,-3.7483983039855957,12.892196655273438,0.16758912801742554,-0.5046113133430482,-0.3277443051338196
4.683046340942383,-2.1368260383605957,9.931088447570803,0.1722145676612854,-0.6079398393630981,-0.4039869606494904
8.635024070739748,2.4123532772064213,7.7877516746521005,0.09762978553771973,-0.4378522336483002,-0.29706645011901855
8.607960700988771,1.7872536182403564,7.738454341888429,0.05489394441246987,-0.1364084780216217,-0.160344660282135
6.922663211822511,-1.6288068294525146,7.935961246490479,0.021226229146122936,0.151597797870636,-0.06431456655263902
5.322048187255859,-1.9278894662857058,8.726742744445803,0.10820429027080536,0.2631281614303589,-0.060166958719491966
5.109868049621582,-2.037543296813965,9.068488121032717,0.13063184916973117,0.30566054582595825,-0.13708509504795077
4.9131059646606445,-0.7734917402267456,9.337547302246094,0.12823882699012756,0.28143146634101873,-0.1514001935720444
5.003561973571777,0.33636242151260376,9.800777435302734,0.03401148691773415,0.20629096031188965,-0.0776675269007683
5.157998085021973,-0.33257195353508,9.429712295532227,-0.0008181376615539193,0.1435551941394806,-0.00409945147112012
4.970542430877686,-1.0400853157043457,9.310519218444826,0.01988919824361801,0.09671715646982194,0.0004948470741510391
4.879464626312257,-0.9071307182312012,9.42561435699463,0.013867057859897614,0.05379831418395043,-0.021135484799742702
5.0566511154174805,-0.8284859061241151,9.308774948120117,0.0001818155433284119,0.03599683195352554,-0.034675557166337974
5.145514488220215,-0.4025111794471741,9.263596534729006,-0.015821399167180065,0.025587214156985286,-0.022142190486192703
5.005253314971925,-0.18793562054634094,9.462272644042969,-0.04437466338276864,-0.009200066328048706,0.014430153183639051
4.7808427810668945,-0.6147664189338685,9.40369987487793,-0.06597703695297241,-0.0625254735350609,0.03387351706624032
4.687208652496339,-0.5394729971885682,9.49600601196289,-0.0910988673567772,-0.14175519347190857,0.038735579699277885
4.813253402709961,-0.3631356954574585,9.621362686157227,-0.12945556640625,-0.23256579041481018,0.053486395627260215
5.016870021820069,-0.6770634651184082,9.487112045288086,-0.14347466826438904,-0.30842617154121404,0.07089996337890625
5.111957073211671,-0.7300063371658325,9.262049674987795,-0.14096924662590027,-0.35300794243812567,0.09194710105657579
4.956912517547608,-0.44605326652526855,9.291792869567873,-0.17142996191978455,-0.39713492989540106,0.10650135576725006
4.991968154907227,-0.8623999357223511,9.369609832763672,-0.2096776515245438,-0.43739709258079534,0.09505262970924377
5.317326068878175,-1.238394021987915,9.112250328063967,-0.18398872017860413,-0.45316353440284735,0.07127059996128082
5.532785892486573,-1.0451643466949463,9.03078365325928,-0.1564522087574005,-0.45104494690895086,0.05966462567448617
5.563833236694336,-0.9246866703033447,8.852145195007326,-0.17313829064369202,-0.43542870879173284,0.07058955729007721
5.644638538360597,-1.121824622154236,8.842761039733888,-0.18800790607929233,-0.40922591090202337,0.0827873945236206
5.469205856323242,-1.1169025897979736,8.687415122985842,-0.1738269031047821,-0.3709457218647004,0.06662945449352264
5.17175054550171,-1.122650146484375,8.950212478637695,-0.16869886219501498,-0.3718631863594055,0.059424884617328644
5.212292194366456,-0.8328362107276918,9.21577548980713,-0.18907839059829712,-0.41447743773460394,0.05355018377304077
5.229745864868164,-1.6808598041534424,8.920343399047852,-0.17332841455936435,-0.4405204355716706,0.002355066128075123
5.472301483154297,-1.9741276502609255,8.548685073852539,-0.08400466293096544,-0.44597727060317993,-0.04414715990424157
5.552999019622804,-1.0084433555603027,8.75802230834961,-0.07008305937051774,-0.4397384524345398,-0.07735654711723328
5.542791366577148,-1.0689592361450195,8.792856216430664,-0.08971214294433594,-0.4212499558925629,-0.08431448042392731
5.326139450073242,-1.1525284051895144,8.755728721618654,-0.09141475707292558,-0.44605973362922674,-0.10059294104576111
5.353046894073487,-1.5042946338653564,8.927416801452638,-0.06477608531713487,-0.45973485708236694,-0.12950445711612704
5.229660987854004,-2.3194050788879395,8.7140588760376,0.026064800098538402,-0.48235273361206055,-0.17820489406585693
5.632599830627441,-2.13381290435791,8.38843631744385,0.1592388600111008,-0.5181227922439575,-0.24581111967563632
5.70455265045166,-1.4826691150665283,8.380210876464844,0.20129336416721347,-0.5130922198295594,-0.29074668884277344
5.787766456604004,-1.0675158500671387,8.455877304077148,0.2038080841302872,-0.5072550773620605,-0.2917166650295258
5.499104022979737,-0.7545578479766846,8.880365371704102,0.188845694065094,-0.5199453234672547,-0.274145394563675
5.422941684722901,-0.6975203156471254,9.033218383789062,0.1838224232196808,-0.5821457505226136,-0.2607995867729187
5.508726119995117,-1.3315337896347048,8.76176166534424,0.21627952158451083,-0.6518190503120423,-0.2738117575645447
5.741594314575195,-0.6846905946731567,8.63021755218506,0.23856523633003235,-0.7219490408897401,-0.28822386264801025
5.997272491455078,-0.24057944118976596,8.797085762023928,0.21207091212272644,-0.7510699629783631,-0.28087314963340765
5.939597606658936,-0.8979104161262513,8.402966499328615,0.20381861925125122,-0.7537843585014344,-0.2692962884902954
6.357026100158691,-0.3207127153873444,8.316091537475586,0.18941210210323337,-0.7929161190986634,-0.27789080142974854
6.541668415069581,-0.3472232222557068,8.34256362915039,0.16256126761436462,-0.7702935338020326,-0.2409912347793579
6.312085628509522,-0.643913984298706,8.214997291564943,0.16782401502132419,-0.7659283876419067,-0.2076117992401123
6.356659412384034,-0.29048579931259155,8.506917953491211,0.1651466935873032,-0.7898300886154175,-0.19640503823757174
6.05378007888794,-0.9289219379425049,8.354738235473633,0.1760658323764801,-0.8159700632095337,-0.19388990104198459
6.079989433288574,-0.9907461404800415,8.205476760864258,0.1935025155544281,-0.891667664051056,-0.23291316628456116
6.42569637298584,-0.7493019104003906,8.275265693664553,0.21051472425460815,-0.9356704354286195,-0.2810619175434113
6.190633773803711,-0.9184336066246034,8.174550056457521,0.23066937923431396,-0.9576943516731263,-0.31274592876434326
6.655218124389648,-0.4155923128128052,8.007534980773928,0.2346961498260498,-1.0159661769866943,-0.33114454150199896
6.643613815307617,-0.6626174449920654,8.052286148071289,0.23894225060939792,-1.0300021171569824,-0.3257599771022797
6.342318534851074,-1.0109467506408691,8.04121208190918,0.2552975714206696,-1.0858674049377441,-0.37266820669174194
6.584977626800538,-0.7627717852592469,8.239574432373047,0.2782696485519409,-1.1684707403182986,-0.4119604229927063
6.714942455291749,-0.22872668504714966,8.281437873840334,0.26914888620376587,-1.2531392574310303,-0.4306390583515168
6.621347904205323,0.014671310782432556,8.35025405883789,0.25360879302024847,-1.3405287265777588,-0.4202109277248383
6.697193622589112,-0.18516395986080172,8.380314826965334,0.2614619433879853,-1.4640429019927979,-0.42257726192474365
6.1503643989563,-0.37385785579681396,8.56557846069336,0.28914874792099,-1.6625972986221316,-0.4534096121788025
6.050749301910401,0.05521602928638458,8.323437690734865,0.3245790898799897,-1.921518921852112,-0.5059401988983154
5.830550193786621,-0.1697750687599182,8.560070991516115,0.39483070373535156,-2.2764661312103276,-0.5489951372146606
6.295755386352539,-0.4655713438987732,8.050539970397951,0.4904396235942841,-2.712036609649658,-0.6301630735397339
6.665555477142335,-0.3140332400798798,7.588335514068604,0.5952885150909424,-3.2146070003509526,-0.6822255849838257
7.152423858642578,0.7327064871788026,7.764193058013917,0.6881429553031922,-3.7592680454254155,-0.6915967464447021
7.773109436035156,1.6142139434814453,7.995587825775147,0.7421188354492188,-4.311665058135987,-0.6019304990768433
9.02767562866211,1.8531508445739746,8.09588623046875,0.7572605013847352,-4.694604873657227,-0.4369296431541443
11.42605972290039,2.66329288482666,8.449299812316896,0.594828724861145,-4.881677150726319,-0.19734042882919312
15.016498565673828,3.8760826587677006,9.231895446777344,-0.18308469653129578,-4.650403022766113,0.26102069020271307
17.132284164428714,1.7181066274642947,9.237281799316406,-0.9259964227676392,-4.11659860610962,0.4298916459083557
21.357948303222656,1.4557816982269287,8.557672500610352,-1.1056920289993288,-3.6140904426574707,0.7982851266860962
21.416866302490234,2.5160975456237793,6.728891849517823,-1.6872302293777468,-3.247166156768799,0.8472378849983216
21.72907257080078,0.21643632650375366,1.9109796285629275,-2.4202818870544434,-3.265747547149658,0.4717400968074799
21.391189575195312,-4.606096744537354,-1.1582111120224001,-1.6687780618667605,-3.383866786956787,-0.5367580056190492
21.683746337890625,-3.9568688869476323,-7.412290573120117,0.013299694284796715,-3.828999757766724,-1.6989861726760866
24.703344345092777,-3.1762063503265385,-5.607635974884034,1.5086045265197754,-4.416947841644288,-2.611201763153076
23.06011199951172,-0.6192522048950195,-5.200373172760011,2.554993867874146,-4.954761028289796,-3.3060998916625977
29.815931320190433,3.5566272735595703,-1.544454574584961,2.841189384460449,-5.698740482330323,-3.778888702392578
34.06962966918946,6.80251407623291,9.531503677368164,1.8923033475875857,-5.236708641052246,-3.590324878692627
25.793914794921875,5.421952724456788,8.17855739593506,0.38271886110305786,-4.571167469024659,-3.335750102996826
24.159435272216797,2.2021410465240483,8.839580535888672,-0.711711347103119,-4.1549038887023935,-3.2502822875976562
20.173686981201172,-0.5633000731468202,8.551746368408203,-1.2288078069686892,-3.706179618835449,-3.1902229785919194
16.548292160034183,-3.178123235702515,8.320261955261232,-1.3699617385864258,-3.4062364101409917,-3.2259199619293217
13.302771568298342,-7.338972568511964,9.184722900390625,-0.9917811751365663,-3.1498775482177734,-3.24046540260315
11.43274784088135,-9.432062149047852,10.473208427429201,-0.045568171888589866,-2.9270284175872807,-3.157289505004883
10.838542938232422,-8.545145034790039,12.45034694671631,0.9623396396636963,-2.4537703990936284,-2.920313835144043
9.066174507141115,-6.592520713806152,14.240880966186523,1.5571032762527468,-1.5994365215301514,-2.478062152862549
6.3410491943359375,-4.418371200561523,15.147099494934084,1.569986939430237,-0.5942633152008057,-1.9292744398117068
2.914951086044312,-2.9641714096069336,14.96763801574707,1.1247203350067139,0.2898250222206116,-1.345799803733826
-0.33095502853393555,-2.3416342735290527,14.1461181640625,0.41245537996292114,0.9904507994651796,-0.7930912971496582
-2.738653421401978,-3.262839555740357,12.26078987121582,-0.27900469303131104,1.574937701225281,-0.32090440392494207
-4.389782905578613,-4.704683780670167,10.112467765808107,-0.6182494759559632,1.9421653747558594,-0.00024694579769857233
-5.330138683319093,-4.935269355773926,8.592071533203125,-0.6563271284103394,2.1126623153686523,0.2418119162321091
-5.3712158203125,-4.396039485931397,7.981669902801515,-0.6403695940971376,2.205284595489502,0.5041866898536683
-5.100275039672852,-3.6525204181671147,7.953056812286378,-0.62713623046875,2.320043325424195,0.7670873999595643
-4.697592735290527,-2.7605342864990234,8.136086463928224,-0.6617841720581055,2.498226881027222,0.9722369909286499
-4.073987007141113,-1.7922098636627197,8.45968532562256,-0.7693894505500795,2.743176698684693,1.0967464447021484
-3.3638164997100835,-1.0664536952972412,8.685280799865724,-0.947264552116394,3.0461866855621342,1.1632544994354248
-2.6679673194885254,-0.4548014998435974,8.634153366088867,-1.184871315956116,3.3756837844848633,1.1692814826965332
-2.2568314075469975,0.018856778740882874,8.15830707550049,-1.436484217643738,3.722196578979492,1.1355654001235964
-2.125597715377808,0.4422989189624787,7.4926466941833505,-1.682462811470032,3.9898097515106206,1.0813572406768799
-1.5980706214904785,1.1034808158874512,7.252877712249757,-1.9629703760147097,4.148190498352051,1.0602420568466189
-0.5385729670524598,1.789018750190735,7.6102399826049805,-2.2801330089569096,4.269591331481934,1.0908777713775635
0.4510645270347595,2.4778103828430176,7.920074462890625,-2.594744443893433,4.417532920837402,1.130226016044617
1.7742164134979248,2.530710935592652,8.279465675354006,-2.873367071151734,4.570491313934327,1.1181340217590332
3.2764296531677246,1.9700121879577637,8.702308654785156,-2.998685359954834,4.738826274871827,1.069659948348999
4.341552257537843,1.541564702987671,8.96989631652832,-2.950706243515015,4.883745193481445,1.042299747467041
4.856598377227784,2.052947521209717,9.047585487365724,-2.8613870143890385,4.967903137207031,1.06114399433136
5.782873153686523,3.1327223777770996,9.268440246582031,-2.8890366554260254,4.9914751052856445,1.1140044927597048
7.093067646026612,3.192517518997193,9.733320236206055,-3.0107581615448002,5.009360313415527,1.1634486913681032
8.22034549713135,2.8865904808044434,10.391821861267092,-3.0376901626586914,5.007366657257081,1.1983360052108767
9.38688850402832,3.7879719734191895,11.04966926574707,-3.027331113815308,4.976038932800293,1.231514096260071
10.392649650573732,4.784840106964112,11.409549713134766,-3.0745444297790527,4.92769718170166,1.2550748586654665
10.759218215942383,6.507015228271484,11.72500228881836,-3.1620044708251953,4.801195621490479,1.2269792556762695
11.55733871459961,6.933016300201417,11.949513435363771,-3.294011116027832,4.620409488677979,1.0952302217483523
12.650375366210938,6.212509632110597,11.952258110046388,-3.2492518424987793,4.425352573394776,0.8943825960159302
13.28349494934082,5.6858839988708505,12.025863647460938,-2.964535474777222,4.1930508613586435,0.6771973371505737
13.451501846313477,6.342705249786378,12.17007064819336,-2.6142563819885254,3.947057485580445,0.4568774700164795
13.834110260009766,7.835980892181397,12.557753562927248,-2.4193549156188965,3.7003829479217534,0.24079655110836032
14.31413459777832,9.131529808044435,13.271105766296388,-2.4465889930725098,3.4581038951873784,0.02696359157562256
14.852727890014648,10.140711784362795,13.943593025207521,-2.6450717449188237,3.2885162830352788,-0.23085889220237732
15.532402038574219,10.720771789550781,14.141798973083498,-2.8929433822631836,3.213113069534302,-0.5390015840530396
15.847962379455568,11.074683189392092,13.672004699707031,-3.097017765045166,3.218333959579468,-0.8560102581977845
15.999029159545898,10.403619766235352,12.485358238220217,-3.154959917068482,3.2474803924560547,-1.109657406806946
15.789614677429201,9.514663696289062,10.638613700866701,-2.977057456970215,3.236849308013916,-1.3008536100387575
15.143068313598633,9.440277099609375,8.127556800842287,-2.681004524230957,3.0919892787933354,-1.3863375186920166
14.713886260986328,9.842387199401857,5.58254098892212,-2.3930685520172124,2.817586898803711,-1.3860235214233398
14.477540969848633,9.239539146423342,2.69327449798584,-2.034209489822388,2.4300808906555176,-1.4562693834304812
14.904829978942873,7.173351287841797,0.3897207975387573,-1.4328587055206299,1.9649529457092285,-1.743760943412781
15.269067764282227,6.261343955993652,-1.4715986251831055,-0.7233970761299134,1.4654061794281006,-2.1491086483001713
15.34978771209717,8.279664993286133,-3.120984315872193,-0.40936094522476196,0.9060277342796327,-2.391260385513306
16.0655689239502,9.79175662994385,-3.6230657100677495,-0.7775849699974061,0.37440288066864014,-2.247888803482056
16.132240295410156,7.916536331176758,-3.395928382873535,-1.2580193281173708,-0.004753757733851672,-1.8511159420013428
15.831530570983888,4.263982295989991,-2.480067729949951,-1.1798577308654785,-0.27559259533882147,-1.4434411525726318
13.748610496520998,1.2038886547088623,-0.8817294239997865,-0.44805699586868286,-0.5073253512382508,-1.1689540147781374
3.333872556686402,-5.774562358856202,9.361833572387695,1.642383337020874,-0.920832931995392,-1.3138675689697266
-4.278057575225831,-3.188334703445435,14.27783203125,1.9019393920898438,-0.08685542643070221,-1.3912836313247683
0.295482486486435,-9.299395561218263,14.466590881347656,1.5074478387832644,-1.25547194480896,-1.3465379476547243
5.561386585235597,-16.24788856506348,7.820993900299073,1.7531566619873047,-2.0902998447418217,-1.3181480169296267
17.42906951904297,-9.098254203796388,12.810784339904787,1.7770100831985476,-2.3715720176696777,-1.1587048768997195
19.922494888305668,2.4756436347961426,17.37298583984375,1.28210723400116,-1.5373791456222536,-0.36312049627304077
11.530447006225586,8.958882331848146,15.043793678283693,0.6852494478225708,-0.5656585097312928,0.059448473155498505
4.6158108711242685,11.371811866760256,12.047595024108888,0.6099358201026918,-0.4120692014694214,-0.19901716709136963
5.160520553588867,4.9263014793396005,12.107289314270021,0.25208219885826116,-0.32135188579559326,-0.32181152701377874
4.635075569152832,-2.402056455612183,9.408283233642578,0.27001610398292547,-0.225594237446785,-0.27828919887542725
4.202970504760742,-0.47924506664276123,9.675159454345703,0.24201685190200806,-0.26135525107383734,-0.10764068365097046
4.864361763000488,2.2043256759643555,10.19381618499756,0.0840766951441765,-0.1489044427871704,-0.12854722142219543
5.313511848449707,-0.9081103801727295,9.72068500518799,-0.006707001477479935,-0.0730097219347954,-0.17303630709648132
5.846364974975586,-2.146194219589234,9.870399475097656,0.09955140203237535,-0.04193316027522088,-0.10822397470474243
5.1066956520080575,-0.2930716872215271,10.01094150543213,0.17229494452476501,0.0059012952260673055,-0.11552628874778748
4.74615478515625,-0.8692346215248109,9.979019165039062,0.14304424822330478,0.010349133983254433,-0.14683067798614502
5.160501956939698,-0.8721926212310791,9.93570327758789,0.11560875177383423,0.0021029112394899134,-0.10335370898246765
4.82654619216919,-0.7149800658226014,9.712553024291992,0.0812341794371605,0.021073451265692714,-0.07570628821849823
4.380183696746827,-1.3759590387344363,9.55767822265625,0.0639907717704773,0.016404060646891597,-0.058207906782627106
4.327448844909668,-1.03265655040741,9.677684783935547,0.08570446819067003,-0.012044999748468399,-0.06745035946369171
4.425737857818604,-0.8363047242164613,9.763215065002443,0.10536495596170427,-0.0361102819442749,-0.08582500368356706
4.713590145111085,-0.6623229384422303,9.734861373901367,0.08735530823469163,-0.04378003254532815,-0.07424986362457275
4.779402256011964,-0.3307213485240937,9.72673225402832,0.05452913418412209,-0.03079988807439804,-0.05088219419121743
4.610557079315186,-0.6270491480827333,9.722200393676758,0.01863283477723599,-0.021624870598316193,-0.02575351670384407
4.599084854125977,-0.857094705104828,9.644110679626467,-0.00592678738757968,-0.029894739389419556,-0.007377715315669776
4.582256793975831,-0.6837421655654907,9.586339950561523,-0.024447651579976085,-0.03973773494362832,0.008543666452169418
4.4684462547302255,-0.7476511597633363,9.51465702056885,-0.040064010769128806,-0.053545527160167694,0.02325575612485409
4.396327018737793,-0.6847798824310303,9.438823699951172,-0.05571236461400986,-0.06232706084847451,0.026271177455782894
4.224653720855714,-0.8861515522003174,9.420722961425781,-0.08127500116825104,-0.08050320297479631,0.03333219885826111
4.099020004272461,-0.8983500599861146,9.342204093933107,-0.08611626923084259,-0.10129792988300323,0.024058820679783825
3.9141063690185547,-1.157588601112366,9.361711502075195,-0.06886829435825348,-0.1384573429822922,-0.014404403045773506
4.601114273071289,-1.3481534719467165,9.366045951843263,-0.058891661465168,-0.16089557111263278,-0.0349002592265606
4.928670883178711,-0.6859444975852967,9.463847160339357,-0.03915373235940933,-0.13576169312000277,-0.04092586040496826
4.772423267364503,-0.7548025846481323,9.412384033203125,-0.04221633449196816,-0.09707387536764146,-0.03350863605737686
4.7019104957580575,-0.9526622295379639,9.457468986511232,-0.03960928693413735,-0.08425749838352203,-0.023567492142319683
4.72530460357666,-0.8381283879280091,9.453169822692873,-0.034112751483917236,-0.07131788879632951,-0.01939368806779385
4.716114521026612,-0.7242428064346313,9.468708992004396,-0.04071998968720437,-0.06163879483938217,-0.013322978280484678
4.778908252716065,-0.563461184501648,9.52269172668457,-0.04997010901570321,-0.049303840845823295,-0.002905240748077631
4.664504528045655,-0.5182485580444336,9.455569267272951,-0.07978223264217377,-0.043029885739088065,0.015837937593460083
4.20835828781128,-0.5899804830551147,9.278052330017092,-0.14651250839233398,-0.04838057979941369,0.04953281208872796
4.2356886863708505,-0.6968890428543091,9.570295333862305,-0.1490593105554581,-0.07022184133529663,0.024362230673432354
4.0515503883361825,-1.846785068511963,9.442349433898928,-0.10504985600709917,-0.1082974746823311,-0.04436325281858444
4.609530925750733,-1.3234844207763672,9.427619934082031,-0.05903624370694161,-0.13502511382102966,-0.08520140498876573
4.718389511108398,-0.6583043932914735,9.48219108581543,-0.05490184947848321,-0.12346351146697998,-0.08997811377048492
4.593650817871094,-0.9645084738731385,9.502092361450195,-0.06791406124830247,-0.1150706559419632,-0.0878584608435631
4.535770893096925,-1.3552244901657107,9.49740219116211,-0.033068921416997916,-0.12975440919399264,-0.12103088200092316
4.683693885803223,-1.146229147911072,9.450964927673342,0.017230076715350155,-0.13920313119888306,-0.15519468486309054
4.804106235504151,-0.7444615364074707,9.476864814758303,0.012156733311712744,-0.13965445756912231,-0.16196605563163757
4.472625732421875,-0.8373234868049623,9.47276020050049,-0.02158393152058125,-0.14179643988609314,-0.14719559252262118
4.341540813446046,-1.1313256025314333,9.447541236877443,-0.03897626325488091,-0.168451800942421,-0.14840546250343323
4.398110866546632,-1.0371881723403933,9.435056686401367,-0.03113278560340405,-0.20303401350975037,-0.13240768015384677
4.4689650535583505,-1.0227466821670534,9.429109573364258,-0.030856197699904445,-0.24592819809913635,-0.1336331069469452
4.2367615699768075,-1.544490098953247,9.556969642639162,-0.0215416681021452,-0.30301785469055176,-0.17323346436023715
4.464848995208741,-1.3634527921676638,9.669488906860352,0.0018921971786767244,-0.3765917420387268,-0.21223269402980807
4.809483528137207,-0.716785192489624,9.663498878479006,-0.014689692296087744,-0.4634546637535095,-0.22438342869281772
4.7303571701049805,-0.2070067822933197,9.785969734191896,-0.09708777815103532,-0.5496463775634766,-0.20588070154190063
4.943017482757569,0.10541361570358276,9.985438346862795,-0.24554921686649325,-0.6651314496994019,-0.14525441825389865
4.680300235748292,0.35945987701416016,10.131938934326172,-0.4069044589996338,-0.7967758178710938,-0.07232362776994707
4.168693065643311,0.16316650807857516,10.21518325805664,-0.5732710361480713,-0.9649073481559755,-0.05819381773471832
3.235308408737183,-0.18847990036010742,10.227806091308594,-0.7293884754180908,-1.1993750333786013,-0.07907290011644365
3.7466194629669194,-0.008973374962806702,10.089327812194826,-0.8381064534187318,-1.543281078338623,-0.039676781743764884
3.473510265350342,0.5530455112457275,10.24810314178467,-0.9615731239318848,-1.893010139465332,0.06643045693635942
3.424020290374756,0.5736544132232666,10.60664463043213,-1.090487837791443,-2.3157687187194824,0.14933429658412936
3.1534492969512944,0.7763586640357972,10.870450973510742,-1.2447929382324219,-2.7914192676544194,0.2115256637334824
2.8275854587554936,0.0015273988246917725,11.044011116027834,-1.3531655073165896,-3.3630151748657227,0.247298076748848
2.2212073802948002,-0.6287286877632142,10.676311492919922,-1.3657827377319336,-4.151393890380859,0.18718911707401278
1.5445327758789062,-0.9883328676223755,11.779456138610842,-1.3132715225219727,-5.232877254486085,0.008306123316287994
2.198084831237793,-3.02312445640564,12.905665397644045,-1.226959824562073,-6.543745994567871,-0.1605217456817627
4.273065090179444,-6.335016727447511,13.550129890441896,-1.3198050260543825,-7.894430160522461,-0.42486450076103216
7.071209430694581,-2.468783378601074,17.59683609008789,-1.7909311056137087,-9.17962169647217,-0.4245525002479553
13.62885856628418,-0.8009692430496216,19.09960174560547,-2.1982424259185795,-9.239751815795898,-0.13104124367237094
18.266422271728516,-3.8273816108703613,16.56880378723145,-2.3976783752441406,-9.026406288146974,-0.05826161429286004
23.68210029602051,-2.569037437438965,19.086496353149418,-2.909005403518677,-8.224571228027344,-0.4034210145473481
19.326282501220703,-3.032219409942627,17.268880844116214,-3.5517210960388184,-7.20705509185791,-0.887489140033722
22.708881378173828,-2.447693347930908,14.848251342773438,-4.626014709472656,-6.408837795257569,-0.6509753465652466
20.755094528198246,-0.2807830572128296,15.282237052917482,-6.555135726928711,-5.015096187591554,0.08275579661130907
19.90004920959473,-3.166755914688111,13.217713356018068,-8.414399147033693,-3.640596866607666,0.4602257907390595
10.815686225891115,-9.830632209777834,10.761913299560547,-7.274894714355469,-1.9705936908721924,-0.7836261391639711
33.43053436279297,-7.334133148193359,24.139659881591797,-5.414963722229004,0.5014936327934266,-2.612633228302002
18.199468612670902,-8.180671691894531,19.264432907104496,-3.0615375041961674,3.4106597900390625,-3.163072109222412
6.476339340209961,-1.6023436784744265,10.000797271728516,-2.206219911575318,4.003588676452637,-3.142889261245728
4.721006393432617,3.153927087783814,5.034475326538086,-2.219451427459717,4.208062171936035,-3.1327493190765385
3.2274203300476074,2.0628125667572026,2.8401432037353516,-2.5121846199035645,4.017791271209718,-3.0137391090393066
1.5485357046127322,0.35747179388999945,1.858964204788208,-2.6976661682128906,3.691247701644898,-2.675541162490845
1.9681657552719118,-1.0976508855819704,2.5170099735260014,-2.4808545112609863,3.4854342937469487,-2.2869958877563477
3.1360714435577397,-1.1382665634155273,4.273069381713867,-2.0968821048736577,3.4509322643280034,-1.840578317642212
3.501420497894287,-0.792900562286377,5.890222072601319,-1.6655349731445312,3.575306653976441,-1.401068925857544
3.464959144592285,0.07100771367549896,6.828974723815918,-1.3572185039520264,3.823424100875855,-0.9323474764823915
2.969486713409424,1.2056419849395752,6.8329315185546875,-1.233579158782959,4.126000881195069,-0.4764257073402405
2.559746265411377,2.0669538974761967,6.145752429962159,-1.2364112138748171,4.377655506134034,-0.08306306600570679
2.430958509445191,2.526367664337158,5.391362667083741,-1.2359753847122195,4.539738655090332,0.2373326271772385
2.999953985214234,2.7455549240112305,4.99234437942505,-1.1893978118896484,4.643969058990479,0.49774530529975897
3.8029088973999023,2.8557000160217285,4.3868165016174325,-1.0642162561416628,4.7710065841674805,0.6760160326957704
3.4445731639862065,2.964371681213379,3.333402156829834,-0.8364657163619995,4.85360050201416,0.7122972607612611
2.7773895263671875,3.862654685974121,2.8847570419311523,-0.6516222953796387,4.81171464920044,0.6084475517272949
3.6984255313873295,4.7057085037231445,3.287846565246582,-0.6335529685020448,4.804601669311523,0.4498302936553955
4.471127510070801,4.510368347167969,3.7501845359802246,-0.6823173761367798,4.845510005950929,0.26356709003448486
5.200696468353272,3.8578193187713627,4.04845952987671,-0.7084351778030396,4.900808334350586,0.0899086818099022
5.195646286010742,3.4851016998291016,3.4467842578887944,-0.6736841797828675,4.910944938659668,-0.06841226667165758
5.329995155334473,3.3013358116149902,2.8508441448211674,-0.6123110055923462,4.804563999176026,-0.2154047638177872
6.046135902404785,2.973522663116455,2.502196788787842,-0.5761909484863281,4.627052783966065,-0.3073946237564087
7.190636157989503,2.0909624099731445,2.4707069396972656,-0.4979440271854401,4.433017253875733,-0.3646549582481384
8.890671730041506,1.347703218460083,2.7835013866424565,-0.3653985857963562,4.246779918670655,-0.3333565592765808
9.870387077331545,1.189883351325989,2.527465343475342,-0.21498133242130282,4.054743766784668,-0.18822795152664185
10.530842781066896,0.9511970281600952,1.6839325428009033,-0.0978369265794754,3.7749936580657963,0.04235908389091492
10.698573112487795,0.8231609463691713,0.26903811097145086,0.061012059450149536,3.325803279876709,0.30783393979072576
10.596559524536133,1.7799209356307986,-0.5486792325973511,0.20013622939586642,2.703227996826172,0.5801880955696107
11.160882949829102,2.3710019588470463,-0.3258261382579804,0.2790882885456086,2.0090765953063965,0.7855968475341797
13.074835777282717,1.990210771560669,0.9472284317016602,0.41310867667198187,1.3950097560882568,0.8700485825538636
15.058874130249023,2.521264791488648,2.5185279846191406,0.6282615661621094,0.9389698505401611,0.8643799424171449
15.938558578491211,3.914824962615967,3.129040241241455,0.7285823822021484,0.6342223286628724,0.7765966653823853
15.554817199707031,4.094704151153565,2.1413738727569585,0.7328975796699525,0.36906594038009644,0.5834172964096069
14.002784729003906,3.7966854572296147,-0.23301607370376587,0.7879437804222108,0.019345123320817947,0.3233162462711335
10.796466827392578,3.2298047542572026,-3.281016111373902,0.9013337492942811,-0.5572438836097718,0.03650651127099991
8.83877468109131,1.6761790513992312,-4.830289363861085,1.0882863998413086,-1.316900134086609,-0.22260954976081848
8.826215744018555,-0.4639153182506562,-4.147134304046632,1.3420959711074831,-2.020573139190674,-0.33510494232177734
10.094474792480469,0.95989328622818,-2.231329917907715,1.4664729833602907,-2.5050768852233887,-0.21350075304508212
32.436195373535156,7.206275463104249,12.579504013061523,-1.4491070508956911,-3.4758460521698002,1.583613634109497
28.860929489135746,2.0686120986938477,21.167987823486328,-2.1749024391174316,-2.2396686077117924,2.2999281883239746
42.725475311279304,4.656209468841554,43.352760314941406,-2.1236169338226323,0.8546881675720215,1.448016881942749
-15.258825302124023,-14.218849182128906,-3.6939179897308354,-0.07136642932891846,0.5795859694480897,0.18268781900405884
0.9261221885681152,-6.121060848236085,12.865971565246584,0.16961601376533508,-0.9797085523605347,0.013532946817576887
1.528699040412903,2.918933868408203,8.648362159729006,0.30478653311729437,-1.3132712841033936,-0.31333526968956
7.341442584991456,3.861458063125611,10.63821792602539,0.010380948893725874,-1.1872162818908691,-0.44683367013931274
9.282094955444336,-1.450826644897461,9.060221672058107,-0.23692508041858676,-0.6353969573974609,-0.26394268870353704
7.9501495361328125,0.7502837181091309,8.481699943542482,-0.14148862659931186,-0.257651835680008,-0.09232945740222931
7.134068489074707,-0.8647569417953491,9.189298629760742,0.017514798790216446,0.0874246433377266,-0.17097550630569458
5.187127113342285,-3.083741903305054,9.516030311584474,0.1660822778940201,0.20626208186149597,-0.1889226734638214
5.268388271331788,-2.9704444408416752,9.189661979675295,0.28986421227455145,0.25080937147140503,-0.2602339088916779
5.846300601959229,-1.2084126472473145,9.16603755950928,0.2514455616474152,0.2759206593036652,-0.268601655960083
6.095806121826172,-0.13235977292060852,9.246528625488281,0.1328742802143097,0.29888090491294866,-0.17411378026008606
4.846270561218262,0.2646991014480591,9.71482563018799,0.030613776296377182,0.2668518722057343,-0.06719776242971422
4.565330982208253,-0.9721213579177856,9.829479217529297,0.004594283178448677,0.1512822359800339,-0.027020864188671112
4.528655529022218,-1.354353904724121,9.580263137817383,0.01617379300296307,0.04922908917069436,-0.04772510379552841
5.059136867523194,-0.8161652088165283,9.405941963195803,0.02495456114411354,0.007266959641128779,-0.06770730018615723
5.340163707733155,-0.19106745719909668,9.432623863220217,-0.0028474854771047835,0.016918934881687164,-0.03963093459606171
5.048728466033936,-0.28740352392196655,9.48182773590088,-0.040228325873613364,0.01676030457019806,0.00353437545709312
4.8625760078430185,-0.6714423298835756,9.563395500183107,-0.054456662386655814,-0.01012761425226927,0.019742485135793686
4.960811138153077,-0.824622392654419,9.495145797729492,-0.049162518233060844,-0.04359418898820877,0.019117714837193493
5.103551387786866,-0.6270381212234497,9.381875038146974,-0.06727458536624908,-0.07130486518144609,0.03813837096095086
5.126136302947999,-0.5455189943313599,9.340216636657717,-0.08538497239351274,-0.0946308821439743,0.07707718759775163
5.142002105712891,-0.6515227556228638,9.336522102355959,-0.10681939125061035,-0.09595638513565063,0.11047152429819108
5.081233024597168,-0.8688426613807679,9.26127338409424,-0.12016763538122179,-0.0998564064502716,0.12673769891262057
5.038805961608887,-0.8077520132064819,9.285511016845703,-0.1223355382680893,-0.10540179163217546,0.12139669805765153
5.086758613586426,-0.7676203846931459,9.236591339111328,-0.12763464450836182,-0.1068527474999428,0.12300336360931396
5.136074066162109,-0.8622860908508301,9.265073776245117,-0.13465748727321628,-0.10063064843416215,0.12721970677375793
5.094204902648926,-1.1758530139923096,9.10152339935303,-0.1166437938809395,-0.08638030290603638,0.10567874461412431
5.190544128417969,-1.1449239253997803,9.103339195251467,-0.0909821316599846,-0.062119245529174805,0.08890926837921143
5.178024768829347,-1.0522019863128662,9.043389320373537,-0.07005296647548676,-0.030592316761612896,0.07907940447330475
5.142421245574952,-1.1612399816513064,8.9711389541626,-0.048112880438566215,0.012339231558144094,0.06706851720809937
4.953071594238281,-1.3227883577346804,8.995591163635256,-0.02116212248802185,0.04317655041813851,0.058000028133392334
4.857126712799073,-1.3015413284301758,9.166906356811523,-0.002005284186452627,0.056129317730665214,0.04435217753052712
4.812836647033691,-1.6258605718612673,9.058029174804688,0.038164764642715454,0.07152172178030015,0.002552940044552088
4.971736907958984,-1.6517533063888552,8.8690881729126,0.10940044373273851,0.0870812013745308,-0.05044005066156387
4.99329710006714,-0.952296257019043,8.990786552429201,0.1421269178390503,0.10275886207818986,-0.06212117522954941
4.529679298400879,-0.43143385648727417,9.412467956542969,0.10464750975370408,0.06714825332164764,-0.04202703386545181
4.559113502502441,-0.5911546945571899,9.356469154357912,0.036220129579305656,0.029841292649507523,-0.020751124247908596
4.069658279418945,-1.6675910949707031,9.139620780944826,0.029788825660943985,-0.022192221134901047,-0.05186166986823083
4.526884555816651,-1.1535772085189822,9.039937973022461,0.04255615174770355,-0.07628651708364488,-0.09236329793930054
4.410617828369141,-0.9202635884284974,9.318005561828615,0.03595918416976929,-0.11204528063535692,-0.11682478338479997
4.276954650878906,-0.7603847384452821,9.519495964050295,0.03119071386754513,-0.17996340990066528,-0.1450297981500626
4.41376543045044,-0.660575568675995,9.660505294799805,0.015316906385123731,-0.254544347524643,-0.17261344194412231
4.607561588287354,-0.9639525413513184,9.198687553405763,0.007495667319744826,-0.33070075511932373,-0.1905769854784012
4.55585813522339,-0.9733511805534364,9.599159240722656,0.016563408076763153,-0.41531667113304144,-0.21527673304080966
4.687189579010011,-0.6325696110725404,9.45798110961914,0.016121869906783107,-0.5211430788040161,-0.21654634177684787
4.646454811096191,-0.451371967792511,9.76797389984131,-0.013047030195593834,-0.6404935121536255,-0.2228050380945206
4.8631744384765625,-0.27274194359779363,9.509514808654787,-0.03776996582746506,-0.7673867344856263,-0.2302064299583435
4.814417362213136,-0.15174259245395663,9.826416969299318,-0.08058779686689378,-0.8950687646865845,-0.21559464931488037
5.253708839416504,-0.057642385363578796,9.602326393127443,-0.18231841921806335,-1.0359348058700564,-0.20216289162635803
5.7078962326049805,1.344090223312378,10.068268775939943,-0.40596053004264837,-1.1810020208358767,-0.16402792930603027
4.251616477966309,-0.8022806644439697,9.89010238647461,-0.6523962020874023,-1.3626633882522585,-0.09511850774288177
3.3220942020416264,-1.2245614528656006,9.908799171447756,-0.5209566354751587,-1.649982810020447,0.021823165938258175
5.215873241424561,-0.05180032551288605,10.208263397216797,-0.48946017026901245,-1.99479615688324,0.07086727023124695
4.822670936584473,-0.6662019491195679,9.677248001098633,-0.4867059588432312,-2.2414979934692383,0.07021964341402055
5.206948757171632,-0.47267407178878784,9.699646949768068,-0.4885209500789643,-2.510502338409424,0.06818497925996782
5.419081211090089,-0.4575562775135041,9.486027717590334,-0.4255479574203491,-2.7710154056549077,0.031051995232701305
5.324307918548585,-0.18161079287528992,9.491835594177248,-0.2653445601463318,-3.1652176380157475,-0.010284163057804108
4.52900266647339,-0.9794303178787231,9.952947616577148,-0.12158612906932831,-3.6873879432678223,-0.06640658527612688
4.8585877418518075,-2.854881048202515,10.02381992340088,0.15478292107582092,-4.322104930877686,-0.2111978828907013
7.616534233093262,-3.5533678531646733,11.070564270019531,0.32005849480628973,-4.862812042236328,-0.3365245461463928
11.988072395324709,-4.224765300750733,13.192118644714357,0.455777794122696,-4.887804985046387,-0.10162845999002458
15.472566604614258,-5.232245445251465,10.07768440246582,0.8215008378028871,-4.700908184051515,-0.06169024109840393
26.23208236694336,-1.3136597871780398,1.3485215902328493,1.6048119068145752,-5.159662723541261,-0.6418436765670776
34.65419006347656,-0.5650976896286011,8.666364669799805,1.7255353927612305,-5.3421998023986825,-1.1639851331710818
35.47483825683594,2.6220173835754395,9.776785850524904,1.0711932182312012,-4.097445964813233,-1.084904432296753
24.59709739685059,0.45212426781654363,-0.5293378829956055,0.8042890429496766,-4.3991408348083505,-1.7047491073608398
29.452056884765625,-0.8570765852928163,0.19322681427001953,0.9029220938682557,-5.0833282470703125,-2.261895895004273
40.24781036376953,-0.8524068593978882,9.192427635192873,0.9569565057754517,-5.050827503204347,-2.54788088798523
31.1439208984375,-1.9462009668350222,11.021660804748537,0.9741051197052002,-4.191147327423097,-2.532592296600342
26.34572792053223,0.1138375997543335,10.95033073425293,0.4714501798152924,-4.0961928367614755,-2.359055995941162
24.684938430786136,0.1976359784603119,13.262250900268555,-0.11181323975324632,-3.822938919067383,-2.2368443012237553
21.16564750671387,-0.29091840982437134,14.014021873474123,-0.7446505427360536,-3.413081645965576,-2.1024909019470215
19.322340011596683,-2.1517870426177983,16.20658683776856,-1.2079955339431765,-2.807675838470459,-2.0739676952362065
17.681951522827152,-6.035487174987793,18.096656799316406,-1.191526770591736,-1.808582663536072,-1.9923744201660156
13.2199182510376,-9.381805419921875,18.261180877685547,-0.4304962754249573,-0.6418274044990541,-1.88606595993042
7.476883888244629,-8.867009162902834,16.81721687316895,0.521198034286499,0.4853286445140839,-1.7523461580276491
1.5453885793685915,-6.638851165771484,15.007558822631836,1.1053156852722168,1.36339008808136,-1.4834182262420654
-2.7453112602233887,-4.353660106658936,13.027029991149904,1.2611198425292969,1.9244356155395508,-1.1975992918014529
-5.163712501525879,-2.842970848083496,11.429210662841797,0.9957678318023682,2.355139017105103,-0.8982886075973511
-7.056405067443848,-2.379602670669556,9.50489139556885,0.4848487377166748,2.753461599349976,-0.5825979113578797
-10.219204902648928,-3.552438735961914,6.696710586547852,0.06332577019929887,2.917348861694336,-0.33984813094139105
-11.909351348876953,-4.273538589477539,4.611581325531007,-0.14774993062019348,2.831775665283203,-0.15261621773242953
-12.107172012329102,-4.110732078552246,4.071654796600343,-0.1773210018873215,2.638735294342041,0.03189662471413613
-10.474705696105959,-3.2691898345947266,5.846187591552734,-0.30619546771049505,2.6530165672302246,0.23554271459579468
-8.673208236694336,-2.6842396259307866,6.903613090515137,-0.6043591499328613,2.966013669967652,0.45744985342025757
-9.448753356933594,-3.2699875831604004,5.287432670593262,-0.7717369794845581,3.299710750579834,0.6149386763572694
-10.729533195495607,-3.0495584011077885,2.8924813270568848,-0.7997425198554994,3.3688535690307617,0.7250574231147767
-9.429541587829592,-1.7608691453933718,2.701754093170166,-0.914447546005249,3.3033850193023686,0.8638240694999696
-6.78278923034668,-1.3715690374374392,3.7126724720001225,-1.1292318105697634,3.386504650115967,0.98814195394516
-4.500556945800781,-1.3407313823699951,4.292576789855957,-1.251237154006958,3.6169791221618652,1.1007782220840456
-3.4627161026000977,-0.22920578718185425,3.315187215805054,-1.3265255689620974,3.8726749420166016,1.225774645805359
-2.3199532032012944,0.8653770685195923,2.2194104194641113,-1.4445353746414187,3.9870777130126953,1.3327419757843018
0.17840059101581576,1.3496996164321902,2.242486715316773,-1.5406458377838135,4.057974338531495,1.4247632026672363
2.3901369571685795,1.5180037021636963,2.102454662322998,-1.5145477056503298,4.150986194610597,1.4624128341674805
4.35535764694214,2.059030055999756,1.7853499650955202,-1.4024702310562136,4.181694030761719,1.440061688423157
6.916345596313477,3.143398523330689,1.9342135190963747,-1.3476086854934695,4.125095367431641,1.4172499179840088
10.06389045715332,3.866322755813599,1.871091365814209,-1.3289666175842285,4.042034626007081,1.4125289916992188
13.481545448303224,4.248537540435792,1.362159848213196,-1.269388556480408,3.8835027217864995,1.3737971782684326
16.435043334960938,3.4724884033203125,0.6333823800086976,-1.0719219446182253,3.619412899017334,1.2597235441207888
18.3206958770752,2.9872121810913086,-0.3737691938877106,-0.6922262907028198,3.223598718643189,1.061826825141907
18.871629714965824,2.998156309127808,-1.5545569658279421,-0.2880273461341858,2.696758031845093,0.8845424652099609
18.67581558227539,3.2100648880004883,-2.4206008911132812,-0.006289966404438019,2.0799341201782227,0.7972561717033387
17.653104782104496,3.074078798294068,-3.0616929531097417,0.1540700048208237,1.4653651714324951,0.7056735157966615
15.322028160095217,3.079941034317017,-3.888580322265625,0.3016837239265442,0.8796100020408631,0.5804602503776551
10.96923351287842,2.6491260528564453,-6.5232439041137695,0.4590683579444885,0.2638808190822602,0.44426727294921875
5.835916042327882,1.4126576185226443,-8.711616516113281,0.5529099702835083,-0.5569369792938232,0.4702769219875336
87.59208679199219,17.54500007629395,38.35525131225587,-3.068917751312256,-2.3032996654510502,1.9341235160827637
15.86543941497803,19.35472679138184,-3.9968659877777104,0.21583278477191928,4.171356201171875,0.7848926782608032
16.61114311218262,-6.416445732116699,16.13553237915039,-1.2336950302124023,2.461941480636597,0.6675046682357788
-9.397812843322756,-4.79372501373291,11.394206047058107,-0.4333646893501282,2.238534450531006,0.9169957041740419
-7.061373233795167,0.3340310156345368,15.523898124694826,0.1723591387271881,0.6873497366905214,0.12943264842033386
-1.3546980619430544,-10.284109115600586,12.344363212585451,0.31609669327735906,-0.26912540197372437,-0.5544426441192627
2.388370990753174,-2.263127326965332,11.932516098022461,0.2998915016651154,-0.8414067029953003,-0.3732422888278962
8.85661506652832,3.0691099166870117,9.02227306365967,0.1467466652393341,-0.8007510900497437,-0.36972430348396307
10.370030403137209,0.03827393054962158,6.807208538055421,-0.07482825219631195,-0.3830018341541291,-0.16284942626953125
8.605704307556154,-0.007548779249191284,7.214029312133789,0.003544263541698456,0.05815397575497628,0.003016309114173055
6.474584579467773,-0.7639632225036621,8.128436088562013,0.0561509095132351,0.3607688546180725,0.04685512557625771
5.3114423751831055,-1.3816478252410889,8.950433731079102,0.031910058110952384,0.49726310372352606,0.04465245455503464
4.423366546630859,-0.5905256867408754,9.635395050048828,0.0058168559335172185,0.45830225944519043,0.08490852266550065
4.152474403381348,0.2589008510112763,10.173407554626467,-0.08467601239681244,0.344420999288559,0.13052825629711154
4.09174919128418,-0.26920524239540106,10.221647262573242,-0.1871967315673828,0.2088093310594559,0.18567943572998047
4.101556301116944,-0.9337890744209291,9.946670532226562,-0.1558225154876709,0.04848160594701767,0.16766743361949923
4.273494243621827,-1.166510820388794,9.73573112487793,-0.1013377532362938,-0.07140223681926727,0.08813453465700151
4.648571968078613,-0.8377945423126221,9.602727890014648,-0.11890433728694916,-0.13205753266811374,0.04597680643200875
4.716430187225343,-0.2778433561325073,9.693823814392092,-0.16956825554370883,-0.16922640800476074,0.05152247473597527
5.006421089172363,-0.38696545362472534,9.56922721862793,-0.21470722556114197,-0.20915189385414124,0.08740664273500444
5.153879642486573,-1.0885930061340332,9.258996963500977,-0.23245543241500854,-0.23726202547550204,0.10001997649669647
4.9647841453552255,-0.9841790199279785,9.358683586120607,-0.21113748848438266,-0.25925737619400024,0.09383730590343475
5.01072645187378,-0.6449142694473267,9.502426147460938,-0.22239081561565402,-0.3010020852088928,0.09630251675844194
4.932799339294434,-0.6538364291191102,9.399073600769045,-0.27613890171051025,-0.3560369610786438,0.10624463111162187
4.894500732421875,-0.7476239204406738,9.398930549621584,-0.30696260929107666,-0.39783200621604925,0.11139634251594543
4.897449970245362,-1.0543081760406494,9.459285736083984,-0.31051346659660345,-0.43922173976898193,0.10067461431026459
5.029883861541749,-1.38285493850708,9.180564880371094,-0.3113816678524018,-0.4542476534843445,0.07209130376577379
5.091377258300781,-1.355659604072571,9.094268798828125,-0.2742683589458466,-0.4680050909519196,0.0446113720536232
5.232649803161621,-1.210489273071289,9.04509162902832,-0.2659201323986054,-0.47052353620529175,0.03899997845292092
5.265005588531495,-0.8369315266609193,9.170238494873047,-0.29419660568237305,-0.4957170188426972,0.045663017779588706
5.226292610168457,-1.485544562339783,8.930076599121094,-0.2922093570232392,-0.5165423154830933,0.02891720645129681
5.258172035217285,-1.5779149532318115,8.924021720886232,-0.2841525077819824,-0.5291674137115479,0.044777017086744315
5.608766555786133,-1.2892210483551025,8.632800102233888,-0.2492884546518326,-0.5140480995178223,0.04887751117348672
5.571923732757569,-1.3236548900604248,8.681989669799805,-0.2440457046031952,-0.49801471829414373,0.05369910225272179
5.559576988220215,-1.1056562662124636,8.817632675170898,-0.2425714284181595,-0.4807720184326172,0.06455313414335252
5.254755973815918,-1.5549135208129883,8.609150886535646,-0.23287713527679443,-0.45528632402420044,0.06391080468893053
5.323660850524902,-1.8779323101043701,8.671810150146484,-0.20126332342624667,-0.4468746781349182,0.06258108466863634
5.49696159362793,-1.997300148010254,8.40621852874756,-0.1667565107345581,-0.42966231703758245,0.024103844538331035
5.673099994659425,-1.4750192165374756,8.599365234375,-0.12330169975757599,-0.42414644360542303,0.012551359832286835
5.41446590423584,-1.4658527374267578,8.59415912628174,-0.14328022301197055,-0.3903904259204865,0.008881701156497002
5.0502119064331055,-1.86509370803833,8.660391807556154,-0.15760891139507296,-0.4150915741920471,-0.020140143111348156
5.159941196441651,-1.889704942703247,8.71346950531006,-0.16888956725597384,-0.4651985764503479,-0.03840936720371246
5.138644218444824,-2.18004059791565,8.463992118835451,-0.1351672112941742,-0.5128954052925111,-0.09561920166015625
5.538644790649414,-2.006196737289429,8.347279548645021,-0.08202780783176422,-0.5703459978103638,-0.15994299948215487
5.932227611541749,-1.1373720169067383,8.449663162231445,-0.08373667299747467,-0.6142948269844056,-0.16616001725196838
5.131437301635742,-1.416144847869873,8.683042526245117,-0.1360897868871689,-0.6692855358123779,-0.17255619168281555
4.926021099090577,-1.1410526037216189,9.167264938354492,-0.14456599950790405,-0.8119719624519349,-0.21179890632629395
4.883124828338624,-1.703127145767212,8.875560760498047,-0.11433152109384538,-0.9718119502067567,-0.2826041579246521
5.089745044708253,-1.7346830368041992,8.842071533203125,-0.06622981280088426,-1.1691486835479736,-0.3738937675952912
5.224861145019531,-0.8976831436157227,8.774289131164553,-0.1012735515832901,-1.3585804700851443,-0.40441724658012396
5.777698040008546,-0.451569139957428,9.054261207580568,-0.16194941103458407,-1.5522880554199219,-0.3228804171085358
5.613795280456543,-1.0498150587081911,9.286381721496584,-0.18563960492610934,-1.7022165060043337,-0.29572242498397827
5.048880100250245,-1.0596936941146853,9.244080543518068,-0.1889062523841858,-1.9852460622787478,-0.30744022130966187
6.518178462982179,-0.3706846237182617,9.05488681793213,-0.18955406546592712,-2.2302782535552983,-0.3130089938640595
6.294076919555664,-0.7860684394836426,8.802968025207521,-0.19599394500255587,-2.5107321739196777,-0.3030135929584504
5.699784755706788,-1.3627657890319824,8.669032096862795,-0.04721341654658318,-2.8387610912323002,-0.30776888132095337
6.425598621368409,-0.7577227950096131,8.559021949768068,-0.07928412407636644,-3.2620840072631836,-0.24289487302303317
6.308551788330078,-0.53608238697052,8.263827323913576,-0.08196898549795152,-3.6864895820617676,-0.10093745589256287
7.244487285614015,-0.9075697660446167,8.32662868499756,-0.19040246307849887,-4.125338554382324,-0.007292189169675113
8.549859046936037,-1.5239888429641726,9.137003898620607,-0.27361565828323364,-4.542243003845215,0.030822986736893657
9.237490653991701,-1.0846288204193115,10.949512481689453,-0.3433800637722016,-4.756227493286133,0.24835507571697238
11.784870147705078,-2.3978250026702885,12.448709487915039,-0.2841166555881501,-4.718257904052734,0.23234283924102783
12.698604583740234,-4.237006664276124,11.221487998962404,-0.09221037477254869,-4.478570938110352,0.1263285726308823
19.17083549499512,-4.409741401672363,12.930756568908693,0.19233062863349915,-4.314671516418457,-0.03456107154488564
21.979644775390625,-5.569974422454835,10.116846084594727,0.49866998195648193,-3.863141298294068,-0.3665134310722351
27.333091735839844,-5.87863826751709,2.154545307159424,0.9333467483520508,-3.87820839881897,-0.8904322981834413
30.02117156982422,-4.402586936950684,-3.8357796669006348,1.5428757667541504,-4.267173290252686,-1.4556450843811035
35.94921493530274,-3.773443460464478,-1.540977954864502,1.7915568351745605,-4.522305488586426,-1.7117022275924685
37.55183410644531,-2.057952880859375,1.490995764732361,1.9056274890899658,-4.007306575775147,-1.821310043334961
44.35719299316406,0.0010765492916107178,6.470824718475343,1.8009208440780642,-3.8413376808166504,-1.9101905822753906
46.187274932861335,-0.49994257092475897,19.68691635131836,1.531224012374878,-1.9914380311965945,-1.9603660106658936
26.772544860839844,0.9005950689315796,14.499246597290039,0.8089699149131776,-0.5391803383827211,-1.8326830863952637
20.078147888183594,1.7748994827270508,12.36689853668213,-0.3005419969558716,-0.32900539040565496,-1.658416986465454
13.028752326965334,-0.5646489858627319,10.471020698547365,-1.0870075225830078,-0.36169436573982244,-1.604901432991028
8.861882209777834,-3.009103775024414,10.496567726135256,-1.4797588586807253,-0.5289667844772339,-1.6859000921249392
8.807748794555664,-5.825331687927246,12.999993324279787,-1.2472451925277712,-0.4188572466373444,-1.8309459686279297
8.545557975769045,-7.892523765563965,16.280738830566406,-0.4546281695365906,0.2436800450086594,-1.8487396240234375
4.684666633605957,-7.12845277786255,15.599781036376953,0.4682181477546692,1.2637788057327273,-1.8646281957626345
-2.7381763458251953,-5.825472831726074,12.481439590454102,1.4719671010971072,2.1003103256225586,-2.00533938407898
-8.606067657470703,-2.8831377029418945,9.491147041320803,1.6696066856384277,2.4011902809143066,-1.9652334451675417
-11.11763095855713,-2.033329963684082,6.9455060958862305,1.2680493593215945,2.3768162727355957,-1.831752419471741
-11.262404441833498,-2.754241943359375,6.304030895233155,0.6980306506156922,2.341582775115967,-1.7271299362182617
-9.696370124816896,-4.300773143768311,7.159517765045167,0.2893720865249634,2.4881966114044194,-1.5157954692840576
-10.22505855560303,-6.074126243591309,6.43720579147339,0.1551169455051422,2.7864885330200195,-1.180862069129944
-10.887565612792969,-6.4053955078125,5.086368560791016,0.09019567817449571,3.081338882446289,-0.7975563406944276
-10.71742057800293,-5.492165565490723,3.916849136352539,-0.07791197299957275,3.3012435436248784,-0.35599729418754583
-10.988317489624023,-5.035169124603272,2.4189012050628667,-0.30394783616065985,3.4289655685424805,0.1137354299426079
-11.008386611938477,-4.850067615509034,1.011101484298706,-0.4971325993537903,3.4590649604797363,0.5408257842063905
-10.163088798522951,-4.051242828369141,0.6276794672012329,-0.608121395111084,3.4341032505035405,0.8717026710510254
-8.800673484802248,-2.4789144992828374,1.0182675123214724,-0.7492227554321289,3.4453341960906987,1.1168452501297
-6.590889930725098,-1.1383928060531618,2.1393806934356694,-0.9630680084228516,3.5416562557220463,1.2839608192443848
-3.1715247631073002,0.10819341987371446,4.184430599212647,-1.174238681793213,3.8172354698181152,1.393001437187195
-0.9854302406311035,1.7239763736724854,4.471534729003906,-1.3503787517547607,4.262660503387452,1.4153892993927002
0.48561683297157293,2.5182759761810307,2.97698974609375,-1.446852684020996,4.590374469757081,1.2957693338394167
2.2561571598052983,2.894544363021851,1.7787700891494753,-1.4134421348571777,4.64624834060669,1.086198091506958
6.060514926910401,3.851202726364136,2.761765956878662,-1.3421477079391482,4.571806430816651,0.8655091524124146
10.440230369567873,3.6533157825469975,3.2741646766662598,-1.2625157833099365,4.569905757904054,0.6298238039016724
12.521473884582521,2.6682891845703125,1.5214881896972656,-1.0466662645339968,4.481179237365723,0.41920751333236694
14.2345666885376,2.1380007266998295,-0.6461279392242432,-0.8139085173606874,4.125141143798828,0.3550026118755341
16.28701210021973,1.4958100318908691,-2.14621376991272,-0.6196284294128418,3.5708723068237305,0.4953823387622834
17.52041053771973,0.8154122829437256,-3.2024617195129395,-0.41931402683258057,2.9299175739288335,0.8167123794555664
17.904285430908203,0.9005375504493714,-3.9309265613555913,-0.24508543312549594,2.299990177154541,1.2080614566802979
16.309041976928714,1.1741437911987305,-5.571144580841065,-0.11916567385196686,1.6359714269638064,1.573469638824463
13.96568012237549,0.6538798809051514,-6.858553886413574,0.008023484610021116,0.8526617884635926,1.8928368091583252
23.382434844970703,6.508594036102296,-13.010300636291506,-0.14899659156799316,-0.1215789094567299,2.163632869720459
104.28197479248048,31.770557403564453,44.21141052246094,-2.8986089229583745,-0.910764217376709,3.6280722618103027
11.792883872985842,12.454039573669435,-5.971950531005859,-0.3083564937114716,2.974299430847168,0.34854003787040716
9.235281944274904,-12.565877914428711,11.628273010253906,-1.8510186672210693,2.2577624320983887,1.1389585733413699
-15.956698417663576,-6.166362285614015,11.126312255859375,-0.34383401274681097,1.3614516258239746,0.8826846480369569
-4.080554962158203,-1.1925382614135742,13.551257133483888,0.5067320466041566,0.06805850565433502,-0.44022029638290405
3.8144478797912598,-14.65087890625,12.943428039550781,0.6181402802467347,-0.42016685009002686,-0.9490934014320375
5.451931953430176,2.3009681701660156,10.098133087158203,0.49153044819831854,-0.631705939769745,-0.5963155031204224
8.975451469421388,4.873096466064453,7.705779075622559,0.2873668074607849,-0.349917620420456,-0.5630358457565308
8.553704261779787,0.4037318825721741,8.026668548583984,0.03153535723686218,0.04567989334464074,-0.22079817950725558
6.31335210800171,-0.4596261084079743,8.512203216552734,0.03420796617865563,0.27770107984542847,-0.08374425023794176
5.468589305877686,-1.1411418914794922,9.15709114074707,0.11443821340799333,0.3234406411647797,-0.0679156631231308
4.828030586242676,-1.6201229095458984,9.16895389556885,0.091371551156044,0.35131958127021795,-0.11675567924976349
4.9904327392578125,-0.839253604412079,9.38498306274414,0.12323009967803955,0.3719185888767243,-0.16971530020236972
4.981938838958741,0.8707998394966127,9.731688499450685,0.0851537510752678,0.357879102230072,-0.07012078911066057
4.645196437835694,0.41798049211502075,9.918751716613771,-0.06674597412347795,0.3137574493885041,0.054945431649684906
4.217577934265137,-0.9968793988227845,9.829147338867188,-0.043117642402648926,0.21070401370525363,0.07944495975971222
4.243553161621094,-0.8287844061851503,9.896728515625,-0.02162172645330429,0.10432439297437669,0.03802772983908654
4.406305313110352,-0.4927796721458435,9.772466659545898,-0.037765484303236015,0.020866725593805313,0.025360958650708202
4.933790683746339,-0.5719437599182129,9.410642623901367,-0.05973766371607781,-0.003566896310076118,0.03233209252357483
5.231210708618164,-0.36896869540214544,9.348682403564453,-0.0603034645318985,0.007727817166596652,0.06282716989517212
4.905326843261719,-0.2004555016756058,9.466528892517092,-0.07928050309419633,0.016101323068141937,0.1062622219324112
4.536552906036378,-0.5337659716606141,9.657201766967773,-0.10627007484436035,-0.016737578436732296,0.13327649235725403
4.385209083557129,-0.8284856081008911,9.669348716735842,-0.11914810538291931,-0.06924185156822205,0.12097626179456712
4.500127792358398,-0.7955139875411987,9.553925514221193,-0.10258224606513977,-0.11519234627485277,0.08496224880218506
4.816911697387695,-0.603764832019806,9.439762115478516,-0.08937637507915497,-0.1420901566743851,0.0696665719151497
4.85916566848755,-0.5249162912368774,9.290609359741211,-0.0998295396566391,-0.15422190725803378,0.06825871765613556
4.855466842651367,-0.39262712001800537,9.400270462036133,-0.11820392310619354,-0.17168429493904114,0.09692657738924028
4.87652587890625,-0.49120244383811956,9.36476802825928,-0.15663233399391174,-0.18895553052425387,0.12099739909172058
4.796796321868897,-0.8726896643638612,9.285420417785646,-0.1537306010723114,-0.19363422691822055,0.10474152117967607
4.996012210845948,-0.9044710993766786,9.165111541748047,-0.13657528162002563,-0.182254895567894,0.07807567715644836
4.924070358276367,-1.1752799749374392,9.121747970581055,-0.13425791263580322,-0.15268436074256897,0.06638371199369432
4.895633697509766,-1.1703498363494873,9.223435401916506,-0.10853661596775055,-0.13468901813030246,0.053777486085891724
4.94960641860962,-1.2159684896469118,9.025435447692873,-0.07066236436367035,-0.10466504842042924,0.04057900235056878
4.7098283767700195,-1.3207062482833865,9.109698295593263,-0.03506040573120117,-0.08118856698274614,0.0004326910711824894
5.108410835266113,-1.279578685760498,9.03743076324463,0.012451414950191976,-0.046110708266496665,-0.030097398906946182
5.244935989379883,-0.9707344770431519,8.920659065246584,0.04361053928732873,0.0016345928888767958,-0.03549908474087716
5.191606521606445,-0.6239838600158691,9.025766372680664,0.03206353262066842,0.050098925828933716,-0.0399790033698082
4.766998291015625,-0.49739259481430054,9.177510261535646,0.006198096554726363,0.07643532752990723,-0.02917878888547421
4.242465972900391,-0.9476135969161987,9.266112327575685,-0.027060411870479584,0.06679566204547882,-0.03605091944336892
3.9410815238952637,-1.276957154273987,9.693073272705078,-0.03631380572915078,0.002607076894491911,-0.08012775331735612
4.331378459930421,-1.0385689735412598,9.462831497192383,-0.007853171788156034,-0.0770578384399414,-0.13783180713653564
4.401245594024659,-0.6460497975349427,9.384146690368654,-0.006118633318692447,-0.13294115662574768,-0.16032929718494418
4.043330669403077,-0.3969631791114807,9.681373596191406,-0.04679046943783761,-0.211056724190712,-0.15670669078826904
3.795722484588623,-1.0446304082870486,9.909482002258303,-0.05561113730072976,-0.3477793335914612,-0.17131592333316806
4.384891986846925,-1.1372261047363281,9.793023109436037,-0.03795737400650979,-0.4936788082122803,-0.240823894739151
4.882047176361085,-0.6617448925971986,9.714996337890625,0.0011182407615706327,-0.6194595098495483,-0.2865304648876191
4.589699745178223,-0.7060155868530273,9.418297767639162,0.03221992030739785,-0.7193017601966859,-0.29550373554229736
4.782194137573242,-0.4331884980201721,9.76375484466553,0.05866009742021561,-0.8687872290611268,-0.2683318853378296
4.399707317352296,-0.21328468620777133,9.920116424560547,0.050714120268821716,-1.0709367990493777,-0.22815801203250888
4.159224510192871,-0.39813417196273804,10.015142440795898,0.01063873525708914,-1.3075084686279297,-0.19287033379077914
3.99210000038147,0.1369509994983673,10.091006278991701,0.041618984192609794,-1.651865363121033,-0.12519413232803345
3.5388023853302006,-0.7320836186408998,9.78709602355957,-0.032222446054220207,-1.9838910102844238,-0.07254066318273546
4.588656425476074,0.41297465562820435,10.772087097167969,-0.15912535786628723,-2.397417783737183,-0.06981072574853898
4.103066444396973,-2.762092828750611,10.517520904541016,-0.07861627638339996,-2.6035974025726323,-0.18169322609901428
4.717426300048828,-0.4171994924545288,9.826104164123537,0.06319181621074677,-3.040454387664795,-0.24755422770977023
6.04473638534546,-0.37444883584976196,10.163400650024414,0.04546044021844864,-3.2442438602447514,-0.34196096658706665
5.1725263595581055,-0.027888312935829163,10.395241737365724,-0.01120954193174839,-3.4812791347503667,-0.3908399641513825
4.019598007202148,-1.395157814025879,9.605235099792482,0.09216783195734025,-3.881683826446533,-0.48372057080268865
4.62619686126709,-3.2148983478546147,8.887054443359375,0.5680832266807557,-4.559489727020265,-0.7398097515106201
7.02110481262207,-2.742517232894898,10.07996463775635,0.9597308039665223,-5.191131591796875,-0.8786916136741639
9.699073791503906,-1.7867622375488281,12.286100387573242,0.9709309339523315,-5.510211467742921,-0.8956275582313539
14.250500679016115,-2.6949563026428223,13.02181911468506,0.7755405902862549,-5.525315761566163,-0.889423131942749
19.304027557373047,-3.3200280666351323,14.445028305053711,0.7838922142982484,-5.2887024879455575,-1.0489249229431152
27.85079383850098,-1.582669734954834,13.115647315979006,0.5916723012924194,-4.904580593109132,-1.1251678466796875
31.636959075927734,-3.5095360279083256,8.200905799865724,0.46491035819053655,-4.481778144836426,-1.5092267990112305
33.035491943359375,-4.220158576965332,3.28342080116272,0.8850881457328797,-4.317696571350098,-1.899975657463074
34.74545669555665,-2.531678915023804,3.309627056121826,1.7933547496795654,-4.054021835327148,-2.142450094223023
34.80987548828125,3.993992328643799,3.2124240398406987,1.9403802156448366,-3.9768877029418945,-2.105397462844849
46.581459045410156,6.906641960144043,17.87783241271973,0.44718232750892645,-3.00679874420166,-1.735985279083252
29.429021835327152,3.0351877212524414,15.333222389221193,-0.8163688778877259,-1.3131084442138672,-1.3190065622329714
22.262166976928714,1.1268067359924316,11.111093521118164,-1.7441740036010742,-0.909011960029602,-0.9881246685981752
16.56017112731934,-2.476649761199951,8.939363479614258,-1.8836121559143066,-0.848586142063141,-0.9492557048797607
12.374270439147951,-5.7129273414611825,8.766102790832521,-1.3430365324020388,-0.9384090900421143,-1.0205533504486084
10.904103279113771,-6.685388088226319,10.341382026672365,-0.3186458945274353,-0.9041548371315004,-1.1609153747558594
8.312421798706055,-4.982746601104737,12.93755626678467,0.6530215144157411,-0.5997506976127626,-1.17240309715271
5.446140289306641,-1.840212106704712,14.1849365234375,0.9956153631210327,-0.06078941747546197,-1.0470614433288574
2.6641149520874023,0.43650624155998236,14.068479537963867,0.8434741497039795,0.5800445675849916,-0.9353120923042298
-1.1727492809295654,0.15651464462280273,11.883338928222656,0.432831346988678,1.2682260274887087,-0.8378124237060547
-5.61369514465332,-1.41091525554657,9.008002281188967,0.1519065499305725,1.755178451538086,-0.7809540629386903
-9.11751937866211,-2.82282042503357,5.917011260986328,0.17268306016921997,1.903264880180359,-0.7658529281616211
-10.223297119140625,-3.077932357788086,5.081179618835449,0.3095050156116486,1.8469276428222656,-0.6937810182571411
-9.518857955932617,-2.6808612346649174,6.190164566040039,0.3002895712852478,1.922274708747864,-0.4770010709762573
-9.381174087524414,-2.6015579700469975,6.649574279785156,0.0905982479453087,2.237449407577515,-0.2179630696773529
-10.446771621704102,-2.8880383968353276,5.897036552429199,-0.15112760663032532,2.5509836673736577,0.027296151965856552
-10.586856842041016,-2.945861339569092,4.9825453758239755,-0.4215754270553589,2.8387053012847905,0.3102492988109589
-11.161124229431154,-3.107334613800049,3.4202840328216557,-0.5968927741050721,3.0638365745544434,0.6221564412117006
-11.274957656860352,-2.778401613235474,2.1758408546447754,-0.7044163942337036,3.1528568267822266,0.9186384081840516
-10.360254287719727,-2.068729877471924,1.8894740343093874,-0.793661653995514,3.222123146057129,1.189005255699158
-8.681638717651367,-1.3019880056381228,2.401922464370728,-0.8888331651687622,3.344359159469605,1.396966099739075
-7.054019451141358,-0.5878283977508545,2.7290143966674805,-0.9553106427192689,3.533707618713379,1.568045258522034
-5.303032398223878,0.5228334665298462,2.926210403442383,-1.0044838190078738,3.7711489200592045,1.6916358470916748
-3.551907300949097,1.8270589113235476,2.608285188674927,-1.0704762935638428,4.010925769805909,1.7591941356658936
-2.0180194377899174,2.6290435791015625,1.7650628089904785,-1.1010974645614626,4.159275054931641,1.7074639797210693
0.15445907413959506,3.775238037109375,1.4947124719619753,-1.1053546667099001,4.178062438964844,1.574390530586243
3.192386388778687,4.578209400177003,1.6293220520019531,-1.118971824645996,4.141848564147949,1.376533389091492
6.725772380828858,5.370108604431152,2.4802367687225346,-1.111464500427246,4.064867496490479,1.0918693542480469
11.82974147796631,5.2070112228393555,3.580820798873902,-1.1139115095138552,4.050187110900879,0.7757598161697388
15.02053737640381,3.9259462356567383,2.5855488777160645,-0.906987190246582,4.016065120697022,0.43705469369888306
16.096588134765625,3.355319023132324,0.7027387022972108,-0.6185480356216431,3.7420172691345215,0.20647127926349643
17.58479499816895,2.7694075107574467,-0.4487046003341675,-0.40436592698097235,3.2589497566223145,0.13323806226253512
17.034244537353516,1.4255115985870361,-1.8190903663635254,-0.20473657548427585,2.7433152198791504,0.28621047735214233
12.652283668518068,1.3680434226989746,-6.137694835662843,-0.12129550427198411,2.0426650047302246,0.672787368297577
8.851818084716797,-0.3710373938083649,-8.743854522705078,-0.2456728965044022,0.9426154494285585,1.3021671772003174
4.76740312576294,-1.8016905784606934,-11.546670913696289,-0.13323810696601868,-0.16046743094921115,1.9643778800964355
114.63343048095705,27.496202468872074,42.46678924560547,-3.6594007015228276,-3.346634864807129,4.031425476074219
17.756206512451172,28.888385772705078,-12.489527702331545,0.32991436123847967,4.118953704833984,1.013501048088074
14.136661529541016,-22.17057609558106,15.418584823608398,-1.7871787548065186,2.423037528991699,1.1093832254409792
-18.848218917846683,-5.355975627899171,12.659894943237305,-0.5694094300270082,1.2824275493621826,0.6007722020149232
-6.0366883277893075,-7.019294738769531,14.057994842529297,0.754645586013794,0.02683353610336781,-1.0372599363327029
3.904369115829468,-11.70138931274414,12.817223548889162,0.7700138092041016,-0.7328341603279115,-1.1789004802703857
10.235160827636719,7.250441074371339,8.27903461456299,0.5302415490150453,-0.7530490756034852,-0.6798540353775024
11.793599128723146,5.000047206878663,5.993542194366456,0.1136576756834984,-0.14707008004188538,-0.31891331076622015
8.008790016174318,0.7938944101333618,7.459177494049073,-0.09025362879037858,0.4646921157836914,0.10606536269187927
3.768781423568726,-1.9373627901077273,9.446957588195803,-0.1418348699808121,0.6262547969818115,0.143243744969368
3.2175147533416752,-2.521890640258789,10.120820045471193,0.006131663452833892,0.3663120567798615,0.003391854465007782
4.489253044128418,-1.3686745166778564,9.72061538696289,0.053803637623786926,0.18008883297443393,-0.1031242161989212
5.298027515411378,0.3787344694137573,9.39879894256592,0.05882175639271737,0.13991674780845642,-0.10098445415496826
5.480936050415039,1.199470400810242,9.671794891357422,-0.035984449088573456,0.16206862032413485,0.038700178265571594
4.760756969451905,-0.6353918313980103,9.574500083923342,-0.10735717415809631,0.151606023311615,0.13707281649112704
4.11348581314087,-1.7464044094085693,9.722034454345703,-0.0814773291349411,0.06965697556734086,0.08490253984928131
4.430036544799805,-0.9930591583251953,9.732954978942873,-0.055867273360490806,-0.030338842421770096,0.015734709799289703
4.9808621406555185,-0.3458172678947449,9.510568618774414,-0.07286102324724199,-0.07352259755134583,0.01399634499102831
5.237484931945801,-0.3212182223796845,9.327198982238771,-0.09422106295824052,-0.07082170993089677,0.04479087144136429
5.16434144973755,-0.8869414925575257,9.202717781066896,-0.0895063802599907,-0.045101411640644073,0.0667574778199196
4.927663803100586,-1.2856386899948122,9.197253227233888,-0.06600862741470337,-0.021568557247519497,0.04542685672640801
4.952067852020265,-1.041069746017456,9.195808410644531,-0.034465640783309937,-0.015387282706797125,0.010027183219790459
4.948517799377441,-0.9056156873703003,9.368788719177248,-0.019541902467608455,-0.012129551731050016,-0.011640956625342369
5.01133680343628,-0.666964054107666,9.283658981323242,-0.016221527010202408,-0.0210088212043047,0.01698477938771248
5.223321437835694,-0.2789929509162903,9.439759254455568,-0.05004055425524712,-0.03533726930618286,0.08681692183017731
5.143280982971191,-0.7711086273193359,9.273658752441406,-0.08980938792228699,-0.03418520465493203,0.12354663014411926
5.033185958862305,-0.7876182794570923,9.240026473999023,-0.08497437089681627,-0.03160249814391137,0.12547442317008972
4.916497230529785,-0.7843093872070312,9.255786895751953,-0.08840549737215044,-0.024469390511512756,0.12121056765317918
4.716117858886719,-0.8142377138137817,9.408167839050295,-0.09390561282634735,-0.026748040691018108,0.10377808660268785
4.661970138549805,-0.9676964282989502,9.36698627471924,-0.08062790334224701,-0.03397145494818688,0.07620285451412201
4.8561749458313,-0.8502019047737123,9.213404655456545,-0.07272187620401384,-0.04062310978770257,0.06617169082164764
4.8058929443359375,-0.8559359312057495,9.235949516296388,-0.06449303030967712,-0.03650821372866631,0.05909428745508194
4.750179290771484,-1.2147463560104372,8.993667602539062,-0.02874743938446045,-0.013862605206668379,0.03498392179608346
4.4670515060424805,-1.3195061683654785,8.958176612854006,-0.002559059299528599,-0.0008993367082439364,0.006342543289065361
4.41018009185791,-1.019648551940918,9.435083389282227,-0.00413505593314767,-0.021379040554165844,-0.029753830283880234
4.279186248779297,-1.3128159046173096,9.042185783386232,0.0190071240067482,-0.050352383404970176,-0.06755527853965759
4.206827163696289,-1.1435803174972536,9.353418350219727,0.024403344839811325,-0.09939878433942796,-0.10510382801294328
4.397918224334718,-1.3218704462051394,9.326123237609865,0.049778629094362266,-0.14880767464637756,-0.161418691277504
4.2902798652648935,-1.3659523725509646,9.233880043029787,0.06695614755153656,-0.19533899426460266,-0.2234301418066025
4.191458225250245,-1.080803990364075,9.525946617126467,0.08453046530485155,-0.26268643140792847,-0.2923282086849213
4.88140630722046,-0.5896949768066406,9.593226432800295,0.0785336419939995,-0.34238767623901367,-0.31851309537887573
4.476071357727051,-0.4232909679412842,9.75734043121338,0.04937162622809411,-0.42429178953170776,-0.3141577541828156
4.648170471191406,-0.4596494138240815,9.835968971252443,0.027000827714800838,-0.5681682229042054,-0.3054104447364807
4.848380088806152,-0.5624257326126099,9.615480422973633,0.04299730807542801,-0.7067473530769349,-0.26956015825271606
4.418617248535156,-0.5911198854446411,9.877333641052248,0.030829986557364467,-0.8500853776931763,-0.27927887439727783
4.75359869003296,-0.935068428516388,9.483296394348146,0.057697445154190063,-1.0260142087936404,-0.2919488549232483
4.976393699645996,-0.5442205071449281,9.43740749359131,0.05047694593667984,-1.2104063034057617,-0.29494729638099676
5.092167854309082,-0.0136040598154068,9.570261955261232,0.02750724740326405,-1.4000043869018555,-0.20063920319080356
4.535348892211914,0.5278118848800659,11.257953643798828,-0.2131728678941727,-1.5800929069519043,-0.05107484012842178
3.699140310287476,-1.0583064556121826,9.771617889404297,-0.09384803473949432,-1.9242547750473025,-0.05379752814769745
4.715716361999512,-0.07159106433391571,10.042637825012209,-0.10501401126384735,-2.2103776931762695,-0.06675855070352556
5.006677627563477,-0.256899505853653,9.8432092666626,-0.0746222957968712,-2.535536766052246,-0.06592983752489091
5.481919765472413,0.035500943660736084,9.873938560485842,-0.10637278854846954,-2.762147665023804,-0.08092913776636125
5.870140552520753,0.24378708004951477,9.613842010498047,-0.12455615401268005,-2.9886610507965092,-0.12280741333961487
5.406836986541749,0.9367097616195679,9.686455726623537,-0.13456130027770996,-3.2293267250061035,-0.13418687880039218
4.208203792572022,-0.25167480111122137,9.793424606323242,0.005160258151590824,-3.7036349773406987,-0.1668144166469574
5.567532539367676,-2.422739744186402,10.426188468933107,0.28507754206657415,-4.337984085083008,-0.3079223036766052
8.4369592666626,-2.2011859416961674,12.117057800292969,0.41052177548408514,-4.8141021728515625,-0.28905382752418524
14.137078285217287,-2.538504123687744,15.028775215148928,0.1553839147090912,-4.807516098022461,-0.01326116267591715
16.95491981506348,-5.002689361572266,13.142296791076662,0.21071627736091614,-4.721261501312257,-0.15944507718086243
26.564281463623047,-4.737347126007081,9.405710220336914,0.727604866027832,-4.64405107498169,-0.7570374608039857
34.28783416748047,-2.2387511730194096,7.874471664428711,1.0319975614547732,-4.625302314758301,-1.3220154047012331
34.54370880126953,-3.2620170116424565,5.041250228881836,1.6096727848052979,-4.41839599609375,-1.8457351922988894
34.125865936279304,-1.4224206209182741,5.598616600036621,2.1791234016418457,-4.155201435089112,-2.148630142211914
39.76787567138672,3.1981940269470215,10.143975257873537,1.945406436920166,-4.191389560699464,-2.3160898685455327
39.00840377807618,2.691351652145386,19.14947319030762,1.0242613554000857,-2.8607492446899414,-2.0668404102325444
25.31356239318848,1.19515597820282,14.09170436859131,-0.1612287163734436,-2.2180795669555664,-1.7194279432296755
21.173179626464844,-1.0235075950622559,12.56951427459717,-0.9798203110694886,-2.178717613220215,-1.597962021827698
18.050565719604496,-3.8863039016723633,12.849346160888672,-1.2901462316513064,-2.0674972534179688,-1.5078182220458984
15.628724098205568,-7.6589064598083505,13.411688804626467,-0.9488814473152162,-1.7977204322814941,-1.432409167289734
11.931529045104982,-9.250680923461914,13.961893081665039,-0.0038242537993937735,-1.3963140249252322,-1.4046123027801514
8.537732124328615,-7.3470354080200195,14.948362350463867,0.8461054563522339,-0.8942962288856507,-1.2553529739379883
5.722346305847168,-4.328169822692871,15.768517494201662,1.2564647197723389,-0.24552251398563388,-1.020485043525696
1.2676767110824587,-2.4092438220977788,14.421818733215334,1.1616802215576172,0.5130844712257386,-0.803173303604126
-4.076055526733398,-1.8467042446136475,11.146603584289553,0.8593750596046449,1.1190811395645144,-0.6777859926223755
-8.193878173828125,-1.8749542236328125,8.130912780761719,0.6310362219810487,1.3675167560577393,-0.6400750279426576
-9.481211662292482,-2.1488244533538823,6.5360474586486825,0.4056440591812134,1.4414838552474978,-0.6301035284996034
-9.500003814697266,-2.179440975189209,6.042356491088867,0.2253401428461075,1.5342683792114258,-0.5823443531990052
-9.712159156799318,-2.3322260379791264,6.1954312324523935,0.03317862376570702,1.6874336004257204,-0.5176405906677246
-9.689773559570312,-2.552554130554199,6.641351699829102,-0.204082265496254,1.9127051830291748,-0.39384779334068304
-9.674968719482422,-2.8678681850433354,6.119533061981202,-0.427567720413208,2.252680063247681,-0.23124404251575473
-10.763628959655763,-3.1936941146850586,4.2407121658325195,-0.580316424369812,2.525553464889527,-0.05934124439954758
-10.681780815124513,-2.956575393676758,3.274260759353638,-0.7108818292617798,2.6188955307006836,0.1298000663518906
-8.840059280395508,-2.740149974822998,3.643999338150025,-0.9034076929092407,2.756351709365845,0.36757487058639526
-7.518252849578858,-3.5454008579254155,3.7878408432006836,-0.9915647506713867,2.994984388351441,0.6128472685813905
-6.215571880340577,-3.4969809055328374,3.5440180301666264,-1.0040274858474734,3.290135383605957,0.9061626791954042
-5.966328144073487,-2.702446460723877,2.2027704715728764,-0.9873563647270204,3.532819032669068,1.2333898544311523
-5.655341148376465,-0.9901295304298402,1.0287066698074343,-1.0835067033767702,3.58712100982666,1.5837167501449587
-3.341557025909424,0.8504400849342347,2.048421144485474,-1.3332053422927859,3.577528953552246,1.9149763584136963
-0.24714499711990356,1.6861101388931277,3.0401637554168706,-1.574970602989197,3.701763153076172,2.128501653671265
1.888564109802246,2.1987564563751225,2.695836782455445,-1.6208392381668093,3.8170759677886967,2.1600570678710938
4.179802894592285,3.88689398765564,2.290350914001465,-1.5705668926239014,3.8117415904998784,2.0717291831970215
7.802393436431886,4.963062763214112,2.1108407974243164,-1.5642015933990479,3.7504765987396245,1.869361996650696
11.330598831176758,3.6456787586212163,1.2174605131149294,-1.4094092845916748,3.6750209331512456,1.5599286556243896
13.223165512084961,3.24627685546875,0.03619922697544098,-1.0491015911102295,3.4694690704345703,1.2470151185989382
15.321625709533693,3.497654438018799,-0.4088627994060517,-0.7734948992729188,3.1696701049804688,1.0410052537918093
16.77949714660645,4.866488456726074,-0.5023779273033143,-0.7012422680854798,2.843738079071045,0.9663281440734863
18.761512756347656,3.27460789680481,-1.2813045978546143,-0.8191808462142944,2.4989531040191655,0.9532233476638794
19.199041366577152,0.42311954498291016,-2.8677742481231694,-0.6679733991622925,2.075343132019043,0.9737128615379335
17.891666412353516,-0.43708726763725286,-3.985688924789429,-0.3799946010112763,1.5183765888214111,1.1357535123825075
15.629707336425781,0.04858016222715378,-5.993085861206055,-0.29443347454071045,0.9050047993659974,1.4289447069168093
10.371040344238281,-0.29812213778495794,-9.030960083007812,-0.478185385465622,0.040243230760097504,1.741141200065613
38.502391815185554,-4.895296096801758,-10.648353576660156,-0.34887352585792547,-0.8528258204460145,1.9482204914093018
66.87701416015625,35.322509765625,42.39356231689453,-0.38408669829368597,1.8927490711212158,1.2286823987960818
3.3726935386657715,4.693720817565918,7.346907615661621,0.10910746455192566,2.7311003208160405,-0.8285221457481385
-2.437904596328736,-13.706757545471193,10.118663787841797,0.041686490178108215,2.46310830116272,0.25564825534820557
-5.868253231048585,11.353812217712404,17.224943161010746,0.42705091834068304,1.0420738458633425,-0.030994132161140442
-1.7043991088867188,-10.040812492370607,13.009344100952148,0.5565111041069032,0.2188299298286438,-0.7524405121803285
1.1531962156295779,-5.818959712982179,12.34378433227539,0.3743668794631958,-0.6793037056922914,-0.3275397121906281
8.12777614593506,3.3338410854339604,10.056212425231935,0.43394324183464056,-0.7540766000747681,-0.5118905901908876
9.546791076660156,-1.9051929712295534,6.935670852661133,0.30457162857055664,-0.37375307083129883,-0.41237917542457586
8.599219322204592,0.4649674892425537,7.463357925415039,0.35024893283843994,0.07152057439088823,-0.2824263572692871
6.924837589263917,0.6782028675079346,8.388112068176271,0.23423615097999573,0.3878899514675141,-0.11587195843458177
4.800084114074707,-0.4145735502243042,9.068150520324709,0.08683905750513078,0.5092703104019165,-0.011724398471415045
4.1128339767456055,-1.4166084527969363,9.510379791259766,0.05170584842562676,0.44043383002281195,0.006522306241095066
4.198795795440675,-0.2956283390522004,10.087718009948732,0.005779420491307975,0.3060239553451538,-0.014712552540004255
4.516695022583008,-0.32642933726310736,9.85323238372803,-0.07139136642217637,0.18595007061958313,0.029395196586847305
4.615836620330811,-0.5790371298789979,9.703975677490234,-0.054501838982105255,0.07420200854539873,0.051325298845767975
4.564247131347656,-0.48280441761016846,9.754375457763672,-0.0722957029938698,-0.019159173592925075,0.06071837991476059
4.776235580444336,-0.7475923299789429,9.591678619384766,-0.11962053924798967,-0.08518975973129272,0.06578852981328966
4.952176094055176,-0.6334729194641113,9.480422019958498,-0.16745099425315857,-0.1352285295724869,0.07817091792821886
5.038341522216797,-0.5215272307395936,9.34957790374756,-0.1906288415193558,-0.17024889588356018,0.08311327546834947
5.095641613006593,-0.963726282119751,9.207674980163576,-0.17749178409576416,-0.19258639216423035,0.0874709263443947
5.208244800567628,-1.2630256414413454,9.130937576293945,-0.14539805054664612,-0.18809135258197787,0.07927422225475311
5.039116382598878,-1.088360905647278,9.22444248199463,-0.14856591820716858,-0.18174983561038974,0.0787518694996834
4.962258815765382,-1.2297122478485107,9.251130104064943,-0.16206456720829013,-0.18343740701675415,0.07934945076704027
5.076401233673097,-1.3907639980316162,9.139507293701172,-0.15045352280139926,-0.19495807588100436,0.07114194333553314
5.4270949363708505,-0.6531719565391542,9.211913108825685,-0.1615651249885559,-0.21544645726680758,0.09251360595226288
5.26418399810791,-1.1823878288269043,9.018087387084961,-0.177465558052063,-0.20789150893688205,0.09387854486703874
5.255615711212159,-1.184394359588623,9.03718376159668,-0.17005100846290588,-0.19778235256671908,0.08414390683174133
5.110678672790527,-1.1076197624206543,9.153271675109865,-0.1622586697340012,-0.1940090507268906,0.09086568653583527
5.175917148590089,-1.2669579982757568,9.025698661804201,-0.17126651108264926,-0.1810801923274994,0.06542649120092393
5.145658969879151,-1.458045482635498,8.960072517395021,-0.14263741672039035,-0.1630338728427887,0.05151313543319702
5.0314679145813,-1.1369606256484988,9.073744773864748,-0.12586450576782227,-0.15274555981159213,0.06407690048217773
5.099788188934327,-1.1919976472854616,9.004908561706545,-0.14287623763084412,-0.15363994240760803,0.04838154837489129
5.012518882751465,-1.405443072319031,8.892154693603516,-0.1296834647655487,-0.15383084118366244,0.02750270441174507
5.039155960083008,-1.3932446241378786,8.920734405517578,-0.09421292692422868,-0.15169650316238403,0.0338553786277771
4.97568416595459,-1.710769295692444,8.930963516235352,-0.08683134615421295,-0.14216421544551852,0.004185745492577553
4.915086269378663,-1.8022477626800537,9.075101852416992,-0.036923732608556754,-0.13790352642536166,-0.03335239738225937
5.182812690734863,-2.1471567153930664,8.669672012329102,0.01273161079734564,-0.12232106924057007,-0.05694571509957314
5.121058940887452,-1.8054611682891846,8.79404926300049,0.038114059716463096,-0.10772320628166199,-0.100923553109169
5.175565242767335,-1.4386324882507324,8.898799896240234,0.05947529152035714,-0.09151741862297058,-0.1426469832658768
5.218510627746582,-1.3846452236175537,8.785336494445803,0.08294084668159485,-0.0870627760887146,-0.15838865935802462
5.05372428894043,-1.0508594512939453,8.969636917114258,0.07881381362676622,-0.09871059656143188,-0.15691913664340976
4.833734035491944,-1.0683205127716064,9.26659679412842,0.07536474615335466,-0.13981646299362183,-0.18424522876739502
5.166969776153565,-0.8379846215248109,9.206832885742188,0.06633806973695756,-0.18661978840827942,-0.1877158433198929
4.969048500061035,-0.5091547369956971,9.353547096252443,0.042028088122606284,-0.2315597087144852,-0.16985303163528442
4.829218864440918,-0.7838401198387147,9.321441650390625,0.011779501102864744,-0.29764407873153687,-0.15835489332675937
4.893431186676026,-1.6339067220687868,9.037058830261232,0.03385899215936661,-0.3772291243076325,-0.19452600181102755
4.8817105293273935,-1.0977938175201416,9.22847652435303,0.0584491565823555,-0.4702539741992951,-0.23284044861793518
4.771507263183594,-0.9717795848846436,9.311434745788576,0.041791234165430076,-0.5805192589759828,-0.2563095688819885
5.174801826477051,-0.7005789279937744,9.256672859191896,0.03464432805776596,-0.7202388644218446,-0.23759645223617554
5.231127262115479,-0.5907680988311768,9.25625514984131,-0.0041703395545482635,-0.8580957055091859,-0.22267682850360873
4.836027622222901,-0.8439654707908631,9.329679489135742,-0.044546253979206085,-1.0026892423629763,-0.2253764271736145
4.599531173706055,-0.49700039625167847,9.438534736633303,-0.08068133890628815,-1.1862881183624268,-0.22252608835697177
4.831406593322754,-0.6455360651016235,9.499463081359865,-0.11565382778644562,-1.4245249032974245,-0.19613704085350037
5.0238542556762695,-1.0800701379776003,9.310265541076662,-0.13148252665996554,-1.6119358539581299,-0.2275206744670868
5.449811458587647,-0.9780784249305726,9.57430171966553,-0.14493171870708468,-1.8014030456542969,-0.25496175885200506
5.364527702331543,-1.5233161449432373,9.569268226623537,0.017814582213759426,-1.9657758474349978,-0.2974664568901062
5.610994815826417,-1.045642614364624,9.603001594543459,0.05219564214348794,-2.187161445617676,-0.3606164157390595
5.425301551818848,-1.7394388914108279,9.505355834960938,0.08648104965686798,-2.414651155471802,-0.4267620742321015
5.066256523132324,-1.791581392288208,9.46635150909424,0.1421070694923401,-2.688562631607056,-0.521565318107605
4.77659559249878,-2.154617547988892,8.68830680847168,0.29154166579246527,-3.0666501522064213,-0.658257007598877
5.261142730712891,-1.826507806777954,8.412710189819336,0.47360891103744507,-3.5483748912811284,-0.7824293375015259
5.87978458404541,-0.9907509088516235,8.403445243835451,0.6218242645263672,-4.0486817359924325,-0.8196458220481874
7.309009075164796,0.17664116621017456,8.850000381469727,0.6736153364181519,-4.480809688568116,-0.6210991144180298
8.181422233581545,0.9690287709236146,9.261662483215334,0.7328577041625977,-4.843193054199219,-0.39522972702980047
