AccX,AccY,AccZ,GyrX,GyrY,GyrZ
0.00017682880570646378,-5.093512663734146e-05,0.0003904204058926553,-4.274564258111014e-09,-6.725647381244926e-07,-6.207260980772845e-07
4.325556755065918,-1.2322938442230225,9.576436996459961,0.001404875423759222,-0.01628498546779156,-0.014833959750831129
4.326858997344972,-1.254584789276123,9.548264503479006,0.000864850648213178,-0.017496909946203232,-0.01551176328212023
4.312604904174805,-1.2637200355529785,9.580873489379883,0.0006427373737096786,-0.017359107732772827,-0.015420564450323583
4.331443309783936,-1.2471160888671875,9.571847915649414,0.0016035094158723953,-0.017022665590047836,-0.016063531860709194
4.32242488861084,-1.2511439323425293,9.545358657836914,0.005058741196990013,-0.015402416698634626,-0.016488568857312206
4.333994388580323,-1.1899846792221072,9.571390151977539,0.0036764962133020167,-0.014436256140470505,-0.017023967579007152
4.354835033416749,-1.2138792276382449,9.580069541931154,0.004554992076009513,-0.013558247126638891,-0.015611166134476662
4.355327129364015,-1.188538193702698,9.573462486267092,0.0026656433474272494,-0.012383008375763893,-0.012825039215385916
4.35306215286255,-1.198125720024109,9.575341224670412,0.006043849978595973,-0.011303167790174484,-0.013935262337327003
4.305884838104249,-1.2689154148101807,9.560774803161623,0.004841018933802844,-0.011826708912849426,-0.013696090318262579
4.3014631271362305,-1.278661131858826,9.58499526977539,0.006192719098180533,-0.013809592463076116,-0.016630522906780243
4.350003242492676,-1.230560064315796,9.554158210754396,0.0059089534915983686,-0.0115318913012743,-0.017686089500784877
4.38368844985962,-1.2067521810531618,9.547098159790039,0.007624763995409012,-0.009868162684142591,-0.016605263575911525
4.333580017089844,-1.217410206794739,9.571731567382812,0.0073708053678274155,-0.010257692076265814,-0.015235453844070435
4.3443312644958505,-1.22640597820282,9.5812463760376,0.005235329736024142,-0.011911650188267233,-0.013896513730287552
4.337092399597168,-1.218956708908081,9.57729244232178,0.0062458813190460205,-0.01191277150064707,-0.015069250017404556
4.3564772605896005,-1.2221190929412842,9.575755119323732,0.005030371714383365,-0.012002537027001381,-0.015138531103730202
4.337131023406983,-1.2517077922821045,9.593250274658203,0.006761178374290466,-0.011161985807120802,-0.016077429056167603
4.351734638214112,-1.1975179910659792,9.558027267456055,0.006128198932856322,-0.010631867684423925,-0.015140939503908157
4.327478885650636,-1.2431992292404177,9.587513923645021,0.004766743630170822,-0.010490517131984236,-0.01521369069814682
4.333156108856202,-1.225609540939331,9.594715118408203,0.006113408599048854,-0.010920926928520203,-0.015545649453997612
4.348341941833496,-1.2496091127395632,9.563272476196289,0.007155673578381538,-0.012514197267591955,-0.016846969723701477
4.357267379760742,-1.1493442058563232,9.601838111877443,0.0059421611949801445,-0.010990845039486885,-0.015090339817106726
4.327696323394776,-1.2131717205047607,9.551259994506836,0.004465694539248943,-0.010000933893024923,-0.01582866907119751
4.323371410369874,-1.212071418762207,9.588173866271974,0.004669841844588519,-0.012695267796516418,-0.014636591076850891
4.344332218170167,-1.2254964113235476,9.57021236419678,0.0028998334892094135,-0.012027445249259474,-0.015147456899285316
4.347981929779054,-1.2189139127731325,9.573921203613281,0.004414888098835945,-0.011786337941884995,-0.014062845148146154
4.313115119934082,-1.2058742046356201,9.569767951965334,0.002279169159010053,-0.011433428153395653,-0.014769672416150572
4.302799224853516,-1.258310914039612,9.55904293060303,0.0025663871783763175,-0.01361328549683094,-0.016768958419561386
4.348355293273926,-1.2444034814834597,9.576505661010742,0.004029600881040096,-0.015106876380741598,-0.018130891025066376
4.355118274688722,-1.187023401260376,9.59086322784424,0.0018272752640768888,-0.013044518418610098,-0.018124297261238098
4.37879514694214,-1.1828222274780273,9.5604248046875,0.0024841809645295143,-0.01244036201387644,-0.016612723469734192
4.378126621246339,-1.218635082244873,9.572894096374513,0.0028809658251702785,-0.010166651569306852,-0.014077208004891874
4.35075330734253,-1.1943697929382324,9.561046600341797,0.0011238788720220327,-0.009838002733886244,-0.011664876714348793
4.337006092071534,-1.1990672349929812,9.577755928039553,0.0010005814256146552,-0.011272766627371313,-0.010870225727558136
4.341363906860352,-1.1935013532638552,9.582782745361328,-9.412522922502832e-05,-0.01037844642996788,-0.010692880488932134
4.2949538230896005,-1.2236192226409912,9.585264205932617,7.689688209211455e-05,-0.012474508956074715,-0.010357188060879707
4.3218278884887695,-1.214555263519287,9.564582824707031,0.0010829654056578875,-0.013932636938989164,-0.012855315580964088
4.332283973693848,-1.2029433250427246,9.588077545166016,-0.0015750374877825382,-0.014368328265845777,-0.01226012222468853
4.358367919921875,-1.2079129219055176,9.559304237365724,-0.000464141892734915,-0.013795982114970686,-0.011095099151134491
4.349152565002441,-1.1904706954956055,9.591603279113771,0.0005641427123919129,-0.012291303835809233,-0.011165431700646879
4.342339515686035,-1.2211242914199831,9.589231491088867,-0.003248409368097782,-0.014018599875271322,-0.011271808296442032
4.336716175079347,-1.2363555431365967,9.58203983306885,0.0003988419193774462,-0.012206807732582092,-0.01041236985474825
4.335651874542237,-1.2455627918243408,9.55540657043457,0.0001519633660791442,-0.012399733066558838,-0.011374677531421186
4.330979347229004,-1.2517871856689453,9.581293106079102,0.0016100245993584394,-0.01181656774133444,-0.012546855024993421
4.33500862121582,-1.2386308908462527,9.547039031982422,0.0026981385890394454,-0.012134954333305359,-0.012280049733817579
4.317866802215577,-1.2195899486541748,9.584209442138672,0.0007495352183468641,-0.012675848789513113,-0.012237120419740677
4.346395492553711,-1.2264827489852907,9.580127716064453,0.0005142935551702976,-0.01441756170243025,-0.014034690335392952
4.3489956855773935,-1.21392822265625,9.579904556274414,-4.7893161536194384e-05,-0.013762026093900205,-0.014404251240193846
4.329781532287598,-1.2051074504852295,9.542930603027344,0.00048624831833876675,-0.013850869610905647,-0.014636737294495107
4.339800357818604,-1.2165296077728271,9.569972038269045,-0.002255188301205635,-0.017077192664146423,-0.014077399857342245
4.326628684997559,-1.2370163202285769,9.56524658203125,-0.002407530788332224,-0.018280541524291042,-0.015716642141342163
4.336312294006348,-1.22908353805542,9.58688259124756,-0.0017214494291692972,-0.01749133132398129,-0.01442335080355406
4.334022521972656,-1.212977647781372,9.548345565795898,-0.00027689762646332383,-0.017844164744019512,-0.015852198004722595
4.355914115905762,-1.222675442695618,9.552118301391602,-0.0019239422399550676,-0.017816029489040375,-0.014114641584455969
4.328580379486085,-1.2593444585800173,9.553455352783203,-0.00034465067437849944,-0.016516275703907013,-0.01451514568179846
4.348103046417237,-1.2622483968734743,9.59072494506836,0.0006425001774914564,-0.017574209719896317,-0.017130278050899506
4.393781185150147,-1.1826708316802979,9.585733413696289,0.0019099835772067308,-0.01640044339001179,-0.017210576683282852
4.36688232421875,-1.1647282838821413,9.567224502563477,0.0011769727570936086,-0.014516293071210386,-0.01648792251944542
4.373808860778809,-1.1923259496688845,9.548466682434084,0.0005550073692575097,-0.012249098159372808,-0.012443790212273598
4.35558843612671,-1.1963045597076416,9.562939643859865,0.0007190454634837807,-0.011459637433290482,-0.01326007954776287
4.354243755340577,-1.209656000137329,9.593520164489748,-0.00017776970344129953,-0.012386154383420944,-0.011802750639617445
4.364684104919434,-1.232990622520447,9.564581871032717,0.0020588885527104144,-0.013099583797156812,-0.011862730607390404
4.378167629241944,-1.2121195793151855,9.554981231689453,0.0022388556972146034,-0.011507996357977392,-0.01242244616150856
4.357852935791016,-1.2169474363327029,9.582637786865234,0.0015227169496938588,-0.010467421263456345,-0.011433357372879982
4.314281940460206,-1.2026363611221316,9.59712314605713,0.0015110960230231285,-0.010040464811027052,-0.011847322806715965
4.332326412200929,-1.262869477272034,9.56298351287842,0.00155583955347538,-0.011567806825041771,-0.010838267393410208
4.3393921852111825,-1.2166686058044434,9.576471328735352,0.0023581688292324543,-0.012031842954456808,-0.011821417137980461
4.357514381408691,-1.1939642429351807,9.564563751220703,0.002816121093928814,-0.011605794541537763,-0.012025487609207632
4.352006435394288,-1.2233836650848389,9.565202713012695,-0.0014847529819235208,-0.01341523788869381,-0.009996834211051466
4.326344966888429,-1.2825156450271609,9.573856353759766,0.000842004083096981,-0.012547701597213745,-0.013073525391519071
4.342463493347168,-1.2651970386505127,9.561059951782227,0.002812011633068323,-0.012994845397770407,-0.016876954585313797
4.376124382019043,-1.2285540103912354,9.574993133544922,0.004352458287030459,-0.01267763040959835,-0.01709560677409172
4.3813066482543945,-1.1851569414138796,9.555996894836428,0.004649573005735874,-0.009501448832452299,-0.014550691470503807
4.3740200996398935,-1.1975570917129519,9.5783166885376,0.0051613980904221535,-0.00918920710682869,-0.013792327605187895
4.350626468658448,-1.2021594047546387,9.577049255371094,0.003853340866044164,-0.006922601722180843,-0.012217448092997076
4.351053237915039,-1.2086164951324463,9.583009719848633,0.0023871858138591055,-0.00769850704818964,-0.011618470773100853
4.352163314819336,-1.2121615409851074,9.565054893493654,0.00047603604616597295,-0.00836004037410021,-0.011994978412985802
4.356060981750488,-1.1993234157562256,9.574897766113281,0.0020052725449204445,-0.009361425414681435,-0.009808446280658247
4.339113235473633,-1.2178292274475098,9.560778617858888,0.001215923810377717,-0.007882964797317983,-0.008977599442005157
4.324275493621827,-1.218901038169861,9.593192100524904,0.0008392141317017378,-0.008084909990429878,-0.009910864755511284
4.359538555145265,-1.237440586090088,9.537734985351562,0.002548397984355688,-0.008045825175940992,-0.009777635335922241
4.335829257965089,-1.2523136138916016,9.577765464782717,0.002941558603197336,-0.00670041237026453,-0.009345267899334432
4.348193168640137,-1.1994467973709109,9.542890548706055,0.00521037494763732,-0.006567071191966534,-0.011004057712852957
4.377122402191163,-1.2100406885147097,9.594911575317383,0.003948546946048737,-0.0037723460700362925,-0.011330918408930303
4.350734710693359,-1.2322537899017334,9.576457023620607,0.0057764588855206975,-0.003941801376640797,-0.010252752341330053
4.339506149291992,-1.2455159425735476,9.58983898162842,0.005022010765969753,-0.004729423671960831,-0.010510333813726904
4.341838836669922,-1.2026629447937012,9.580008506774904,0.00814485177397728,-0.003020711010321975,-0.009910620748996735
4.331587314605714,-1.2032121419906618,9.591941833496094,0.006818510591983795,-0.0033547703642398123,-0.011825975961983206
4.3347930908203125,-1.1946516036987305,9.584182739257812,0.005906714126467705,-0.005287102889269591,-0.009644882753491402
4.331696510314941,-1.2331781387329102,9.574071884155273,0.005430400837212802,-0.007456985767930747,-0.012356527149677277
4.324079513549805,-1.2262986898422243,9.592671394348146,0.00451043387874961,-0.008074227720499039,-0.013886938802897932
4.340246200561523,-1.2255282402038574,9.570799827575685,0.006504208780825138,-0.009097165428102018,-0.013701616786420347
4.344718933105469,-1.2099449634552002,9.59048080444336,0.0071398429572582245,-0.006249141413718463,-0.013609683141112328
4.350629329681397,-1.219811201095581,9.548368453979492,0.009892488829791548,-0.004782589618116618,-0.014773942530155182
4.356860160827637,-1.2307724952697754,9.552703857421875,0.012529666535556318,-0.001430523581802845,-0.013641159050166609
4.327329635620117,-1.2022038698196413,9.560359954833984,0.013844254426658155,0.0020644734613597393,-0.014702597633004189
4.3090529441833505,-1.1639043092727663,9.567073822021484,0.01416894979774952,-0.0010983328102156522,-0.016093764454126358
4.283186435699464,-1.2031012773513796,9.559768676757812,0.011793480254709722,-0.003770114621147514,-0.01615607738494873
4.300145626068116,-1.159653663635254,9.608229637145998,0.008144652470946312,-0.009295060299336912,-0.015760358422994614
4.321503162384034,-1.2181048393249512,9.577027320861818,0.005950466264039279,-0.011436620727181435,-0.015402231365442276
4.336417198181152,-1.1961815357208252,9.583338737487795,0.005647653248161078,-0.012521298602223396,-0.017056999728083614
4.359435558319093,-1.148790240287781,9.571425437927248,0.003508216002956033,-0.010422733612358572,-0.014722265303134918
4.352128505706788,-1.1813026666641238,9.56368637084961,0.0029915513005107646,-0.009378204122185707,-0.01192616391927004
4.341022014617921,-1.1691653728485107,9.587545394897461,0.003487807465717197,-0.01091495156288147,-0.011919423937797546
4.340764045715332,-1.1908378601074219,9.556698799133303,0.001366384793072939,-0.011825115419924261,-0.013123100623488426
4.327579975128175,-1.169983148574829,9.575668334960938,0.000607386522460729,-0.011729610152542593,-0.01239573024213314
4.310774326324464,-1.21248996257782,9.595469474792482,-0.0017045470885932446,-0.013776388950645925,-0.01195378415286541
4.296435356140137,-1.2373911142349245,9.564802169799805,-5.118047556607053e-05,-0.015512031503021719,-0.014214369468390943
4.297987461090089,-1.2483184337615967,9.577805519104006,-0.0005048745661042632,-0.018213309347629547,-0.018228201195597652
4.320910453796387,-1.1862854957580566,9.576910972595217,-0.001983651658520103,-0.020073631778359417,-0.019660521298646927
4.266963005065918,-1.1699466705322266,9.534299850463867,-0.002357687568292022,-0.022686000913381577,-0.02197116054594517
4.29215145111084,-1.243650197982788,9.55794906616211,-0.0016120633808895948,-0.026601072400808334,-0.022883154451847076
4.318942070007324,-1.2223359346389773,9.557005882263185,-0.001000890391878784,-0.028752032667398453,-0.028699090704321865
4.359922885894776,-1.21761155128479,9.60104751586914,0.0008829067228361964,-0.02934938669204712,-0.02826490812003613
4.372347831726074,-1.1677175760269167,9.5938720703125,-0.0011487946612760427,-0.027042262256145477,-0.027410758659243587
4.415715217590332,-1.147088408470154,9.578720092773438,0.0025241759140044455,-0.024266555905342102,-0.02520751953125
4.420803070068359,-1.1606855392456055,9.579647064208984,0.00018293765606358647,-0.02232700400054455,-0.02167118340730667
4.354067802429199,-1.158429026603699,9.56954097747803,0.00026774217258207505,-0.02018663845956326,-0.019514378160238266
4.368561267852784,-1.1797826290130615,9.567376136779787,-0.0027533299289643764,-0.021965140476822857,-0.017975371330976486
4.364241600036621,-1.175556302070618,9.599101066589357,-0.002004477428272367,-0.02195136621594429,-0.01605767384171486
4.335492134094238,-1.2651748657226562,9.581872940063477,-5.877824150957167e-06,-0.020373387262225155,-0.016666259616613388
4.328167915344238,-1.2214068174362185,9.566247940063477,0.0009578250464983286,-0.020582957193255428,-0.019214782863855362
4.376565933227539,-1.1558239459991455,9.57200813293457,0.0007863087812438607,-0.019942073151469234,-0.02134767919778824
4.354373931884766,-1.156649112701416,9.5714111328125,-0.001350749982520938,-0.024597389623522762,-0.01978007145226002
4.398902416229249,-1.1469266414642334,9.585025787353516,-0.003923677373677493,-0.02345804125070572,-0.016613403335213665
4.380127906799316,-1.2513236999511719,9.585568428039553,-0.0030475563835352664,-0.021357985213398937,-0.016718808561563492
4.393737316131593,-1.164109706878662,9.592229843139648,-0.0018992782570421696,-0.018286643549799923,-0.018029097467660904
4.405059337615968,-1.152860760688782,9.560540199279787,-0.002464700024574995,-0.013789038173854353,-0.014567933045327665
4.388254165649414,-1.1829053163528445,9.53645992279053,-0.0011099951807409525,-0.011625354178249838,-0.011885296553373337
4.357778549194336,-1.191597104072571,9.56169319152832,-0.0018170365365222099,-0.010904344730079176,-0.011560125276446342
4.338350296020508,-1.1847131252288818,9.560389518737795,-0.0014506068546324968,-0.01164758112281561,-0.011384177953004837
4.306161403656007,-1.2187974452972412,9.55409908294678,-0.0038987228181213145,-0.015346689149737358,-0.013087611645460129
4.306629657745362,-1.2313964366912842,9.545326232910156,-0.0040396139957010755,-0.017979539930820465,-0.013686998747289182
4.247287273406983,-1.2944375276565554,9.537829399108888,-0.0035168654285371304,-0.021376226097345352,-0.01924764178693295
4.292780876159668,-1.2366523742675781,9.561933517456055,-0.002718604868277908,-0.026163049042224884,-0.027841517701745037
4.3630781173706055,-1.233892321586609,9.581783294677734,-0.0035720933228731155,-0.03131114318966866,-0.027722256258130077
4.369510173797608,-1.1565604209899902,9.576375007629396,-0.002913063857704401,-0.0353052206337452,-0.0267014242708683
4.396368026733398,-1.1294361352920534,9.549564361572266,-0.0035197287797927856,-0.030967529863119125,-0.024559145793318752
4.385509490966797,-1.119854211807251,9.577769279479982,-0.009280596859753134,-0.03102125972509384,-0.020811451599001888
4.37537431716919,-1.147182106971741,9.597148895263672,-0.011718270368874075,-0.03245621174573898,-0.02010747417807579
4.369187355041504,-1.2063868045806885,9.584605216979982,-0.015209979377686979,-0.03393721580505371,-0.015538715757429601
4.381008148193359,-1.1736395359039307,9.565388679504396,-0.01645001396536827,-0.0340123325586319,-0.016994701698422435
4.388104915618897,-1.1336920261383057,9.56050205230713,-0.01901019737124443,-0.035967927426099784,-0.013600137084722519
4.3827176094055185,-1.1595588922500613,9.561138153076172,-0.022415129467844967,-0.03756704926490784,-0.012260977178812027
4.408879280090332,-1.1949135065078738,9.554633140563967,-0.020806044340133667,-0.03671963140368462,-0.012065140530467033
4.400286674499512,-1.198503613471985,9.563438415527344,-0.0201105959713459,-0.03452644497156143,-0.009071494452655317
4.386259555816651,-1.2797183990478516,9.504883766174318,-0.01635708846151829,-0.030757203698158264,-0.01066201087087393
4.373761177062988,-1.2177343368530273,9.529416084289553,-0.013499057851731779,-0.0284721776843071,-0.011735973879694939
4.406428337097168,-1.129244089126587,9.582421302795412,-0.013456999324262144,-0.029407072812318802,-0.013734779320657255
4.405492782592773,-1.2113124132156374,9.590452194213867,-0.01389355678111315,-0.029969228431582454,-0.012254208326339722
4.411929130554199,-1.2195873260498047,9.547693252563477,-0.01190644782036543,-0.031637564301490784,-0.00971594173461199
4.404614448547363,-1.1605409383773806,9.533367156982422,-0.013430980034172537,-0.0288969986140728,-0.008178073912858963
4.424698829650879,-1.1572191715240479,9.545456886291506,-0.015758294612169266,-0.0269989799708128,-0.0063886865973472595
4.36855411529541,-1.2462856769561768,9.544121742248537,-0.0170503631234169,-0.02729836106300354,-0.004498396534472705
4.379138469696046,-1.2332165241241455,9.57069492340088,-0.01791558414697647,-0.030175602063536647,-0.008156850934028625
4.364758491516113,-1.221421718597412,9.522850036621094,-0.017659075558185577,-0.03489643707871438,-0.01091024372726679
4.352605819702148,-1.2360994815826416,9.553498268127443,-0.016921197995543483,-0.04082871228456497,-0.010400394909083845
4.3707594871521005,-1.287748694419861,9.552713394165039,-0.019086809828877453,-0.04476932063698769,-0.011241968721151352
4.427059173583984,-1.2737051248550417,9.54118537902832,-0.01590768434107304,-0.04654876887798309,-0.015884025022387508
4.502348899841309,-1.1574906110763552,9.50518321990967,-0.015321011655032636,-0.0386260449886322,-0.01576235517859459
4.54156494140625,-1.105135798454285,9.496788978576662,-0.017029855400323868,-0.03227802738547326,-0.008863279595971107
4.5257463455200195,-1.1731386184692383,9.495519638061523,-0.01604384556412697,-0.021571975201368332,-0.0028692933265119795
4.472233295440675,-1.23157274723053,9.488693237304688,-0.013452825136482717,-0.012690436094999313,-0.0016035757726058366
4.448773860931397,-1.1645567417144775,9.516594886779787,-0.012735779397189619,-0.00664728507399559,-0.0028084837831556797
4.380247592926026,-1.106891393661499,9.547271728515625,-0.018765205517411235,-0.008988652378320694,-0.0010900042252615096
4.38703489303589,-1.2080000638961794,9.554810523986818,-0.023020664229989055,-0.011948683299124243,0.001953260973095894
4.407290458679199,-1.219642162322998,9.45357894897461,-0.020752131938934326,-0.009947379119694235,0.003004291094839573
4.44019365310669,-1.2168370485305788,9.459355354309084,-0.019311953336000443,-0.004131958354264499,0.0025784682948142294
4.507276058197022,-1.1695024967193604,9.45864486694336,-0.016455700621008876,0.008707603439688683,0.0028894317802041773
4.509279727935792,-1.150816321372986,9.44465446472168,-0.016660820692777634,0.0238904170691967,0.009951165877282621
4.477935314178468,-1.320039987564087,9.426854133605959,-0.014815530739724638,0.03479822725057602,0.013522771187126638
4.425468444824219,-1.4951292276382449,9.419852256774904,0.0018206809181720018,0.052035693079233176,0.006807771045714618
4.437544345855714,-1.242126703262329,9.501537322998047,0.016348648816347122,0.06758957356214525,0.003905677702277899
4.417344093322754,-1.1026396751403809,9.574718475341797,0.013126116245985031,0.07109977304935455,0.007418753113597632
4.477063655853272,-1.126737117767334,9.528039932250977,0.010635403916239738,0.07110125571489335,0.016101554036140442
4.424829006195069,-1.0521047115325928,9.574513435363771,0.004158904775977135,0.06928355246782304,0.02457661367952824
4.326948165893555,-1.121772289276123,9.654839515686037,-0.01380173582583666,0.05744952708482742,0.03492001816630364
4.357828140258789,-1.278741002082825,9.626066207885742,-0.026191653683781627,0.043604489415884025,0.03793703764677048
4.3954482078552255,-1.2208365201950075,9.623684883117678,-0.03215304389595986,0.036030128598213196,0.035524453967809684
4.460783958435059,-1.1732220649719238,9.664538383483888,-0.037983972579240806,0.02936961129307747,0.04421631991863251
4.3968353271484375,-1.4722751379013064,9.59158229827881,-0.030776843428611755,0.03317074105143548,0.048257775604724884
4.2621002197265625,-1.4059669971466064,9.55091667175293,-0.025912337005138397,0.03495929390192032,0.041698645800352103
4.188176631927491,-1.4079717397689822,9.632016181945803,-0.028983918949961666,0.021893013268709183,0.0315198265016079
4.005071163177491,-1.4716157913208008,9.680013656616211,-0.03637880459427834,0.0007558498764410615,0.012871365994215012
4.221604347229004,-1.3716398477554324,9.65078639984131,-0.05235638841986657,-0.018407221883535385,-0.034200351685285575
4.381757736206055,-1.0468616485595703,9.675592422485352,-0.07318180799484253,-0.0021183588542044163,-0.04072460904717446
4.396802425384522,-1.2361675500869753,9.66335964202881,-0.09802865236997606,-0.01917438581585884,-0.026701984927058223
4.450499534606934,-1.1545449495315554,9.637582778930664,-0.10928229242563249,-0.01831706613302231,-0.016286157071590424
4.379223346710206,-1.2219905853271484,9.62091064453125,-0.11994777619838715,-0.021973734721541408,0.003056407906115055
4.4079604148864755,-1.3755871057510378,9.537659645080568,-0.12651373445987704,-0.028302023187279705,0.008712006732821465
4.392213821411133,-1.2401418685913086,9.560948371887209,-0.12213421612977983,-0.026914093643426895,0.01652777008712292
4.37196159362793,-1.32332444190979,9.56365489959717,-0.11716505885124207,-0.02986499108374119,0.027409838512539867
4.278947353363038,-1.499467730522156,9.431285858154297,-0.08964991569519043,-0.033816795796155937,0.021489553153514862
4.206130504608155,-1.5618975162506104,9.437326431274414,-0.056692149490118034,-0.035296414047479636,0.006334575824439526
4.204120159149171,-1.5313613414764404,9.525877952575685,-0.03957783058285714,-0.042289651930332184,-0.005331257823854686
4.303597927093507,-1.5177420377731325,9.485740661621094,-0.026557017117738724,-0.04606318101286889,-0.016908308491110805
4.251780033111573,-1.6156284809112549,9.39491367340088,0.010292391292750837,-0.0419054850935936,-0.03486303612589837
4.228838920593262,-1.8484672307968142,9.34881114959717,0.07884851843118669,-0.03308242186903954,-0.07142797112464905
4.381085395812988,-1.677568316459656,9.367218971252443,0.13156485557556152,-0.01824220456182957,-0.09683673083782196
4.33162784576416,-1.5705738067626953,9.451797485351562,0.16479824483394626,0.0023328722454607487,-0.10802343487739563
4.327009201049805,-1.3905394077301025,9.560742378234865,0.17771783471107483,0.0031083573121577506,-0.11119683086872101
4.205267906188965,-1.4554632902145388,9.427306175231935,0.19263547658920288,0.00690291915088892,-0.10832006484270097
4.069726467132569,-1.3934471607208252,9.698370933532717,0.19871804118156433,-0.01693208329379559,-0.12258453667163849
4.378199577331543,-1.3112475872039795,9.609201431274414,0.19008980691432956,-0.030653245747089386,-0.11935004591941833
4.194443702697754,-1.2096190452575684,9.54959487915039,0.1794201135635376,-0.048546712845563895,-0.11497536301612854
4.232761383056641,-1.198418140411377,9.675326347351076,0.15623870491981506,-0.07201534509658813,-0.10961582511663438
4.259398937225343,-1.1897034645080566,9.730234146118164,0.13475684821605685,-0.0956781804561615,-0.1104613021016121
4.221737861633301,-1.1650917530059814,9.64178466796875,0.12287020683288574,-0.11793946474790575,-0.1074318513274193
4.08385992050171,-1.6180801391601562,9.74907112121582,0.1409648060798645,-0.1416309624910355,-0.11874523758888245
4.191620826721191,-1.8273942470550537,9.613285064697266,0.18492658436298373,-0.15491376817226413,-0.15202438831329346
4.490336894989015,-1.182181239128113,9.550895690917969,0.20699928700923922,-0.1615586280822754,-0.16965498030185702
4.663228988647461,-1.0452071428298952,9.506081581115724,0.20501238107681274,-0.15154998004436496,-0.16355870664119723
4.7521514892578125,-0.9115926623344422,9.383856773376467,0.2008638083934784,-0.12537463009357455,-0.1556876003742218
4.759591579437257,-0.6456129550933838,9.29634189605713,0.2042437940835953,-0.08914912492036821,-0.13066118955612183
4.860276699066163,-0.18771114945411682,9.449364662170412,0.14947809278965,-0.07309383153915405,-0.11111336201429368
4.760671615600586,-0.5383612513542176,9.422046661376953,0.11446283757686615,-0.041268680244684226,-0.07807943969964982
4.837015151977539,-0.6030974388122559,9.423468589782717,0.08319076150655748,-0.011977752670645714,-0.06040414050221444
4.7690167427063,-0.47351163625717163,9.534787178039553,0.04534296318888665,0.018891805782914165,-0.034295566380023956
4.739588737487793,-0.33836203813552856,9.489282608032227,-0.006580140441656113,0.03938699886202813,-0.006323113106191158
4.47769594192505,-0.5534793138504028,9.466715812683107,-0.044920146465301514,0.04314377531409264,0.013478956185281278
4.211400508880616,-0.648347318172455,9.470330238342287,-0.09186614304780961,0.029076997190713882,0.020818820223212246
4.206052780151367,-0.7587854862213135,9.843088150024414,-0.13432976603507996,-0.012112222611904144,0.02713396586477757
4.073642730712891,-1.4969494342803955,9.677419662475586,-0.09909274429082872,-0.06045544147491455,0.008097914047539236
4.152299404144288,-1.3020331859588623,9.598169326782227,-0.07339897006750108,-0.09787617623806,-0.022399842739105225
4.372392177581788,-1.108251214027405,9.702020645141602,-0.062128275632858276,-0.12811972200870517,-0.04380866140127182
4.183927059173585,-1.2733272314071657,9.669968605041506,-0.04703963920474053,-0.16874091327190402,-0.047182440757751465
4.095586299896241,-1.1617852449417116,9.665584564208984,-0.035810038447380066,-0.22586928308010104,-0.06917592883110046
4.1089372634887695,-0.8841769099235536,9.839488983154297,-0.049221351742744446,-0.29934892058372503,-0.08071622997522356
3.692866802215576,-1.1771937608718874,9.88616466522217,-0.05204588547348977,-0.4054153561592102,-0.09844890981912614
4.013096809387207,-0.8973195552825928,10.062955856323242,-0.0650712102651596,-0.5406099557876587,-0.11418769508600236
3.866528749465943,-0.7109520435333252,10.193277359008789,-0.09549554437398912,-0.6926344633102417,-0.10239768773317338
3.3865904808044434,-1.0154982805252077,10.1613245010376,-0.11397203803062439,-0.9106219410896302,-0.094413198530674
3.6545138359069824,-0.8609374761581421,10.284908294677734,-0.13742482662200928,-1.1301387548446657,-0.0818793773651123
3.585799217224121,-1.234925150871277,10.231791496276857,-0.15298068523406982,-1.3888301849365234,-0.06937459856271745
3.748626708984375,-0.9406135082244873,10.4174280166626,-0.14478458464145663,-1.6552550792694092,-0.10047694295644762
3.844956874847412,-0.46065813302993774,10.526241302490234,-0.17119789123535156,-1.8979626893997195,-0.09730809181928636
4.387950897216797,-0.3684038519859314,10.751289367675781,-0.21393732726573947,-2.1841373443603516,-0.09151151031255723
4.0754289627075195,-0.6362230777740479,10.574656486511232,-0.27522963285446167,-2.4422764778137207,-0.08832887560129167
4.502310276031495,-0.6840396523475648,10.789555549621584,-0.33267256617546087,-2.7513599395751953,-0.10782050341367723
4.131325244903565,-1.099846959114075,10.554561614990234,-0.34859341382980347,-3.067797422409058,-0.17064212262630465
4.371414661407472,-2.1250991821289062,10.087913513183594,-0.2461514621973038,-3.4583616256713867,-0.299411028623581
4.513071537017823,-3.457234144210816,9.766757011413576,0.014698483049869537,-4.028314590454102,-0.4327042996883393
5.666886806488038,-3.602303743362427,10.410757064819336,0.43499657511711126,-4.646297454833984,-0.6643547415733339
8.14375972747803,-3.7515335083007812,12.620196342468263,0.6664977073669434,-5.046497821807862,-0.7463353276252748
10.90621852874756,-3.957742691040039,14.644113540649414,0.6841242909431459,-5.074322700500488,-0.7724674344062806
12.876314163208008,-6.350213527679444,15.017922401428224,0.9088505506515503,-4.916691780090332,-1.0041855573654177
19.102554321289062,-6.758057594299316,15.812454223632812,1.403534770011902,-4.706974983215332,-1.1125277280807497
27.22383308410645,-2.9649469852447514,11.02522945404053,1.7048166990280154,-4.450113296508789,-1.181537389755249
33.057392120361335,-6.592591285705566,10.488413810729982,2.264674663543701,-4.174638271331788,-1.251359462738037
31.442367553710938,-8.32342529296875,9.866825103759766,3.682857751846314,-3.6360948085784917,-1.2384061813354492
29.58848381042481,-3.6180620193481445,6.908899784088136,4.420539379119874,-3.374148368835449,-0.6833239197731019
40.166942596435554,1.6538121700286865,15.102983474731445,3.1929502487182617,-3.0173556804656987,-0.000497184752020985
29.775682449340824,1.5255465507507324,16.188674926757812,1.652919054031372,-2.0114233493804936,0.6754447221755981
22.37210273742676,0.8972093462944032,12.565321922302248,0.07064136862754822,-1.9775805473327637,1.1848450899124148
21.27104949951172,-2.706982135772705,13.348203659057617,-0.7983486652374268,-2.075848817825318,1.338247299194336
17.554462432861328,-5.798736572265625,13.134343147277834,-0.8467243909835815,-2.0979540348052983,1.2296568155288699
14.906412124633789,-6.982290267944336,13.147636413574219,-0.21083481609821322,-2.0908470153808594,0.863139569759369
12.229470252990724,-4.85369634628296,13.472084045410156,0.522242546081543,-1.9961977005004883,0.44755575060844427
10.74093246459961,-1.2783879041671755,14.6015625,0.7673022150993348,-1.6906392574310303,0.12966458499431613
8.758792877197266,0.8931444883346558,15.02624034881592,0.525600790977478,-1.055256485939026,-0.09676503390073778
6.097917079925538,0.9862309098243714,14.259560585021974,0.16638758778572083,-0.22303380072116855,-0.30843663215637207
1.7762317657470703,-0.6480200290679932,11.961827278137209,0.12354896217584611,0.5151994824409486,-0.5471905469894409
-2.644391298294068,-0.8725816607475282,9.122902870178224,0.38904806971549993,0.9786816835403442,-0.7620694041252137
-4.974934101104737,0.25106388330459595,7.263742923736573,0.598790466785431,1.2235560417175293,-0.9120621681213379
-6.0427918434143075,0.7572407722473145,6.28328800201416,0.5891241431236268,1.5058417320251465,-0.9654442667961122
-6.951992988586426,0.10899370908737183,5.669651031494141,0.4891509115695954,1.8411513566970827,-0.9334299564361572
-8.340654373168945,-1.404602885246277,4.575124263763429,0.4464292228221894,2.1271634101867676,-0.8488053679466249
-9.706565856933594,-1.9293073415756228,3.0770123004913335,0.4743061661720276,2.3280975818634038,-0.7078173756599427
-10.282360076904297,-2.0165371894836426,2.0872302055358887,0.40753406286239624,2.4207527637481694,-0.48585426807403564
-9.941888809204102,-1.7470989227294922,1.594135046005249,0.18994563817977905,2.5334362983703613,-0.1761356741189957
-9.488365173339844,-2.1963095664978027,0.8348829746246338,-0.038475792855024345,2.6853861808776855,0.20194031298160556
-9.120101928710938,-2.491895437240601,0.2869243621826172,-0.1922765523195267,2.8042426109313965,0.5908722877502441
-7.928239345550538,-2.2831256389617924,0.25496137142181396,-0.3149886131286621,2.9382488727569585,0.9755418300628662
-7.046218395233155,-1.705597162246704,-0.39258149266242987,-0.3967114388942719,3.1138002872467045,1.327333927154541
-6.556694507598878,-0.7137251496315004,-1.1815901994705202,-0.5105563402175903,3.2033789157867436,1.6233274936676025
-5.130817890167237,-0.10938401520252228,-1.1273964643478396,-0.65060693025589,3.2442336082458496,1.8666586875915527
-3.670508861541748,0.4217379093170166,-0.9752619862556459,-0.701865553855896,3.3175661563873295,2.021346092224121
-2.7579331398010254,1.5450446605682373,-1.2462434768676758,-0.709243655204773,3.3552002906799316,2.0560419559478764
-1.404489874839783,3.4716966152191167,-0.6398262977600098,-0.8137283325195312,3.301524877548218,1.978994369506836
1.2887753248214724,4.90138864517212,0.5909622311592103,-1.0259006023406982,3.3108942508697514,1.775776267051697
4.397450923919679,3.9371285438537598,1.1855508089065554,-1.0768699645996094,3.3763310909271245,1.3703184127807617
7.078147411346436,2.6540069580078125,1.7985820770263672,-0.8346377611160278,3.3619208335876465,0.825235664844513
9.34793472290039,3.2065958976745605,2.4017276763916016,-0.5889179706573486,3.334788084030152,0.34380728006362915
11.413878440856935,2.992226839065552,2.6764204502105717,-0.5427617430686952,3.278186321258545,-0.025807209312915802
14.101541519165039,1.0713794231414795,3.019718647003174,-0.5443850159645082,3.1732888221740723,-0.206193283200264
15.711067199707031,-0.4350594580173493,2.3450863361358647,-0.4372851848602295,3.0114541053771973,-0.20973373949527743
15.767650604248047,-1.4259216785430908,1.4016948938369753,-0.3561381399631501,2.6801371574401855,-0.07428187876939775
16.160036087036136,-2.3557233810424805,1.3300557136535645,-0.3149311244487763,2.212437629699707,0.18728113174438477
17.03421211242676,-2.210206985473633,1.2824313640594482,-0.3545714914798737,1.7687010765075684,0.5581536889076234
15.576931953430178,-0.7749741673469545,-1.1883403062820437,-0.5183924436569214,1.250309705734253,0.9251583218574525
14.055895805358888,0.22734965384006503,-2.648221969604492,-0.8390964269638062,0.47988310456275945,1.2122011184692383
14.266786575317383,-0.4227706789970398,-1.4010899066925049,-1.0924973487854004,-0.23286353051662448,1.3930135965347292
13.20839023590088,-0.6313261985778809,-0.24420660734176636,-1.123289465904236,-0.6233898401260376,1.4773598909378054
9.304833412170412,0.5240955948829652,-1.140084981918335,-1.1126440763473513,-0.8210919499397279,1.5490937232971191
4.536589622497559,-0.17597243189811707,-3.2582395076751713,-1.0162941217422488,-1.0506033897399902,1.5558627843856814
74.45021820068361,-4.003673553466797,30.928298950195312,1.8760132789611816,-1.2874084711074831,-1.7397004365921023
31.183731079101562,7.598300933837891,19.023841857910156,0.4744450151920319,5.377402305603027,-0.4404051005840302
-1.5482609272003174,-18.654510498046875,14.293108940124513,1.9584424495697021,2.940998077392578,-0.3420741260051728
-10.481542587280273,9.448610305786133,16.727716445922855,1.4385260343551638,2.239617347717285,-0.0581534393131733
-4.716890335083008,5.147543907165527,17.76394081115723,0.5122676491737367,0.8751380443572998,-0.5597312450408936
1.158308506011963,1.0178139209747314,14.459005355834961,-0.16757994890213013,-0.6304011940956117,-0.31225913763046265
7.835420608520508,3.8933095932006836,10.36214351654053,-0.41740256547927856,-0.9538406133651733,-0.08062080293893815
8.495305061340334,-7.028318881988526,5.272417545318604,-0.28662499785423284,-0.5602685213088989,0.009208130650222303
7.517096996307374,-4.8692121505737305,6.565563201904297,0.06099037081003189,-0.09790837019681932,-0.015063925646245481
5.6647305488586435,-1.8440834283828738,8.666224479675295,0.22505152225494385,0.15746803581714633,-0.11304537951946259
4.2881741523742685,0.6432778835296631,10.220762252807617,0.1788322925567627,0.2083163559436798,-0.037707161158323295
4.050057888031007,-0.002411574125289917,10.070600509643555,0.030432073399424556,0.06087490916252136,0.04702964052557946
4.938700199127198,-0.29651594161987305,9.725821495056154,-0.11587234586477281,-0.019260387867689133,0.1234118640422821
4.57018804550171,-1.6275317668914795,9.353507041931154,-0.1518630087375641,-0.0830545797944069,0.1378810703754425
4.802813053131104,-1.4665092229843142,9.44908332824707,-0.1565912365913391,-0.12235476076602936,0.12324046343564989
4.400126934051515,-1.1813488006591797,9.741199493408203,-0.18659937381744385,-0.18955351412296298,0.12709838151931763
4.40800666809082,-1.083125948905945,9.978458404541016,-0.2508612871170044,-0.3000787198543549,0.13177998363971713
4.179403305053711,-1.1982455253601074,9.583485603332521,-0.30966797471046453,-0.41353821754455566,0.13915072381496432
5.01601505279541,-0.7777613401412964,9.91031265258789,-0.392212450504303,-0.5426129102706909,0.14106361567974093
4.766886234283448,-1.0030041933059695,9.529587745666506,-0.437522292137146,-0.5683028101921083,0.21974489092826843
4.364189147949219,-1.7485114336013796,9.457188606262209,-0.4609275460243225,-0.7782399058341981,0.16748504340648654
5.4938979148864755,-1.5617560148239138,9.737386703491211,-0.4883117079734802,-0.7560806870460511,0.24575743079185486
4.441141128540039,-2.6570048332214355,8.835695266723633,-0.46587529778480535,-0.844646990299225,0.20189014077186584
4.4155426025390625,-2.2775378227233887,9.234639167785646,-0.45339986681938177,-1.040513038635254,0.06830932945013048
4.559126853942871,-2.795135974884033,8.160519599914553,-0.43465954065322876,-0.9827230572700502,0.08191899210214616
5.114635467529297,-2.373012065887451,9.33939838409424,-0.35560807585716253,-1.0878620147705078,0.013996760360896589
4.65272092819214,-3.1855106353759766,9.000003814697266,-0.3046092092990876,-1.0941509008407595,-0.05455274134874344
4.851377487182617,-3.187450408935547,9.074195861816406,-0.19783590734004977,-1.2300260066986084,-0.18190003931522372
4.979547023773194,-3.0213739871978764,8.155590057373047,-0.11242545396089555,-1.2170429229736328,-0.2201915979385376
6.453639984130859,-2.5118806362152104,8.806883811950685,-0.08764591813087463,-1.2059878110885622,-0.24824708700180054
5.160214424133301,-2.9592244625091557,7.782529830932617,-0.004205397330224514,-1.2687582969665527,-0.338253527879715
5.852898597717285,-1.449132800102234,8.308556556701662,-0.006802936550229789,-1.2235841751098633,-0.28237912058830267
6.381305217742921,-2.032050132751465,8.391282081604006,0.006437315605580807,-1.2861415147781374,-0.28393360972404486
6.082070350646973,-2.1919655799865723,7.710243701934815,0.028338391333818436,-1.2112976312637331,-0.2897512912750244
6.525696754455566,-2.437074422836304,8.046924591064453,0.03175067529082299,-1.214436173439026,-0.29839229583740234
6.530757904052734,-2.3349609375,7.502911567687988,0.05736739933490753,-1.135256886482239,-0.31198638677597046
6.488096237182617,-2.677602767944336,7.412910461425781,0.06880028545856476,-1.098727345466614,-0.36011037230491644
6.796042442321777,-2.2236144542694096,7.63273811340332,0.10130853205919267,-1.0281035900115967,-0.36647447943687445
6.907771110534668,-2.148977279663086,7.599508285522461,0.13383118808269504,-0.9650334715843202,-0.3624502420425415
6.840455055236816,-2.4079976081848145,7.456342220306397,0.18005269765853882,-0.9370198845863343,-0.38510626554489136
6.622720718383789,-2.961539506912232,7.598276615142823,0.22688822448253634,-0.9086793661117554,-0.45291709899902344
6.747245311737061,-2.8750720024108887,7.34085512161255,0.27871295809745794,-0.8713059425354004,-0.49139627814292913
6.502144813537598,-2.4725279808044434,7.037866115570069,0.32087618112564087,-0.8707422018051147,-0.5654365420341493
6.865091323852539,-1.2984139919281006,7.521801471710206,0.308691143989563,-0.8894101977348329,-0.5644917488098145
7.086298465728761,-1.1263530254364014,7.5503859519958505,0.2942877113819123,-0.9060969352722168,-0.5618430376052856
6.900517463684082,-0.9360684156417847,7.533659458160401,0.2913614511489868,-0.9265840649604798,-0.5397418737411499
7.0140838623046875,-0.984154224395752,7.503457069396973,0.281413346529007,-0.9424720406532289,-0.4960799813270569
6.685668468475343,-1.0257078409194949,7.68939208984375,0.28549221158027654,-1.0086636543273926,-0.49437513947486883
6.3810930252075195,-1.2562335729599001,7.411987781524659,0.29136195778846746,-1.0837006568908691,-0.4917682409286499
7.020875930786133,-1.2696949243545534,7.313942909240723,0.29536876082420355,-1.1714837551116943,-0.4934882819652558
7.6897735595703125,-1.291565537452698,6.7453370094299325,0.3079133331775666,-1.1892813444137575,-0.5055980682373047
7.346739292144776,-1.9639813899993896,6.419815540313722,0.3733277022838593,-1.1723723411560059,-0.545808494091034
7.451204299926758,-1.266733765602112,6.769368648529054,0.4001665711402893,-1.2049061059951784,-0.5764551758766175
7.404057025909425,-1.1507515907287598,7.0684475898742685,0.40120023488998413,-1.2661503553390505,-0.5914112329483032
7.2718873023986825,-0.9467469453811646,6.988472938537598,0.4052723944187165,-1.3595548868179324,-0.598209023475647
6.915199756622315,-1.2867692708969118,7.352696418762207,0.40207958221435547,-1.5390573740005495,-0.6179555654525757
7.2106595039367685,-1.112842679023743,7.066205978393555,0.43815118074417114,-1.778231739997864,-0.6870633959770204
7.446102142333984,-0.7214609384536743,7.104247570037843,0.46554356813430786,-2.0168030261993413,-0.7054816484451294
7.44744873046875,0.3996651768684387,6.902594566345215,0.4480186700820923,-2.282301425933838,-0.6983116269111634
7.711665630340577,0.20852746069431308,6.639350414276124,0.408233642578125,-2.5662214756011967,-0.6391677856445312
7.689404487609863,0.603744626045227,6.939430713653565,0.37904629111289984,-2.946798324584961,-0.548660159111023
7.983202457427979,0.8083261251449585,6.684206485748292,0.30666169524192816,-3.348684310913086,-0.4268226325511933
8.229324340820312,0.5517209172248841,6.494905948638917,0.22486713528633118,-3.7865357398986816,-0.29630514979362493
8.4771203994751,0.45885369181633,6.935469627380371,0.1655580997467041,-4.241569042205811,-0.18789643049240112
9.899131774902344,0.37285724282264715,6.89025640487671,0.05330085754394531,-4.640344142913819,-0.1051594987511635
10.964988708496094,0.7902518510818481,7.210757732391358,-0.12313132733106615,-4.842022895812988,-0.017490321770310405
12.886311531066896,1.2413387298583984,7.101674556732179,-0.39567136764526367,-4.876947402954102,0.2364183217287064
16.02743721008301,1.482090711593628,6.889350414276124,-0.9630565643310547,-4.538947582244874,0.6689976453781128
20.884305953979496,3.983878374099732,6.843327999114991,-1.8707380294799805,-3.947903394699097,1.4256845712661745
25.58215141296387,0.5233992338180542,8.066809654235842,-2.5610420703887944,-2.9918694496154785,2.005470514297486
22.839551925659183,-1.3804540634155273,5.163281917572022,-2.918154716491699,-1.9296400547027588,2.1868174076080327
18.50076675415039,-1.8212673664093018,4.680755615234375,-3.6770093441009526,-1.4298946857452393,1.8658438920974734
9.47972297668457,-5.965240955352784,-8.128328323364258,-3.370139837265015,-2.1040282249450684,0.33921825885772705
16.94322967529297,-5.837782859802246,-12.032891273498537,-1.3492927551269531,-4.074526309967042,-1.830613136291504
31.50170707702637,-0.8946387767791748,-5.474246025085449,0.17598024010658264,-4.71954345703125,-3.3835175037384038
32.617095947265625,1.009338617324829,-0.9141807556152344,0.6943135261535645,-4.403360843658448,-4.457428932189941
26.68167495727539,7.364361763000488,-2.9225258827209473,0.12338420003652574,-4.46895694732666,-5.420373916625977
37.0177345275879,3.7237317562103276,2.6590149402618413,-1.1781859397888184,-4.98988962173462,-5.911725997924805
34.46714782714844,-3.4341907501220703,9.91447639465332,-1.9484912157058718,-3.967997789382935,-5.882062911987305
24.782241821289062,-6.785490989685059,6.766507148742676,-2.1808445453643803,-3.4719619750976562,-5.574323177337647
22.971632003784183,-13.41273307800293,8.285043716430664,-1.613211512565613,-3.437277317047119,-5.405465126037598
16.459918975830078,-18.15763664245606,8.41901969909668,-0.03608432412147522,-3.430114030838013,-5.051645278930664
12.589727401733398,-15.424444198608398,8.929877281188967,1.6418962478637695,-3.7085981369018555,-4.605603694915772
11.625608444213867,-12.459129333496094,10.384166717529297,2.608479738235474,-3.8398032188415527,-3.825295209884644
9.99244499206543,-9.320365905761719,11.343158721923828,2.734254121780396,-3.6523008346557617,-2.714834213256836
9.677986145019531,-7.062953948974609,13.464311599731445,2.181210279464722,-2.979977607727051,-1.5381306409835818
8.18389892578125,-6.2147369384765625,15.240121841430664,1.2792516946792605,-1.952052712440491,-0.3497893810272217
6.1666364669799805,-6.936200141906738,15.626187324523928,0.4560727775096894,-0.8446520566940308,0.6885388493537904
3.9017891883850098,-7.13645076751709,14.892195701599123,0.0711929202079773,0.10407140105962755,1.4215945005416872
3.8456578254699707,-5.569304466247559,14.669037818908693,-0.03305674344301224,1.0040255784988406,1.8888485431671143
2.6472785472869877,-3.4072341918945312,13.815340995788576,-0.06633318215608598,1.9397863149642947,2.0899457931518555
0.7860132455825806,-1.3824089765548708,12.766565322875977,-0.17635107040405273,2.7050154209136967,2.1414647102355957
-0.6728188991546631,0.24829411506652832,11.45205307006836,-0.346081018447876,3.2876541614532475,2.1422073841094975
-1.7541877031326296,1.827484726905823,10.182165145874023,-0.5765109062194824,3.787826776504517,2.189696788787842
-3.0712342262268066,2.6968786716461186,8.853754043579102,-0.8556391000747681,4.147632598876953,2.208385229110718
-4.340639114379883,3.7830579280853276,7.719764232635499,-1.1765425205230713,4.322984218597413,2.2642459869384766
-4.976610660552979,4.337455749511719,7.072231292724609,-1.5205401182174685,4.390342712402344,2.3640589714050293
-4.478776454925538,4.535521984100343,7.342360496520996,-1.7828534841537478,4.431661605834961,2.4652636051177983
-3.356086254119873,4.645066261291504,7.802286624908448,-1.9278355836868288,4.532495021820069,2.529364585876465
-1.8316490650177002,4.989232063293457,8.439863204956055,-1.9758018255233767,4.715229034423828,2.5193221569061284
-0.5563077330589296,6.257785797119141,9.108275413513185,-2.0516684055328374,4.924454689025879,2.479304790496826
0.8420760631561279,7.862432003021241,9.7325439453125,-2.2589857578277592,5.1789350509643555,2.4337513446807866
2.1392138004302983,8.87365245819092,9.765554428100586,-2.533633947372437,5.468857288360597,2.3409814834594727
3.3497927188873295,8.66579341888428,9.510600090026857,-2.7206299304962163,5.7133073806762695,2.16915774345398
3.6335566043853764,8.730628967285156,9.023303985595703,-2.7201099395751953,5.8379788398742685,1.914844870567322
4.709990978240968,9.259225845336914,9.238777160644531,-2.6338484287261967,5.85163688659668,1.6138299703598025
5.974964141845703,9.967039108276367,9.729538917541506,-2.5657684803009038,5.8724942207336435,1.2939796447753906
6.7745466232299805,11.305830001831055,10.65006732940674,-2.5156128406524663,5.906776428222656,0.9434129595756532
8.194445610046388,12.569054603576662,11.851173400878906,-2.601597309112549,5.973900318145753,0.5532795786857606
9.499589920043945,12.75970458984375,12.57340717315674,-2.6883809566497807,6.096216201782227,0.13052706420421603
10.317244529724123,14.229921340942383,13.207404136657717,-2.7502353191375737,6.1891140937805185,-0.2803788185119629
11.900622367858888,15.139463424682617,13.560312271118164,-2.895987749099732,6.269565582275391,-0.716848909854889
13.429924964904787,14.255579948425295,13.486975669860842,-2.8758518695831303,6.325070381164551,-1.307734727859497
14.264178276062013,13.03655529022217,13.170483589172365,-2.6870896816253667,6.326163291931152,-2.0286085605621342
14.098443984985352,13.346426963806154,12.843054771423342,-2.636804819107056,6.244385242462159,-2.6997122764587402
13.924387931823732,12.350991249084474,12.977835655212404,-2.8300168514251713,6.11982536315918,-3.1345703601837163
13.647186279296875,10.379730224609375,13.195303916931154,-3.0102033615112305,5.949293613433839,-3.3743751049041752
13.58436393737793,9.094781875610352,13.399355888366701,-3.1139068603515625,5.724329471588136,-3.493527412414551
14.549531936645508,8.716087341308594,13.94874382019043,-3.2785277366638184,5.4968461990356445,-3.5374004840850835
15.571896553039553,8.442994117736818,13.937398910522461,-3.4866461753845215,5.343618869781495,-3.558173656463623
15.719829559326172,8.323921203613281,13.275183677673342,-3.638217687606812,5.171102523803711,-3.5774993896484375
16.861459732055668,8.906517982482912,12.305883407592773,-3.7650806903839116,4.906020164489746,-3.554080724716187
18.919149398803714,9.831613540649414,10.539431571960451,-3.764762163162232,4.580523967742921,-3.487628936767578
20.03701972961426,10.664997100830078,8.221212387084961,-3.498352527618408,4.213860988616944,-3.4449214935302734
20.41367912292481,12.73649311065674,5.801478385925293,-3.0899074077606206,3.7430601119995117,-3.482966423034668
19.84470939636231,14.196500778198242,3.3681480884552006,-2.7155613899230957,3.1532261371612553,-3.603973388671875
20.30150413513184,14.683712005615234,2.0223224163055424,-2.3456921577453613,2.580023765563965,-3.71619200706482
20.361959457397464,13.78782367706299,0.178401917219162,-1.9745848178863525,2.094129323959351,-3.7823643684387207
19.6073169708252,11.382878303527834,-2.34314513206482,-1.5342700481414795,1.605831027030945,-3.802268266677857
19.33304023742676,10.035162925720217,-3.599767923355103,-1.1147037744522097,1.0405018329620361,-3.7147471904754643
18.668893814086918,8.948257446289062,-4.06315565109253,-0.8707945942878724,0.5112362504005433,-3.473510265350342
17.28079414367676,6.927534580230714,-3.4938514232635502,-0.5608660578727723,0.028870727866888046,-3.170584917068482
16.34667205810547,6.077706813812257,-1.6587394475936892,-0.15963885188102722,-0.35913696885108953,-2.8285338878631596
6.719801902770996,2.8989541530609135,3.200822353363037,0.8184279203414917,-1.0425285100936892,-2.657639980316162
-4.5821943283081055,-1.4325712919235232,9.138976097106935,1.321132302284241,-1.479082226753235,-2.774954319000244
-2.6292254924774174,-22.319688796997074,12.23332405090332,0.8339972496032715,-2.6175372600555424,-2.1997628211975098
15.631406784057617,-36.78134536743165,16.069988250732422,1.237009048461914,-3.2484695911407475,-1.279837489128113
30.94699287414551,-14.875315666198732,21.075746536254886,1.7733169794082644,-2.239022731781006,-0.2131876200437546
20.53078842163086,13.724687576293945,18.351263046264652,1.4977025985717773,-0.8582632541656494,0.2309907525777817
4.817154407501222,22.53893089294434,11.93402099609375,0.9444355964660645,-0.3910898864269257,-0.16222992539405823
0.6404715776443481,7.519974231719972,10.523181915283203,0.33685898780822754,-0.5590397715568544,-0.5462267994880677
5.975001335144043,-7.891447544097901,10.97396755218506,0.06088366359472275,-0.5175920128822328,-0.4586402177810669
8.600114822387695,-3.821047306060791,10.883871078491211,0.18604932725429538,-0.23587085306644442,-0.20648100972175598
4.268436908721925,4.426297664642335,10.201453208923342,0.1738439351320267,-0.04295175522565842,-0.17702122032642367
3.8913147449493413,2.6120338439941406,10.389636039733888,-0.02933613583445549,0.043547015637159354,-0.283628135919571
5.813627243041992,-3.132298469543457,10.221833229064943,-0.08493062108755113,0.05452913045883179,-0.25214371085166937
5.883692264556886,-1.7995846271514893,10.432512283325195,-0.038069918751716614,-0.006382830440998077,-0.05637872591614724
4.980403423309327,1.4533233642578125,10.542343139648438,-0.105139821767807,0.018529398366808895,-0.006198730319738388
4.893939495086671,-0.5760263204574585,10.241222381591797,-0.1818525791168213,0.04724044725298882,0.006131623405963183
4.586686611175538,-1.7684671878814697,10.169314384460451,-0.21650728583335876,0.03647492453455926,0.0964338481426239
3.9129996299743652,-1.1204118728637695,9.857411384582521,-0.2517176866531372,0.01045183278620243,0.1189098283648491
3.8580367565155034,-1.108307719230652,9.66774654388428,-0.26693636178970337,-0.034846115857362754,0.11286501586437225
3.799187183380127,-1.4683284759521484,9.72802257537842,-0.26326847076416016,-0.09243430942296983,0.10507925599813463
4.712007522583008,-0.9228376150131226,10.12051296234131,-0.3042840361595154,-0.0868707522749901,0.12226326763629913
4.5764665603637695,-0.9961296319961548,9.746051788330078,-0.31123852729797363,-0.04565572738647461,0.12877984344959262
4.409356117248535,-1.7064150571823122,9.791912078857422,-0.2907461822032929,-0.017973005771636963,0.12004379183053972
4.4097900390625,-1.8746682405471804,9.775732040405273,-0.285786122083664,0.010281307622790337,0.11727900803089142
4.310147762298585,-1.5901579856872559,9.66819953918457,-0.28226935863494873,0.046734455972909934,0.10290196537971497
4.184475898742676,-1.7643972635269167,9.459446907043459,-0.26621547341346746,0.0712929591536522,0.08944465219974518
3.9254367351531987,-2.112439870834351,9.326438903808594,-0.24485626816749573,0.08023928850889207,0.0698394924402237
3.4934158325195312,-2.566039323806763,8.986130714416506,-0.18888686597347262,0.06710615754127502,0.028431646525859833
3.2076184749603276,-2.6370654106140137,8.884945869445803,-0.0688481852412224,-0.010647322982549667,-0.039238560944795615
3.4399166107177734,-2.746285676956177,9.213965415954592,0.001967040123417974,-0.06692361086606981,-0.08821852505207062
3.8752987384796147,-2.4196176528930664,9.264593124389648,0.05127895623445511,-0.07466504722833635,-0.13364416360855103
3.5983920097351074,-1.827826738357544,9.303206443786623,0.09088749438524248,-0.06698748469352722,-0.1738860011100769
3.580348014831543,-2.050658464431763,9.254158020019531,0.12669941782951355,-0.08664172142744066,-0.2242678701877594
3.688801527023316,-1.9187955856323242,9.123370170593263,0.15473984181880954,-0.0883283242583275,-0.2867814898490906
2.8888072967529297,-1.7076492309570312,8.969386100769045,0.16567936539649963,-0.11404342204332353,-0.3508220911026001
3.6277260780334473,-2.3963656425476074,8.869240760803224,0.2055394947528839,-0.23590777814388278,-0.4003003537654877
3.8348093032836914,-1.695455551147461,9.488910675048828,0.16661058366298678,-0.38041794300079346,-0.27652755379676824
4.025756359100343,-0.9098277688026429,10.089184761047365,0.12267820537090302,-0.44060802459716797,-0.27161231637001043
4.00390386581421,-1.2818244695663454,9.673192977905273,0.08126351982355119,-0.445411741733551,-0.2827755510807038
3.854026556015015,-1.6445584297180176,9.84693717956543,-0.013684229925274849,-0.4871696531772614,-0.2530885040760041
4.604192733764648,-0.9194417595863343,10.315680503845217,-0.07110173255205156,-0.49087077379226685,-0.24224822223186496
4.078606128692628,-1.16699755191803,9.672201156616211,-0.07913059741258623,-0.47859558463096624,-0.226426899433136
3.9392049312591557,-1.5708817243576052,9.80131721496582,-0.06959532946348192,-0.5336425304412842,-0.2888371646404267
3.211104393005371,-2.5191102027893066,9.907185554504396,-0.008992059156298637,-0.5897225737571717,-0.42416039109230047
4.457927703857422,-2.248834848403931,10.019562721252443,0.034903179854154594,-0.6384537220001221,-0.5125773549079896
4.836519718170167,-0.8793239593505859,10.068682670593263,-0.005066970828920604,-0.717138707637787,-0.5247114896774292
3.9516396522521973,-1.1487817764282227,10.168340682983398,-0.09509775787591936,-0.8675397634506226,-0.5675273537635804
4.205666065216065,-0.5367165803909302,10.490428924560547,-0.2212326675653458,-1.1013689041137695,-0.6267344951629639
3.616249322891236,-0.39802074432373047,10.636094093322756,-0.2861356735229492,-1.40416157245636,-0.5990927219390869
3.1084437370300293,-0.38976210355758667,10.708035469055178,-0.27962824702262884,-1.830621123313904,-0.4634658694267273
3.4595580101013184,-0.04653044044971466,10.819796562194826,-0.3350004851818085,-2.2488999366760254,-0.32255819439888006
2.4612891674041752,-0.4679630994796753,10.55674457550049,-0.31599414348602295,-2.691642045974732,-0.2402085512876511
4.056052207946777,-0.6045873165130615,11.19801425933838,-0.293873816728592,-3.278252601623535,-0.2971998751163483
3.2346105575561523,-1.1980935335159304,10.26749897003174,-0.2952800393104553,-3.6760616302490234,-0.3721116483211518
4.107011795043945,-0.9812452793121338,10.523994445800781,-0.3607755601406098,-4.135067939758301,-0.44347050786018377
4.175213336944581,-1.8560941219329834,9.94808864593506,-0.29865384101867676,-4.662572383880616,-0.6250677704811097
3.6261789798736577,-2.482177257537842,9.202099800109865,-0.1315004527568817,-5.481635570526124,-0.8307298421859741
4.467446804046632,-2.6349287033081055,9.039348602294922,0.10413302481174469,-6.459907531738281,-0.9796811938285829
5.751081466674805,-1.7613409757614138,10.66200351715088,0.3528900146484375,-7.501769542694093,-1.046128273010254
8.809749603271484,-0.5258423089981079,12.685455322265625,0.37036541104316717,-8.036230087280273,-0.8342959880828857
13.180130004882812,-1.6628897190093994,15.569798469543459,0.013807175680994987,-8.348917961120607,-0.622389554977417
18.288097381591797,-3.658607721328736,16.28035926818848,-0.26606461405754095,-8.263991355895998,-0.48095768690109253
29.38768768310547,-4.297417163848878,18.509901046752933,-0.5988521575927734,-7.5557570457458505,-0.3916822671890259
30.321800231933594,-7.519340038299561,19.33500480651856,-0.9142173528671265,-6.642299175262452,-0.4366565048694611
31.181627273559574,-8.58022689819336,17.336570739746094,-1.1941021680831911,-5.913110733032227,-0.8223497271537782
36.31318664550781,-10.794800758361818,17.73943328857422,-0.6174615621566772,-5.06890869140625,-1.351161599159241
34.00782012939453,-6.058959484100343,18.037029266357422,-0.581511676311493,-3.3479247093200684,-1.2181931734085085
26.91435813903809,1.4883339405059814,10.041996955871584,-1.5909583568572998,-2.5856964588165288,-1.3932694196701052
45.16174697875977,-6.561612606048585,25.535327911376953,-2.4128317832946777,-0.9489266276359559,-1.3714759349822998
22.66866683959961,-8.640662193298342,15.947927474975586,-2.180389881134033,1.1695177555084229,-1.0993417501449587
13.92989253997803,-8.461811065673828,7.287572383880616,-1.7773215770721436,1.3136986494064333,-0.7654688358306885
11.02512836456299,-8.716444969177248,5.17698621749878,-0.795324742794037,1.0649757385253906,-0.7898619174957275
8.48900890350342,-5.720548152923585,4.75213384628296,0.08986903727054596,0.8670102953910829,-0.7447062730789185
7.501904964447022,-1.7533303499221804,5.6234707832336435,0.40674772858619695,0.8865506052970887,-0.6098270416259766
5.875544071197511,0.6862548589706421,6.0856032371521005,0.266374558210373,1.2164528369903564,-0.3951182067394257
2.626846551895142,1.7192537784576416,5.210685253143311,-0.027790108695626262,1.6268723011016846,-0.22022876143455505
-1.0231124162673952,1.5997117757797243,3.7426810264587402,-0.24642695486545566,1.9149162769317627,-0.18864794075489047
-2.182697296142578,1.1554033756256104,3.5452058315277104,-0.3389758169651032,2.164891958236695,-0.22867491841316223
-2.1642141342163086,-0.04125732183456421,3.273398637771607,-0.20882879197597506,2.4796366691589355,-0.2175334542989731
-3.975024700164795,-0.12811192870140076,1.8025376796722412,0.08731076121330261,2.7485048770904545,-0.1645152717828751
-4.795318126678468,0.7621278166770936,0.8503035306930542,0.2018687278032303,2.879096031188965,-0.005018681753426791
-5.51553773880005,1.2316007614135742,-0.33119088411331177,0.1406332552433014,2.9273881912231445,0.20703865587711337
-6.173399448394776,1.0657321214675906,-1.0272800922393799,0.05480795353651047,2.8679034709930424,0.37350302934646606
-5.230648040771484,1.010414242744446,-0.1480063796043396,-0.07883922755718231,2.77769684791565,0.5151124596595765
-3.936789751052857,1.094349026679993,1.0894412994384766,-0.23519678413867953,2.845005512237549,0.6538572907447816
-3.4254050254821777,0.5854868292808534,1.5977233648300173,-0.31711655855178833,3.0362277030944824,0.7588238120079042
-3.661383628845215,0.3942727148532868,0.9871246218681337,-0.2727276682853699,3.200241327285767,0.8333210945129395
-3.7694380283355717,0.8635559678077699,0.18073807656764987,-0.208267018198967,3.269672393798828,0.8754874467849731
-3.4810380935668945,1.0533332824707031,-0.08125559985637665,-0.1888590902090073,3.2822327613830566,0.9065536856651307
-1.873446822166443,0.7805286645889282,0.9659788012504579,-0.19190672039985657,3.3488011360168457,0.9406127333641053
-0.08616369962692261,0.31023597717285156,1.71828830242157,-0.14577612280845642,3.600967168807984,1.0199737548828125
0.5058218240737915,0.6268069744110107,0.6919417381286621,-0.0611456222832203,3.895049571990967,1.1242942810058594
0.6221215724945068,1.9919326305389404,-1.3531247377395632,-0.08603409677743913,4.035432815551758,1.2310813665390017
1.480175495147705,2.886764287948609,-2.607083082199097,-0.25578019022941595,3.978195428848267,1.297546148300171
3.6846132278442383,3.2632083892822266,-2.242959976196289,-0.4316032826900483,3.85963773727417,1.3099037408828738
6.957386016845703,4.026406764984132,-0.9043388962745668,-0.5757885575294496,3.802549362182617,1.2583627700805664
11.095342636108398,3.7781770229339604,0.26503682136535645,-0.6822445392608643,3.829086542129517,1.110060214996338
14.437331199645998,2.232530117034912,-0.0383063405752182,-0.5346372723579408,3.833241224288941,0.85201096534729
15.939912796020508,2.133605480194092,-1.5792731046676638,-0.18176291882991794,3.660297393798828,0.5269420742988588
16.797767639160156,2.4776213169097905,-3.1847469806671147,0.07470532506704332,3.2973756790161133,0.1798514723777771
17.69561004638672,1.715015172958374,-3.8791811466217045,0.2385115623474121,2.805129766464234,-0.10029493272304535
17.688360214233402,0.6750179529190063,-4.395524978637695,0.4120918214321137,2.2653906345367436,-0.26475614309310913
16.591358184814453,0.749901533126831,-4.983622074127198,0.5612970590591431,1.6764329671859743,-0.3306097388267517
14.70939826965332,1.2971352338790896,-6.701601028442383,0.5608924627304077,1.0372568368911745,-0.29717168211936956
9.599106788635256,0.9183347225189209,-10.154986381530763,0.44674187898635864,0.14440445601940158,-0.22801774740219116
6.514052391052246,-1.424615263938904,-10.589420318603516,0.45678436756134033,-1.0113887786865234,0.02261060290038586
4.827479362487793,-2.9384608268737793,-9.527776718139648,0.7478919625282289,-2.0431814193725586,0.3202944695949555
117.71996307373048,5.048858642578125,68.42666625976562,-3.404313087463379,-1.470771908760071,1.5572448968887331
-22.734939575195312,14.105842590332031,-44.25627899169922,-0.4358251690864563,6.627339839935304,0.00933954119682312
19.22041511535645,-21.224523544311527,24.43865966796875,0.11661092936992645,3.2725987434387207,0.40145710110664373
-13.977487564086914,4.4074201583862305,17.181547164916996,0.4509542286396027,2.3005995750427246,0.09923402220010759
-9.328614234924318,-9.16878414154053,16.251581192016605,0.4233218729496003,0.8195987939834595,-0.5604263544082642
0.8930474519729614,-0.9333591461181641,15.40437126159668,0.14685389399528503,-0.5611194968223573,-0.6005905866622925
7.223047256469727,2.3958761692047124,9.395246505737305,-0.10195641964673997,-0.8828336596488954,-0.577365517616272
10.155224800109865,-1.57764208316803,5.348219871520996,0.022625440731644634,-0.6167440414428711,-0.4079850614070893
9.449246406555178,0.18804660439491272,6.567728042602539,0.10686094313859941,-0.12978225946426392,-0.16605281829833984
6.391550540924073,-0.1509009301662445,8.782546997070312,0.11067331582307817,0.24711567163467407,-0.03000910766422749
4.084647655487061,-2.014476776123047,9.924407958984375,0.10059161484241486,0.25292807817459106,-0.005202245432883502
3.964981317520142,-1.8393776416778564,9.963970184326172,0.08441798388957977,0.13718317449092868,-0.04697740077972412
4.988639831542969,-0.5572863221168519,9.525020599365234,0.04157205298542977,0.044962041079998016,-0.04266248643398285
5.683016777038574,-0.16189157962799072,9.425621032714844,-0.01890218071639538,0.07443146407604218,0.02623178251087666
5.255799293518066,-0.6298712491989136,9.495048522949219,-0.0804084986448288,0.12773442268371582,0.11149970442056657
4.383924961090089,-1.488187909126282,9.67659091949463,-0.08866047114133836,0.08734099566936493,0.13219438493251803
3.965137481689453,-1.880763649940491,9.818166732788086,-0.07903085649013519,-0.024686096236109737,0.08178467303514482
4.261558055877686,-1.6003508567810059,9.732532501220703,-0.07946515083312988,-0.1434084326028824,0.02805814892053604
4.945829868316651,-1.0162341594696045,9.556803703308107,-0.09191916137933732,-0.1723093539476395,0.04368896782398224
5.074024200439453,-0.8618760704994203,9.375580787658693,-0.11832369863986969,-0.18312169611454013,0.06380103528499603
4.786314964294434,-1.2704559564590456,9.307300567626953,-0.14274300634860995,-0.22747460007667542,0.050536684691905975
5.148587703704835,-0.8710684180259706,9.4332275390625,-0.16752025485038757,-0.1862047463655472,0.09464885294437408
4.481764793395996,-1.5550992488861084,9.377343177795412,-0.18578536808490756,-0.22064171731472018,0.08912253379821777
4.690230369567871,-1.810171723365784,9.259526252746584,-0.17982132732868197,-0.29522067308425903,0.03925928846001626
5.634106159210206,-1.0351579189300537,9.347208023071289,-0.1915339231491089,-0.21445707976818087,0.09912169724702836
4.951581954956055,-1.5642720460891726,9.003109931945803,-0.18836556375026706,-0.1968958079814911,0.11718716472387315
4.80689811706543,-1.807197093963623,8.893412590026857,-0.17864704132080078,-0.27271097898483276,0.0863611474633217
5.764199256896973,-0.904364049434662,9.22486209869385,-0.19367873668670654,-0.12842519581317904,0.1615263819694519
4.4020280838012695,-1.5235588550567627,9.155786514282227,-0.1660692244768143,-0.2761687636375427,0.09995494782924652
5.108586311340332,-1.2129838466644287,9.397889137268068,-0.2394639253616333,-0.18268011510372165,0.1605355441570282
4.472144603729249,-1.7721849679946902,9.09984016418457,-0.2437459081411362,-0.22575493156909945,0.1357210874557495
4.7291932106018075,-1.486771583557129,9.369590759277344,-0.25383946299552923,-0.39749062061309814,0.05945125594735146
4.381169319152832,-1.0016092061996462,8.907288551330568,-0.2705352604389191,-0.29373490810394287,0.09358029067516327
5.083901405334473,-1.9096459150314333,9.427688598632812,-0.300877720117569,-0.47429054975509644,0.05232485756278039
4.786903858184815,-2.1734800338745117,9.05919933319092,-0.27756911516189575,-0.36303794384002686,0.06207707896828652
3.217862606048584,-2.953915596008301,7.604035377502441,-0.2628147006034851,-0.462896078824997,0.005236929282546043
6.5872907638549805,-1.7691110372543337,10.103225708007812,-0.2107944339513779,-0.5548545122146606,-0.056593380868434906
4.527751922607422,-2.118775606155396,8.291845321655273,-0.20625127851963046,-0.4280843734741211,-0.05981020256876946
5.367195129394531,-1.7148605585098269,9.027462959289553,-0.20940741896629333,-0.6013470888137817,-0.09498057514429094
5.325211048126222,-1.2304869890213015,9.375207901000977,-0.2369458228349686,-0.5203443765640259,-0.07475837320089342
3.3515841960906987,-2.430923700332642,9.016478538513185,-0.25249275565147405,-0.6840043067932129,-0.09954583644866943
5.149979114532472,-1.831679344177246,9.392229080200195,-0.20215192437171936,-0.858029067516327,-0.1544206440448761
4.476676940917969,-2.0126717090606694,8.87230968475342,-0.17763169109821322,-0.8985016942024232,-0.19048964977264404
4.898614883422852,-1.7664116621017458,9.227579116821289,-0.14685715734958651,-1.1135597229003906,-0.22150348126888278
5.220252990722656,-1.6943142414093018,8.61843776702881,-0.12899528443813327,-1.1642355918884277,-0.2406821846961975
5.336908340454102,-1.0400867462158203,9.643765449523928,-0.15493178367614746,-1.359699368476868,-0.20877176523208618
4.869773387908936,-1.732112765312195,9.3768310546875,-0.17665153741836548,-1.521103858947754,-0.23149009048938754
5.069367408752441,-2.5388662815094,9.13370132446289,-0.16717742383480075,-1.7506706714630127,-0.27438405156135565
5.613269805908203,-2.2424795627594,9.133913040161133,-0.10227518528699876,-2.0063276290893555,-0.4157038927078247
5.445770263671875,-2.3336100578308105,8.773667335510256,-0.027742702513933182,-2.217169046401978,-0.487585186958313
5.704214572906495,-1.5775123834609988,8.574337005615234,-0.010317672044038773,-2.504666805267334,-0.4987685382366181
5.628851890563965,-1.3343329429626465,8.578806877136232,-0.01099865511059761,-2.788955926895142,-0.47596073150634766
6.237622261047363,-1.5491957664489746,8.615403175354006,-0.019716493785381317,-3.1025159358978276,-0.46911570429801946
6.249168395996094,-1.0318239927291872,8.369435310363771,-0.04056856036186218,-3.3883645534515385,-0.4225679636001587
7.511208534240723,-0.7582075595855713,8.516838073730469,-0.08553966134786607,-3.647281408309937,-0.30374979972839355
7.910935878753663,-0.3687514662742615,8.573760986328125,-0.12979945540428162,-3.888987302780152,-0.1657389998435974
8.783474922180178,-0.3007175326347351,9.022463798522951,-0.2183975875377655,-4.0054383277893075,0.006350838113576175
10.490945816040039,-0.6252794861793519,10.638989448547365,-0.2814022600650788,-4.079903602600098,0.2521870434284211
12.796371459960938,-1.839439868927002,12.707400321960451,-0.4961130619049072,-3.881566047668457,0.521309792995453
14.685723304748537,-3.4984941482543945,12.666985511779787,-0.5586465001106263,-3.6510486602783203,0.6448199152946473
19.498788833618168,-5.026464462280273,12.984145164489748,-0.44677373766899114,-3.3698678016662598,0.6254533529281616
21.07905769348145,-6.626222610473633,9.095580101013185,-0.0512177236378193,-3.1573619842529297,0.3467706739902497
24.59223175048828,-7.061785221099854,3.572908401489258,0.6198001503944398,-3.240884065628052,-0.15900081396102905
27.379247665405277,-5.483154296875,1.0375633239746094,1.1097921133041384,-3.5778379440307617,-0.6380131840705873
30.23883819580078,-4.229806900024414,2.9071795940399174,1.524865508079529,-3.7292351722717285,-1.1614606380462646
30.688690185546875,-3.3083875179290776,3.2571785449981694,1.6183913946151736,-3.7830352783203125,-1.5340744256973269
40.8670654296875,-3.3269801139831543,13.924470901489258,1.2897547483444216,-3.2601888179779057,-1.6996090412139893
29.25957298278809,-3.189706802368164,14.13198757171631,0.8184128999710083,-1.9660407304763796,-1.6840264797210693
21.85017585754395,-2.315507411956787,10.464283943176271,0.2130745202302933,-1.767998218536377,-1.6518454551696777
18.78564262390137,-2.8989439010620117,10.055511474609375,-0.29204931855201727,-1.8527629375457764,-1.7358337640762331
16.379198074340824,-4.417055606842042,10.21497917175293,-0.6317960619926454,-1.8896440267562868,-1.7793428897857666
15.077939987182617,-6.45301628112793,11.579630851745607,-0.521554708480835,-1.7104259729385378,-1.836529016494751
12.44148063659668,-7.441875934600831,11.961018562316896,-0.011948676779866219,-1.366958260536194,-1.8047176599502566
8.942191123962404,-6.952079296112061,11.974078178405763,0.6277806758880615,-1.000216841697693,-1.716353416442871
5.646050453186035,-5.884696483612061,12.157194137573242,1.0977300405502322,-0.6135285496711732,-1.5874552726745605
2.7295145988464355,-4.284810543060304,12.411044120788576,1.2486354112625124,-0.2023213505744934,-1.40338671207428
1.2809462547302246,-3.449032545089722,12.520213127136232,1.1255801916122439,0.3309340476989746,-1.164365291595459
-0.7586800456047059,-2.9426145553588867,11.1719970703125,0.929306447505951,0.9908087253570557,-0.9180464148521424
-4.662350654602051,-3.5199856758117676,8.657960891723633,0.8437131047248841,1.5188060998916628,-0.7332565784454346
-8.34763813018799,-3.7804095745086674,6.062165260314941,0.8756489753723145,1.6488682031631472,-0.6014971733093262
-9.677033424377443,-3.1884541511535645,4.977489948272706,0.8542460799217225,1.5801286697387695,-0.43304115533828735
-9.610633850097656,-2.8667724132537846,4.770338535308839,0.6931288838386537,1.548954725265503,-0.22344134747982028
-9.536669731140138,-2.8365080356597905,5.233994960784913,0.4253943860530854,1.6182659864425661,0.0313815101981163
-8.168821334838867,-3.2521765232086186,6.345348358154297,0.068495973944664,1.8685606718063357,0.3445092439651489
-7.8279266357421875,-4.229066848754883,6.1366987228393555,-0.1091839075088501,2.299995660781861,0.6198561787605287
-8.422924995422365,-4.361786842346191,4.918245315551758,-0.09419889748096466,2.69571328163147,0.8746488094329834
-8.947067260742188,-3.329988956451416,2.941530227661133,-0.09091281145811082,2.923286676406861,1.129225254058838
-8.432679176330568,-2.0637402534484863,1.9584718942642214,-0.22247307002544406,3.0249905586242676,1.3769732713699343
-6.736956119537354,-1.6999243497848513,2.194010496139527,-0.4135556221008301,3.148974180221558,1.6144307851791384
-4.720955848693848,-1.504962682723999,2.7592284679412846,-0.5135223269462587,3.3860301971435547,1.7796512842178347
-3.0024313926696777,-0.8811948299407959,2.8861105442047124,-0.5440742373466493,3.676958322525025,1.8907601833343506
-1.3544427156448366,0.04261639341711999,2.690346479415894,-0.6059132218360902,3.963958263397217,1.9605923891067507
-0.11154916882514954,0.9693194627761841,1.9382457733154297,-0.6772726774215698,4.188960552215577,1.950031638145447
1.6844770908355713,2.0994467735290527,1.610509514808655,-0.7918893694877626,4.291598320007324,1.8678840398788454
5.058276176452637,3.064717054367066,1.806601405143738,-1.0134772062301638,4.341965198516847,1.7063078880310059
9.209761619567873,1.810978889465332,1.7962241172790527,-1.1871147155761719,4.399229526519776,1.4409902095794678
11.488969802856445,-0.4255048632621765,0.620277225971222,-1.0284960269927979,4.365751743316651,1.1287101507186892
13.821734428405763,-0.9666109085083008,0.10024240612983704,-0.7629162073135376,4.168665409088136,0.974151611328125
16.797821044921875,-1.4312688112258913,-0.25554135441780096,-0.7061541676521302,3.891914606094361,1.0463924407958984
18.479017257690433,-2.5250804424285893,-1.342391014099121,-0.7959972023963929,3.555516242980957,1.3090318441390993
17.108739852905277,-3.1739504337310795,-4.738492012023926,-0.8706414699554443,3.0492622852325444,1.6306051015853884
15.616548538208008,-3.242364645004273,-6.6762495040893555,-0.9948191046714784,2.184971809387207,1.9910038709640505
13.457581520080568,-2.501689910888672,-7.846848487854004,-1.1772520542144775,1.261579990386963,2.347702264785767
18.310874938964844,-3.59648871421814,-7.991201400756836,-1.2927613258361816,0.3818808495998383,2.457672595977783
65.24463653564455,13.337460517883303,-2.1053061485290527,0.9130174517631532,-0.47252875566482544,-1.9698927402496338
64.96705627441406,9.36775016784668,24.688282012939453,0.6984390020370483,2.624144792556763,-2.932288646697998
-6.631413459777832,-20.094013214111328,-6.9330596923828125,0.9074400663375854,2.876333713531494,-0.4135450422763825
3.812465190887451,20.939376831054688,27.74411392211914,1.319598913192749,2.7566668987274174,-0.025688536465168
-2.742064952850342,-2.198561668395996,15.059046745300295,0.5480993390083314,2.284911632537842,-0.7705036401748657
0.9672664403915405,-11.590867042541506,9.760574340820312,0.7038114070892334,1.5346440076828005,-0.635982871055603
3.9963610172271733,5.421394348144531,13.594805717468263,0.502102255821228,0.4582540988922119,-0.22967691719532016
2.0613503456115723,-2.1272101402282715,10.765636444091797,0.2690319120883942,-0.0028242412954568863,-0.3545855581760407
6.649757385253906,0.11816297471523285,10.09610366821289,0.15969187021255493,-0.2562497556209565,-0.20658452808856967
7.094036102294922,0.5745775103569032,8.781254768371584,0.12690746784210205,-0.183049812912941,-0.06193966418504715
6.076016902923585,-1.8336149454116824,8.35695552825928,0.0848638489842415,0.029541863128542904,0.05300001800060272
5.183127880096436,-3.358133316040039,8.33865261077881,0.1839082092046738,0.13321948051452637,-0.01162902917712927
4.987201690673828,-1.8332552909851074,8.825431823730469,0.22813117504119873,0.1863740831613541,-0.08912295848131181
4.915198802947999,-0.8560082912445068,9.4173059463501,0.18065045773983004,0.16828247904777527,-0.07310637086629869
4.792141914367676,-0.5774604082107544,9.663055419921875,0.11018144339323045,0.13310860097408297,-0.01830192655324936
4.860009670257569,-0.9248989820480347,9.503135681152344,0.04306256026029587,0.07967712730169298,0.0330546572804451
4.757831096649171,-1.423673152923584,9.479319572448732,0.0028489679098129272,0.03341315314173699,0.05458455905318261
4.741546154022218,-1.5378530025482178,9.514299392700195,-0.03208190202713013,-0.025856280699372295,0.04893818497657776
4.802343368530273,-1.4388678073883057,9.541152000427248,-0.053798425942659385,-0.072893463075161,0.053169019520282745
4.803373336791992,-1.1895864009857178,9.48100471496582,-0.0908985808491707,-0.13349446654319763,0.0672542527318001
4.798019886016847,-1.154768466949463,9.49720573425293,-0.14706388115882874,-0.1846204847097397,0.08039756864309312
5.00672483444214,-1.0711758136749268,9.726716041564943,-0.19569106400012973,-0.3110383152961731,0.08373191207647325
4.775920867919922,-1.0928428173065186,9.514706611633303,-0.24866400659084323,-0.31248471140861517,0.1587221920490265
4.834244251251222,-1.5513651371002197,9.349501609802248,-0.2968361675739289,-0.4703475832939148,0.13822348415851596
5.042170524597168,-1.4685643911361697,9.156246185302734,-0.3461156487464905,-0.39941236376762396,0.21581442654132846
4.431649208068848,-2.1814267635345463,8.835318565368654,-0.3417325019836426,-0.5929303765296937,0.15361252427101135
5.8791704177856445,-0.9601432085037231,9.309506416320803,-0.41680824756622314,-0.45398491621017456,0.2640226781368256
5.620129585266113,-1.6618847846984863,8.990972518920898,-0.36540722846984863,-0.6504910588264466,0.2133578062057495
4.06092119216919,-2.09689736366272,7.671701431274414,-0.386693686246872,-0.5169954299926758,0.28829824924468994
6.45222282409668,-1.4925831556320193,9.95644283294678,-0.3592787981033325,-0.6506840586662294,0.2268930971622467
4.519361019134522,-3.2160744667053223,8.159915924072266,-0.31225267052650457,-0.6609333157539369,0.13229981064796448
5.214442729949952,-2.0850088596344,8.54725456237793,-0.3443091213703156,-0.5375748872756958,0.1886669844388962
5.593993663787843,-2.6548912525177006,8.73804569244385,-0.2813494503498078,-0.6603597402572632,0.0777750313282013
5.250967025756836,-2.5137302875518803,8.103270530700685,-0.28050827980041504,-0.5437487959861756,0.09732556343078613
5.812570095062257,-2.7563090324401855,8.357628822326662,-0.2524631321430207,-0.5494593977928163,0.05506930500268936
5.181488513946534,-2.996362447738648,8.042897224426271,-0.21266685426235202,-0.43691587448120117,0.013455000706017019
5.499990463256836,-2.7549340724945073,8.39069938659668,-0.20240962505340576,-0.4412361681461335,-0.03247075155377389
5.899847984313965,-2.784253358840943,8.216339111328125,-0.16247521340847018,-0.38012999296188354,-0.0683569982647896
5.475741386413574,-2.7676670551300053,8.06172275543213,-0.11525675654411316,-0.35773777961730957,-0.09692888706922533
5.318473339080811,-3.0722005367279057,8.176009178161623,-0.06345052272081377,-0.3611863851547241,-0.15335775911808017
5.622889995574952,-2.6173272132873535,8.377439498901367,-0.029726669192314148,-0.37437096238136297,-0.20340318977832797
5.470043659210206,-1.9816473722457888,8.618721008300781,-0.019681384786963466,-0.40354543924331665,-0.21783076226711276
5.552713871002198,-2.026323556900025,8.43302631378174,-0.018762946128845215,-0.46197742223739624,-0.23548211157321933
5.233575344085694,-2.22152042388916,8.712718963623047,0.005019926931709052,-0.5442953109741211,-0.25806996226310736
4.73722791671753,-2.287169933319092,8.739248275756836,0.0127377612516284,-0.689588189125061,-0.2977508306503296
5.003623485565186,-2.2065947055816655,9.168471336364748,0.04564223438501358,-0.8576253056526185,-0.3273926377296448
4.846414566040039,-2.091732740402222,9.416166305541992,0.029900260269641876,-1.05936598777771,-0.35527887940406805
5.295928478240968,-1.9066650867462158,9.050530433654787,0.026009105145931244,-1.3023675680160525,-0.38627541065216064
5.382377147674561,-1.8795757293701172,9.475142478942873,0.03650697693228722,-1.5086300373077393,-0.40652191638946533
5.438224315643311,-1.6202268600463867,9.06043338775635,0.030298002064228058,-1.7809416055679324,-0.4295917749404907
6.012994289398194,-1.7796308994293213,8.905353546142578,0.01045747846364975,-2.0622920989990234,-0.4144491255283356
5.824489116668702,-1.5483555793762207,8.803460121154787,-0.015728706493973735,-2.4187092781066895,-0.36870172619819647
6.124649524688722,-1.1196503639221191,8.81930160522461,-0.06613878905773163,-2.764022588729859,-0.30922070145607
6.099522590637207,-0.9762876033782959,8.804206848144531,-0.13641172647476196,-3.136840105056763,-0.23381862044334412
6.755345344543457,-0.9038248658180238,8.864328384399414,-0.24719990789890292,-3.4855229854583745,-0.1523539423942566
7.502930641174316,-0.5751543641090394,9.213431358337404,-0.3538528978824616,-3.8205437660217285,-0.06577730923891069
8.872587203979492,0.08135882019996643,10.125161170959474,-0.5305764675140381,-4.089179515838624,0.12586809694767
10.27431869506836,-0.8268616795539857,11.505962371826172,-0.6610883474349976,-4.154021739959718,0.38227880001068115
11.081601142883303,-2.90457034111023,11.696557998657227,-0.7279637455940248,-4.061573505401612,0.5993369817733765
13.87947177886963,-4.782453536987305,12.192081451416016,-0.6244414448738099,-3.9424939155578613,0.5837127566337587
18.087017059326172,-5.288861274719238,11.789453506469727,-0.4989258646965027,-3.6197907924652104,0.4751321375370026
20.70363998413086,-6.326903820037843,9.011245727539062,-0.34570348262786865,-3.3755562305450444,0.30895864963531494
24.146642684936527,-5.709769725799561,2.3282654285430913,-0.1720695346593857,-3.5449240207672124,-0.03465928137302399
31.116041183471683,-6.2657227516174325,0.24216538667678833,0.05905559286475182,-3.7789154052734375,-0.6227850317955018
33.81528854370118,-5.832521438598633,1.8163106441497803,0.03646741807460785,-3.8578588962554936,-1.0716692209243777
33.13449478149415,-7.838577747344972,2.784520149230957,0.12645168602466586,-3.7229151725769043,-1.462653994560242
42.634483337402344,-9.096578598022461,11.429189682006836,0.4387574493885041,-3.700332880020142,-1.9538164138793945
36.27293014526368,-7.883100032806397,17.66228485107422,0.634699821472168,-2.1494581699371342,-2.1100168228149414
24.02820587158203,-4.963161468505859,13.184691429138185,0.422069787979126,-1.4686242341995241,-2.0801246166229252
20.36443901062012,-3.6845593452453613,12.919058799743654,-0.1272602826356888,-1.340174674987793,-2.146830320358277
15.107658386230469,-4.322300910949707,12.185766220092773,-0.6341457962989808,-1.2206536531448366,-2.1675519943237305
12.239627838134766,-5.929405212402344,12.313262939453125,-0.7470046281814575,-1.1229785680770876,-2.225152015686035
9.654233932495117,-7.437652587890625,12.98020648956299,-0.38459751009941107,-0.946487545967102,-2.2844653129577637
6.954911231994629,-7.356279850006104,13.989459037780763,0.18462936580181125,-0.6151710748672485,-2.2781322002410893
4.313810825347901,-6.145036697387695,14.801095962524414,0.6120773553848267,-0.08744488656520844,-2.1355259418487553
1.0114994049072266,-4.857169151306152,14.109884262084961,0.8015259504318237,0.5876014828681947,-1.9131393432617188
-3.8143911361694336,-4.150507926940918,11.66796875,0.9201866984367372,1.174593210220337,-1.731518268585205
-7.699945449829102,-3.460481405258179,9.06991958618164,0.9214826226234437,1.5007078647613525,-1.6000782251358034
-10.379763603210451,-3.1590890884399414,6.75538206100464,0.8161795139312744,1.5854878425598145,-1.4779843091964724
-11.30805778503418,-3.101121425628662,5.9069366455078125,0.6206006407737733,1.5434870719909668,-1.292818903923035
-10.293460845947266,-3.2355728149414062,6.644069671630859,0.31163343787193304,1.6311867237091064,-0.9577083587646484
-10.229681015014648,-4.230970859527589,6.518958568572999,0.08041948825120927,1.9215292930603027,-0.5554164052009584
-10.876845359802248,-4.748264312744141,5.953145980834961,-0.001998468767851591,2.2134385108947754,-0.144556000828743
-10.830475807189943,-3.9633216857910156,5.223980426788331,-0.11438194662332536,2.467024326324463,0.29144844412803655
-10.41950798034668,-3.069886922836304,4.588426113128663,-0.30243366956710815,2.739296197891236,0.7108792662620546
-10.064268112182617,-2.6151354312896733,3.5413725376129155,-0.5029243826866151,2.971561908721924,1.1125763654708865
-8.677213668823242,-2.1741151809692383,3.27249026298523,-0.6815566420555116,3.174407243728638,1.49442458152771
-7.039325714111328,-2.091285943984986,3.128339052200318,-0.7689074873924256,3.4322752952575684,1.851847052574158
-5.704390048980714,-1.6528639793395996,2.779506206512451,-0.7161096334457397,3.6869666576385502,2.1375639438629155
-3.63855528831482,0.12456083297729492,2.7242050170898438,-0.7175619602203369,3.916943788528443,2.3747611045837402
-1.4945503473281863,2.0469315052032475,2.209194898605347,-0.8439092040061952,4.155487537384034,2.5182533264160156
1.1295999288558962,2.754674673080445,1.5366352796554568,-0.9850093126296997,4.31199598312378,2.4808406829833984
4.070150375366211,2.6225426197052006,0.9701508283615112,-0.9700509905815126,4.35018253326416,2.2433619499206543
7.018736839294434,2.843937873840332,0.6421119570732118,-0.8098394870758057,4.315842151641847,1.8628501892089844
10.31480598449707,3.4014368057250977,0.008386243134737015,-0.6879547834396362,4.257380485534668,1.453660845756531
13.887924194335938,2.6048543453216557,-0.8411855697631836,-0.6714995503425599,4.1328935623168945,1.1148489713668825
16.85791778564453,0.5468482971191406,-2.0965621471405034,-0.6385332345962524,3.912721395492554,0.9669929146766664
18.161365509033203,-1.3820096254348757,-3.8823304176330566,-0.5146540403366089,3.5308487415313725,1.0410568714141846
18.443529129028324,-3.095767736434937,-5.294635295867921,-0.4805222153663635,2.9675941467285156,1.3982440233230593
18.777156829833984,-4.5529632568359375,-6.24300241470337,-0.5206883549690248,2.3434486389160156,1.9995878934860232
16.179052352905277,-3.752931356430054,-9.247019767761232,-0.7334294319152832,1.6329296827316286,2.6972491741180424
11.318852424621584,-2.1921820640563965,-11.635549545288086,-1.18510639667511,0.5839142799377441,3.2670543193817143
32.93586730957031,-4.491795539855957,-11.79115390777588,-0.7067902088165283,-0.3003242015838623,2.4379436969757085
85.12888336181642,19.880113601684574,24.682086944580078,1.6427410840988161,-1.0289342403411865,-2.5229680538177495
22.715946197509766,-12.558539390563967,-1.2447655200958252,0.692547380924225,4.571203231811523,-1.2170119285583496
5.553384780883789,-16.701786041259766,17.938461303710938,1.989710807800293,2.871674776077271,0.36823517084121704
-8.979345321655273,23.616840362548828,21.748815536499027,0.9411010146141053,3.0646383762359624,-0.4516795873641968
-1.343415141105652,-15.00145149230957,11.449432373046875,0.6889832019805908,2.1236999034881596,-0.9435077905654907
2.1345031261444096,-1.182526469230652,11.583477020263672,0.6027474999427797,0.7186967134475708,-0.32820624113082886
4.31144905090332,8.05568027496338,13.521096229553224,0.053101398050785065,0.10362675040960313,-0.18000581860542297
5.941534042358398,-1.7871472835540771,9.398512840270998,-0.06764300912618638,-0.2782907187938691,-0.007287683896720409
6.693230628967285,-2.0553598403930664,8.225071907043459,-0.05074824392795563,-0.08919044584035875,0.11886423826217651
6.129162311553956,-3.1671481132507324,7.695294857025147,0.061569023877382285,0.0553736537694931,0.09566819667816162
5.80668830871582,-3.361668109893799,8.230730056762695,0.17457215487957004,0.2930763363838196,0.04443204030394555
4.887832164764405,-1.649227023124695,8.887929916381836,0.2567510306835175,0.37216189503669744,-0.005443125031888485
4.777225494384766,-0.5160340666770936,9.625396728515625,0.1879275292158127,0.3539758324623108,0.01492236088961363
4.432366371154785,-0.3333587646484375,9.956894874572756,0.07037539035081865,0.28595054149627686,0.0849711000919342
4.256350517272949,-1.3625324964523318,9.875054359436037,-0.007635151967406273,0.18650080263614657,0.12764769792556763
4.225938320159913,-1.8778828382492068,9.59062385559082,-0.04142722114920617,0.08781564980745317,0.106773242354393
4.1580824851989755,-1.7590806484222412,9.77775764465332,-0.06280368566513062,-0.01085180137306452,0.06452232599258423
4.506972312927246,-1.6290676593780518,9.909233093261719,-0.08972571790218353,-0.09005139023065568,0.04687504842877389
4.523514747619629,-1.8131468296051025,9.513739585876467,-0.11192066967487335,-0.13677386939525607,0.05821434408426285
4.8377652168273935,-1.5617752075195312,9.468201637268068,-0.14528542757034302,-0.18787679076194763,0.06149942800402642
3.7653355598449707,-2.224759101867676,8.462713241577148,-0.16148680448532104,-0.22947145998477939,0.062402963638305664
6.459385871887207,-1.3195632696151736,10.084029197692873,-0.15825095772743225,-0.26105687022209173,0.094932459294796
4.543558597564698,-2.0295233726501465,8.990456581115724,-0.12961567938327792,-0.32867246866226196,0.07702017575502397
5.006345748901367,-1.8606772422790527,9.014692306518555,-0.16237571835517883,-0.18984192609786987,0.1490740925073624
4.371934413909913,-2.5470356941223145,8.647986412048342,-0.1191612407565117,-0.32423126697540283,0.05430936440825463
6.141250133514405,-1.503098726272583,9.439590454101562,-0.14025148749351501,-0.19082857668399814,0.12661521136760714
4.468962192535401,-2.3177163600921635,8.68160152435303,-0.07558279484510423,-0.275429368019104,0.03928270563483239
5.440572738647461,-1.6778948307037354,9.157981872558594,-0.13103589415550232,-0.11329998075962067,0.13137324154376986
4.413224697113038,-2.800606489181519,8.713139533996584,-0.0801042765378952,-0.22968678176403048,0.020049389451742172
4.671046733856202,-2.0208749771118164,8.849947929382326,-0.08495842665433885,-0.17680874466896057,0.04593491554260254
4.938989639282227,-2.0604214668273926,9.1082239151001,-0.0973714143037796,-0.22455452382564547,0.037029899656772614
4.832487106323242,-2.2610657215118413,8.916519165039062,-0.09565326571464539,-0.1960413157939911,0.04227666929364205
4.431935787200929,-2.841317415237427,8.80712413787842,-0.08736980706453325,-0.25564849376678467,-0.007046639453619719
4.714205265045167,-2.6992375850677495,8.900938987731935,-0.059888672083616264,-0.24956998229026794,-0.04222864657640457
4.7694549560546875,-2.799394130706787,8.755166053771974,-0.019941860809922222,-0.25211745500564575,-0.0803271308541298
4.927553176879883,-2.594521999359131,8.593029022216797,0.02332860603928566,-0.2843427062034607,-0.12834082543849948
5.109204769134522,-2.038066625595093,8.81869888305664,0.03011889196932316,-0.26001203060150146,-0.12423799186944963
5.242987632751465,-2.1708533763885502,8.710900306701662,0.036752853542566306,-0.24242570996284485,-0.11594773828983307
4.979681968688965,-2.1365950107574467,8.78342914581299,0.0368691198527813,-0.2288687825202942,-0.1171591952443123
5.001383304595948,-2.101415395736695,8.675812721252443,0.03337442502379418,-0.23693774640560153,-0.12464345991611481
4.53821897506714,-2.1997737884521484,9.009890556335451,0.045211561024188995,-0.29586890339851385,-0.14515361189842224
4.28391981124878,-2.3349242210388184,9.331230163574219,0.029344217851758007,-0.3995007276535034,-0.18914970755577087
4.694755077362061,-1.9102132320404053,9.401681900024414,-0.0008496196242049336,-0.5301049351692201,-0.2237360179424286
4.896903514862061,-1.7324814796447754,9.222356796264648,-0.027118045836687088,-0.6230951547622681,-0.2502873837947846
4.365303039550781,-1.0606442689895632,9.395924568176271,-0.05593954026699066,-0.7854470610618592,-0.27815043926239014
5.255681514739991,-1.0070607662200928,9.382930755615234,-0.1277105659246445,-0.9589202404022217,-0.2540917992591858
5.041409492492676,-1.3966426849365234,9.361711502075195,-0.15566582977771762,-1.133676528930664,-0.23586247861385348
4.392263889312745,-1.1341164112091064,9.69047260284424,-0.22478622198104858,-1.3349697589874268,-0.23807249963283542
4.488278388977051,-1.3329944610595703,9.644325256347656,-0.32273441553115845,-1.639799237251282,-0.27571654319763184
4.35459852218628,-2.459885597229004,9.771255493164062,-0.34032493829727173,-1.923021197319031,-0.31100705265998846
4.390764236450195,-2.0698411464691167,9.792997360229492,-0.22261548042297363,-2.3128478527069096,-0.342692494392395
5.231383323669434,-2.3630003929138184,9.30648422241211,-0.22475375235080722,-2.657819032669068,-0.4198111295700073
5.211291790008546,-1.741786241531372,9.054935455322266,-0.2040134519338608,-3.073493480682373,-0.4319263398647309
5.098848819732667,-1.6034212112426758,9.053228378295898,-0.2174142599105835,-3.5139329433441167,-0.4070031344890595
5.81428337097168,-2.2053375244140625,8.849538803100586,-0.2431538701057434,-3.963964700698853,-0.3749500513076782
6.138593196868897,-1.6679213047027588,9.294791221618654,-0.2856762111186982,-4.433719158172608,-0.31726300716400146
7.567934036254883,-1.3550174236297607,9.554195404052734,-0.34422478079795843,-4.853165626525879,-0.26212927699089056
8.634790420532227,-1.9769210815429688,10.791224479675295,-0.4443477392196655,-5.099788188934327,-0.1549898535013199
11.199318885803224,-3.2139410972595215,12.034962654113771,-0.4538044333457947,-5.0976223945617685,-0.07548771798610687
12.935580253601076,-4.201455116271973,11.824438095092773,-0.4060237109661103,-4.902016162872315,-0.05997072160243988
16.290058135986328,-5.084740161895753,12.613555908203125,-0.12255748361349107,-4.699031829833984,-0.1796345263719559
20.68692398071289,-6.137514591217042,13.221316337585451,-0.0746450647711754,-4.355052947998047,-0.335455060005188
24.717044830322266,-5.810741901397706,9.46310043334961,-0.1475427746772766,-3.964570760726929,-0.5332654714584351
27.837083816528324,-6.585343837738038,0.9366933703422547,-0.2302922010421753,-3.6798696517944336,-0.9013360142707826
31.134672164916996,-7.462131023406983,-1.6757235527038574,-0.04135759174823761,-3.97519326210022,-1.2846126556396484
33.23613739013672,-7.362816333770753,-0.010737210512161255,0.18379199504852295,-3.7108724117279057,-1.5770477056503298
32.40849304199219,-7.031662940979004,-1.9223475456237793,0.30016216635704046,-4.028766632080078,-1.671821713447571
43.391124725341804,-8.457231521606445,11.559497833251953,0.39069643616676336,-3.649779081344605,-1.8974075317382812
32.82411193847656,-5.8533902168273935,13.277636528015138,0.14439994096755981,-2.2325065135955815,-1.6508231163024902
27.753911972045902,-3.4768531322479252,11.896060943603516,-0.44237661361694336,-1.4725180864334109,-1.4876145124435427
20.943578720092777,-3.5385236740112305,11.097822189331055,-1.0227419137954714,-0.8712114095687866,-1.4281023740768435
15.273787498474123,-4.066601276397706,9.929213523864748,-1.447782278060913,-0.6508402824401855,-1.4158171415328982
10.951602935791016,-6.1939969062805185,10.078348159790039,-1.3561743497848513,-0.5435917377471924,-1.5187605619430544
7.481780529022218,-7.345725536346436,10.913756370544435,-0.7757986187934877,-0.4681435227394104,-1.6374917030334473
5.557443618774414,-6.104924201965332,12.298571586608888,-0.10068677365779877,-0.22637663781642917,-1.6714463233947754
3.5651576519012456,-4.248690605163574,13.384790420532227,0.36782628297805786,0.29658418893814087,-1.5972522497177126
0.8552913665771484,-2.9929058551788335,13.443567276000977,0.5538097023963929,1.0218873023986816,-1.4502931833267214
-2.848294019699097,-2.372198343276978,11.955019950866701,0.5794440507888794,1.7368417978286745,-1.28355348110199
-7.512530326843262,-2.530422449111939,8.555658340454102,0.6939647197723389,2.1853778362274174,-1.1847407817840576
-11.280657768249513,-2.307283401489258,5.023126602172852,0.8436347246170044,2.1866893768310547,-1.1297250986099245
-12.252521514892578,-1.0689454078674316,3.6829605102539062,0.7944644689559937,1.9309221506118777,-1.0084538459777832
-11.51188373565674,-0.6148011088371278,3.9722969532012944,0.5009292364120483,1.7433542013168337,-0.7563934922218324
-10.358953475952148,-1.4140501022338867,5.187106132507324,0.147032305598259,1.7802319526672363,-0.4110433161258698
-9.836284637451172,-2.6954867839813237,5.620333194732667,-0.04058368504047394,2.015249252319336,-0.029092909768223766
-10.420098304748537,-3.365449190139771,4.717499732971191,0.012583519332110884,2.2866005897521973,0.3239345252513886
-11.039635658264162,-2.3660748004913335,3.2069945335388184,0.08099920302629472,2.4530463218688965,0.6584405899047852
-10.665566444396974,-1.0241805315017702,2.2316393852233887,-0.03241448849439621,2.5154330730438237,0.9863224029541016
-9.101736068725586,-0.7066941261291504,2.4795122146606445,-0.25735002756118774,2.6204018592834473,1.3020750284194949
-7.313285827636719,-1.1940436363220215,2.999961137771607,-0.381816178560257,2.851226329803467,1.5866013765335085
-5.726222991943359,-1.4282798767089844,3.072834014892578,-0.3498183190822602,3.1780080795288086,1.840651035308838
-4.6857876777648935,-0.2377525717020035,2.1729044914245605,-0.2920998632907868,3.4823312759399414,2.0706336498260502
-3.8406684398651127,1.7848502397537234,0.9455683827400209,-0.4001736044883728,3.670091152191162,2.2463057041168217
-1.789264440536499,2.4660460948944096,0.8352772593498231,-0.6423372626304628,3.7479748725891113,2.3125493526458745
1.699699878692627,1.941338300704956,1.8386907577514648,-0.7680940628051758,3.8484051227569585,2.2722985744476323
4.76663637161255,2.25118350982666,1.999039888381958,-0.7106248736381532,4.017400741577148,2.1317164897918706
7.75701665878296,2.758678197860718,1.0250140428543093,-0.6970224380493164,4.163189888000488,1.8991934061050417
11.383124351501467,1.2695184946060183,-0.009518958628177643,-0.6731471419334413,4.155729293823242,1.6115292310714724
15.047603607177734,-0.3571900427341462,-0.6488605737686157,-0.4773205220699311,4.009154319763184,1.332911491394043
17.937540054321293,-1.6014028787612917,-1.7321102619171143,-0.26570203900337225,3.7893896102905273,1.1741565465927126
18.69619369506836,-2.899165630340576,-3.982537984848023,-0.13736267387866977,3.432993650436402,1.2369837760925293
16.70176506042481,-3.032647848129273,-7.4523420333862305,-0.20398645102977755,2.782257556915283,1.5617276430130007
15.632766723632812,-3.6143198013305664,-9.43685817718506,-0.5810246467590332,1.8299435377120974,2.086638689041138
12.984216690063477,-4.077301979064941,-12.133966445922852,-0.9358492493629457,0.7402666807174683,2.663003206253052
23.26071357727051,-6.476422309875488,-11.830373764038086,-1.0876917839050293,-0.4498792290687561,2.8440830707550053
90.7503662109375,16.334564208984375,15.97529411315918,1.1395400762557986,-1.3774690628051758,-2.128480672836304
45.82488250732422,-1.839843511581421,7.030748844146729,1.2297372817993164,4.290570735931397,-1.753268122673035
-1.049521327018738,-21.133031845092777,2.544491767883301,1.4316276311874392,2.8542256355285645,0.21215410530567172
-2.1538226604461674,26.57884788513184,24.28783226013184,1.0731369256973269,3.4554779529571538,-0.03481360524892807
2.1376206874847417,-13.687403678894045,16.274776458740234,0.3954823613166809,3.2983772754669194,-0.8977512121200562
0.22343544661998752,-8.185762405395508,8.505215644836428,0.973030984401703,2.509221076965332,-0.5016603469848633
2.7265326976776127,5.291990756988526,13.535344123840334,0.7949917912483216,1.6033897399902344,-0.3374225199222565
-0.47984167933464056,0.46995532512664795,12.705740928649904,0.41427955031394964,0.7344996333122255,-0.3585031032562256
4.24647092819214,0.7895537614822388,11.086741447448732,0.16579771041870117,0.11605242639780046,-0.198469340801239
6.231069087982179,0.5263983011245728,9.603638648986818,0.07778899371623993,-0.09276104718446733,-0.08349070698022844
6.253844261169434,-2.228193759918213,8.209153175354006,0.06024951860308648,0.03792867809534073,-0.005554107483476401
5.7901883125305185,-3.2053451538085938,7.911969661712647,0.18908922374248507,0.20245204865932467,-0.06142853945493698
5.314992427825929,-1.7563136816024782,8.842817306518555,0.2524464428424836,0.33604907989501953,-0.08995274454355241
4.680716514587402,-0.3815812766551972,9.626833915710451,0.22135290503501892,0.3231941163539887,-0.053149152547121055
4.1972503662109375,-0.7058680653572084,9.891991615295412,0.1376836597919464,0.2505475580692292,-0.023385830223560333
4.433490753173828,-1.0841675996780398,9.681070327758789,0.08611134439706804,0.16165320575237277,-0.014221616089344025
4.616490840911866,-1.1825317144393923,9.56289291381836,0.04654061794281006,0.09446974843740465,-0.0011172075755894184
4.643898010253906,-1.092774033546448,9.690358161926271,0.0019160790834575891,0.02154272608458996,0.02695836685597897
4.523865222930909,-1.3459606170654297,9.67041873931885,-0.01975721307098866,-0.038382433354854584,0.035322260111570365
4.491670608520508,-1.3743137121200564,9.58106803894043,-0.044393397867679596,-0.10817176103591919,0.04110508784651757
4.727989196777344,-1.097170948982239,9.732188224792482,-0.09181777387857439,-0.17491936683654785,0.05710460618138314
4.598717212677003,-1.2443976402282715,9.565331459045412,-0.11178526282310486,-0.2339674085378647,0.07344710081815721
4.152955055236816,-1.9003498554229736,9.061162948608398,-0.12391529232263566,-0.31960517168045044,0.04322795197367669
5.597617626190186,-1.0367347002029421,9.858937263488771,-0.14191877841949463,-0.32397031784057617,0.07268460839986803
4.567681789398194,-1.7760953903198242,9.219667434692383,-0.14314022660255432,-0.3381175100803376,0.0801270455121994
5.0147671699523935,-1.7847795486450195,9.395289421081545,-0.1535085141658783,-0.45010259747505194,0.01737349666655064
4.486649513244629,-2.0951995849609375,8.596433639526367,-0.12184035778045654,-0.42832460999488836,0.02678719535470009
6.001096725463867,-1.0529707670211794,9.366056442260742,-0.13851271569728854,-0.3522556126117707,0.07879401743412018
3.813872814178467,-2.665276050567627,7.832697868347168,-0.07824373990297319,-0.37783384323120117,0.043398495763540275
6.5425310134887695,-1.2660192251205447,9.53885269165039,-0.06358164548873901,-0.3520673215389252,0.014168326742947103
4.146195411682129,-2.190701961517334,8.520442962646484,-0.015377546660602094,-0.36909645795822144,0.006538265850394965
5.80005979537964,-0.933866322040558,9.635299682617188,-0.09404777735471727,-0.3358213603496552,0.04533559828996658
4.28875732421875,-1.9511166810989382,9.078162193298342,-0.0682801753282547,-0.3636793792247773,0.047956980764865875
4.2717957496643075,-2.297487735748291,9.017735481262209,-0.09062310308218004,-0.559948205947876,-0.06665928661823273
5.691750049591065,-1.578035831451416,9.307954788208008,-0.09370668232440948,-0.4652767479419709,-0.049174316227436066
4.490359783172608,-2.3617353439331055,8.441973686218263,-0.08312129974365234,-0.4687798023223877,-0.06637107580900194
5.765883445739746,-1.7404237985610964,8.541875839233398,-0.015287356451153755,-0.6299898028373719,-0.15678784251213074
5.906339645385742,-0.8922691345214844,8.903078079223633,-0.03105330467224121,-0.42834350466728216,-0.07827609032392503
4.635733604431152,-2.254866123199463,8.415234565734865,-0.009910065680742264,-0.5225425362586976,-0.08192199468612671
5.7664198875427255,-1.351046085357666,8.768185615539553,-0.007863108068704605,-0.4811743497848511,-0.09008166939020158
5.342403411865234,-1.8470569849014284,8.694416999816896,-0.010707682929933073,-0.45633888244628906,-0.06906052678823472
5.260942459106445,-1.9483094215393066,8.727570533752443,-0.013683139346539976,-0.48724228143692017,-0.09646044671535492
4.407635211944581,-2.208847284317017,8.803868293762209,0.0027635814622044563,-0.5675585865974427,-0.14309540390968323
4.612534523010254,-2.3704841136932377,9.320405960083008,0.054000135511159904,-0.7755622267723085,-0.2345128357410431
5.057236194610597,-1.9273707866668701,9.21876621246338,0.06261666119098663,-0.888937532901764,-0.28591471910476685
5.223884582519531,-1.3649288415908816,9.625355720520021,0.055881068110466,-1.0158609151840212,-0.28213170170784
4.5600647926330575,-2.003167152404785,9.14753532409668,0.07882662862539293,-1.2628247737884521,-0.3603281676769257
5.997100830078125,-0.617546796798706,9.536604881286623,0.06052099168300629,-1.401663064956665,-0.33280727267265325
4.656030178070069,-1.8817315101623535,9.216136932373047,0.07064811140298845,-1.645576000213623,-0.3819431364536286
5.5671586990356445,-0.7076500654220581,9.31108283996582,0.05744372308254242,-1.8619288206100466,-0.35191026329994207
5.813972473144531,-1.3286292552947998,8.975434303283693,0.028115672990679744,-2.0844907760620117,-0.35197308659553533
5.453260898590089,-1.40084445476532,8.984713554382326,0.012041637673974037,-2.3738598823547363,-0.37634643912315374
5.632010936737061,-1.4570751190185547,8.680601119995117,0.029541885480284694,-2.6977691650390625,-0.41391137242317205
5.5494890213012695,-1.6302499771118164,8.693323135375977,0.07381656765937805,-3.0707566738128667,-0.4544265568256379
5.864215373992921,-1.6257582902908327,8.33407497406006,0.0791025534272194,-3.4499311447143555,-0.4536519348621369
6.86558723449707,-0.7683849930763246,8.615384101867678,0.08398282527923584,-3.8785719871520996,-0.43684270977973944
7.441279888153077,-0.30463853478431707,9.091279983520508,0.06962762773036957,-4.238399028778077,-0.35752159357070923
8.24218273162842,0.07142701745033264,9.841560363769531,0.01957896910607815,-4.559015274047852,-0.21114620566368103
9.874711990356445,-1.3799811601638796,10.921436309814453,-0.055535700172185905,-4.760577201843262,-0.09113354235887529
12.365333557128906,-2.202511548995972,11.738089561462404,-0.24439977109432223,-4.632921695709229,0.014695189893245697
15.248565673828125,-2.775492906570435,11.693120956420898,-0.4246852099895478,-4.410628318786621,0.16786970198154452
20.14949989318848,-2.9438221454620366,12.607180595397951,-0.5122562646865845,-4.000218868255616,0.25778612494468695
20.717813491821293,-2.7902362346649174,9.848199844360352,-0.789798378944397,-3.6461212635040288,0.2751821279525757
25.084510803222656,-4.911354064941406,5.917707920074464,-1.0304447412490847,-3.485146760940552,0.024582788348197937
24.149803161621094,-9.306979179382326,-3.1733381748199467,-0.43026301264762884,-3.870563507080078,-0.6070542931556703
28.56295204162598,-9.525142669677734,-1.6428917646408083,0.721760928630829,-4.413774490356445,-1.1169040203094482
28.677566528320312,-9.320281982421875,-1.649982810020447,1.7712956666946413,-4.741873741149902,-1.4395135641098025
31.758804321289062,-6.041084289550781,-0.7423005104064941,2.473744153976441,-5.511442661285401,-1.729551076889038
40.39663314819337,-3.691235065460205,11.729151725769045,2.2701513767242436,-5.13471794128418,-1.8290208578109743
30.98650360107422,-0.6128857135772705,11.334430694580078,1.4473327398300173,-4.06760311126709,-1.5743927955627441
29.106433868408203,0.34227830171585083,12.19145393371582,0.397821307182312,-3.4642312526702885,-1.4898872375488281
26.20134735107422,0.5039948225021362,13.578346252441406,-0.7365682721138002,-2.731888055801392,-1.4688568115234375
23.082027435302734,-0.6934454441070557,13.66586685180664,-1.7139866352081299,-1.982957720756531,-1.4926156997680664
18.45116424560547,-3.8134934902191167,13.450302124023438,-2.1997475624084473,-1.2414466142654421,-1.6182519197463991
14.262041091918945,-8.998310089111328,13.788341522216797,-1.908633351325989,-0.6620888710021973,-1.7103945016860964
10.692442893981935,-12.171333312988281,13.613105773925781,-0.5646120309829712,-0.23479560017585754,-1.752841353416443
6.192876815795898,-9.660991668701172,13.232067108154297,0.846664309501648,0.15104620158672336,-1.7539691925048828
1.8971598148345947,-5.71619462966919,12.896449089050295,1.5415786504745486,0.49595898389816284,-1.6224253177642822
-0.7817333340644838,-2.5119764804840092,13.002328872680664,1.499739646911621,0.893144190311432,-1.3689870834350586
-2.2931921482086186,-1.7100212574005127,13.453197479248047,1.0352703332901003,1.441261410713196,-1.0725195407867432
-3.91269588470459,-3.1776964664459233,13.339645385742188,0.6301782131195068,2.1208140850067143,-0.7699612379074097
-6.680026054382324,-4.680345058441163,11.60749912261963,0.5591291189193726,2.727288961410523,-0.493558555841446
-10.72676181793213,-5.333302974700929,8.531560897827148,0.7556433081626893,3.0265965461730957,-0.2645367085933686
-13.006071090698242,-4.261012554168702,6.394364356994629,0.9162121415138246,3.00192666053772,-0.06284244358539581
-13.694934844970703,-2.077253818511963,5.755007266998292,0.7027860283851625,2.8980917930603027,0.20003946125507358
-12.42755126953125,-1.1315686702728271,6.6476030349731445,0.13049377501010898,2.9460387229919434,0.5416890382766724
-11.482623100280763,-2.4931817054748535,7.107245922088624,-0.3570109903812409,3.2240304946899414,0.9078323245048524
-10.962462425231935,-3.895779371261597,7.092070579528809,-0.45044890046119695,3.56857705116272,1.1945629119873047
-9.721449851989748,-2.990369081497193,7.218369007110597,-0.3994570076465607,3.929135322570801,1.4490417242050173
-8.724481582641602,-1.3055007457733154,6.694538116455078,-0.496687114238739,4.346166133880616,1.6992160081863406
-8.481648445129396,-0.8074508905410767,5.660613059997559,-0.664120078086853,4.685097217559815,1.8886163234710693
-7.449553489685059,-0.6248354911804199,5.703655719757081,-0.7583364248275757,4.8889055252075195,2.0030515193939213
-5.423866271972656,-0.3004572689533234,6.623990535736085,-0.7709773778915405,5.091544628143311,2.041635513305664
-3.1925907135009766,1.0701223611831667,7.689613342285156,-0.8073037266731263,5.35188102722168,2.0672526359558105
-1.433354377746582,2.2572121620178223,7.6771254539489755,-0.9413322806358339,5.62320613861084,2.0470001697540288
0.38412851095199585,2.038875102996826,7.950357913970948,-1.0113047361373904,5.792011737823487,1.9193694591522217
2.8619847297668457,2.3656480312347417,8.70179557800293,-0.904253363609314,5.887445926666261,1.7348251342773438
5.073603153228761,4.133105754852296,9.058948516845703,-0.8400111198425293,5.983300685882569,1.5074363946914675
7.022801399230957,4.620772361755371,9.239727020263672,-0.880389928817749,6.046002864837647,1.1352686882019043
9.229408264160156,3.1225898265838627,9.266277313232422,-0.7543424367904663,6.019523620605469,0.6246126294136048
11.47318744659424,2.5112996101379395,9.772071838378906,-0.4893374145030976,5.856410980224609,0.1634887605905533
13.271180152893068,2.7294900417327885,10.206629753112795,-0.39111971855163574,5.64202642440796,-0.13672448694705966
14.357623100280763,2.7677519321441655,10.660686492919922,-0.4743190705776215,5.357283592224121,-0.3273343741893769
15.997355461120607,2.4127397537231445,11.17913341522217,-0.6600520610809326,5.084964752197266,-0.5074909329414369
18.11879920959473,0.2863572835922241,10.607000350952148,-0.718642294406891,4.880602836608887,-0.658035695552826
19.064054489135746,-1.3654960393905642,8.891539573669435,-0.5514086484909058,4.554004192352296,-0.6635448336601258
18.27791023254395,-0.9207099080085756,6.794125556945801,-0.4045162498950959,3.9773874282836914,-0.528629243373871
18.937730789184574,0.7379112243652344,6.537002086639405,-0.5614622235298158,3.3552505970001225,-0.35082417726516724
19.906494140625,-0.2676460444927216,5.862597465515137,-0.829504132270813,2.9024374485015874,-0.25334805250167847
19.649732589721683,-2.129761219024658,4.13068962097168,-0.8073780536651611,2.465903997421265,-0.21349532902240756
19.176410675048828,-2.287391185760498,2.649407386779785,-0.6083648800849916,1.91377854347229,-0.13365633785724643
18.522413253784183,-1.5675628185272217,1.6813971996307373,-0.4694446921348572,1.3585865497589111,-0.022163750603795055
17.155818939208984,-0.37013635039329534,0.8574936389923096,-0.4749060273170471,0.8334808945655824,0.045038364827632904
17.251836776733402,0.459644079208374,1.6933704614639284,-0.6055235266685487,0.4448878765106201,0.08311323821544647
16.387020111083984,0.9169036149978638,1.8783767223358154,-0.6756231784820557,0.3672530949115754,0.0862516462802887
11.838919639587404,1.3629555702209473,-0.4426923990249634,-0.5840224027633667,0.3614346385002136,0.01821958459913731
6.17420768737793,2.645792722702027,-2.606755256652832,-0.44381457567214966,0.17750127613544467,-0.0815335065126419
2.9214341640472417,3.735792636871338,-1.983001708984375,-0.4055253863334656,0.06379818171262742,-0.10910926014184953
-6.067429542541504,-3.7641983032226562,-11.027725219726562,0.9990965723991395,-1.6040594577789307,0.17666868865489962
-18.89057159423828,11.218095779418945,-0.963642954826355,0.8406853675842285,-3.796847343444824,-0.033155370503664024
45.22056579589844,-2.344471693038941,51.7580909729004,0.2968060672283173,-5.649697303771973,-0.8431816697120668
57.18693161010743,-0.897302508354187,46.45409774780274,0.36524397134780884,-2.443748235702515,-1.3537374734878542
1.9227230548858643,-5.620817661285401,5.91524600982666,-0.09672061353921892,-0.20899862051010132,-0.34020903706550604
-10.242380142211914,-1.6016297340393066,-3.0076267719268803,-0.01717658527195454,-1.570348620414734,0.061933696269989014
3.9161984920501713,1.146515488624573,9.934724807739258,0.326321005821228,-2.011931657791138,-0.3192828297615051
14.995394706726076,-3.954061985015869,14.170245170593263,0.43632915616035467,-1.2824678421020508,-0.7649564743041992
8.136878013610842,-3.7215292453765874,11.511087417602539,0.6377616524696351,-0.5757532119750977,-0.5380588173866273
2.6054852008819585,-0.21441628038883212,9.121083259582521,0.6059094071388246,-0.732000768184662,-0.31766074895858765
6.396853923797608,2.476899385452271,12.399740219116211,0.43587657809257513,-0.6277828216552734,-0.41464766860008245
7.412034034729004,-0.5185388326644897,11.369275093078615,0.4265470504760742,-0.26919457316398626,-0.4817632734775544
4.70466423034668,-2.8397428989410405,9.808212280273438,0.45570179820060736,-0.24498391151428223,-0.3152022063732148
5.007368087768555,-0.3386956155300141,11.012492179870607,0.41575098037719727,-0.25004124641418457,-0.26738485693931585
4.63154411315918,-0.4523967504501343,10.43889904022217,0.36518129706382757,-0.16103893518447876,-0.26418611407279974
4.344581604003906,-1.549041509628296,9.955586433410646,0.3107758164405823,-0.16112060844898227,-0.21220858395099643
4.417544364929199,-0.996989667415619,9.847268104553224,0.3023386895656586,-0.13272419571876526,-0.19143323600292209
4.305514812469483,-0.8544856309890747,9.834819793701172,0.29791232943534857,-0.11649297922849657,-0.16407334804534912
4.556376934051515,-0.9004501700401307,9.976321220397951,0.2588433623313904,-0.09299480170011522,-0.1267375946044922
4.413797378540039,-0.8593049049377441,9.929447174072266,0.22553405165672302,-0.063593827188015,-0.09250370413064958
4.213354110717773,-0.8950013518333436,10.007686614990234,0.19376762211322787,-0.06367631256580353,-0.08097936958074571
4.572315216064453,-0.7941160202026367,10.090041160583498,0.14138405025005343,-0.0522681437432766,-0.057134442031383514
3.939825773239136,-0.5591667294502259,9.730419158935547,0.09913048148155212,-0.048750434070825584,-0.03217025101184845
3.5062737464904785,-0.7895253896713257,9.732319831848146,0.05449068546295166,-0.10840854793787004,-0.04407561197876931
4.2244672775268555,-1.2703262567520144,9.845361709594727,0.034109015017747886,-0.14031550288200378,-0.051869858056306846
4.61754035949707,-1.017319917678833,9.883469581604006,0.010816924273967743,-0.12671566009521484,-0.0265838447958231
4.5185394287109375,-1.0812196731567383,9.762056350708008,-0.0066167013719677925,-0.09968233853578569,-0.0013067529071122408
4.479311466217042,-1.1505365371704102,9.716882705688477,0.004521378781646491,-0.07877418398857117,0.004273585043847561
4.141130447387695,-1.2453793287277224,9.750132560729982,0.009485695511102676,-0.07398792356252672,0.005567263811826706
4.169035434722901,-1.3394540548324587,9.69369411468506,-0.002035724697634578,-0.0802043303847313,0.005550144240260124
4.364365577697754,-1.234375834465027,9.681436538696289,-0.011445301584899427,-0.07738646864891052,0.009233213029801847
4.471856117248535,-1.1004860401153564,9.68794059753418,-0.015184376388788223,-0.06394488364458085,0.015837749466300014
4.1942138671875,-1.0329148769378662,9.625477790832521,-0.021763658151030544,-0.0596671923995018,0.02814058400690556
4.267244338989258,-0.9552363753318788,9.686854362487795,-0.03475832939147949,-0.06897047162055969,0.03718260303139687
4.108017444610597,-1.1717708110809326,9.641039848327638,-0.03160031884908676,-0.06620988994836809,0.030494291335344315
4.04825496673584,-1.517758846282959,9.60674571990967,-0.0376390665769577,-0.08137290924787523,0.01840654201805592
4.44678831100464,-1.1982425451278689,9.673829078674318,-0.0329834558069706,-0.0774654895067215,0.012731279246509077
4.224274635314941,-1.0662446022033691,9.528144836425781,-0.024771237745881084,-0.06680414825677873,0.016091540455818176
4.104715347290039,-1.1541227102279665,9.65809440612793,-0.03768470883369446,-0.07927044481039049,0.02460995316505432
4.171533584594727,-1.1619431972503662,9.56190586090088,-0.05010950565338135,-0.08751215785741807,0.024015123024582866
4.182931900024414,-1.2270119190216064,9.559479713439943,-0.049558710306882865,-0.09237588942050934,0.0194669496268034
4.128134727478027,-1.2719149589538574,9.583642005920412,-0.046240944415330894,-0.09897229820489885,0.009434429928660393
4.260410308837891,-1.3080167770385742,9.533474922180178,-0.043511655181646354,-0.09837007522583008,-0.0001386635849485174
4.263140678405762,-1.1731488704681396,9.471545219421388,-0.03625989705324173,-0.09265666455030443,-0.0036948986817151312
4.076139926910401,-1.1770442724227907,9.447114944458008,-0.034564573317766197,-0.09762732684612274,-0.007016405928879977
4.194317340850831,-1.2567164897918701,9.537358283996584,-0.035653185099363334,-0.10924736410379411,-0.0159277506172657
4.0550031661987305,-1.3011198043823242,9.443020820617678,-0.03071496076881886,-0.11281351745128632,-0.024374457076191906
4.08647346496582,-1.2623918056488037,9.627582550048828,-0.03780478984117508,-0.12780006229877475,-0.03265462443232537
4.2448134422302255,-1.3558195829391482,9.580071449279787,-0.040419857949018485,-0.1492840051651001,-0.038146857172250755
4.188519954681397,-1.1521276235580447,9.556887626647951,-0.04976251348853112,-0.15632893145084384,-0.04079668968915939
4.23365068435669,-1.290595531463623,9.561717987060547,-0.06157949939370156,-0.17221373319625854,-0.04086467251181603
4.137621879577637,-1.3141723871231081,9.57080078125,-0.067313589155674,-0.1805088222026825,-0.05154215544462204
