AccX,AccY,AccZ,GyrX,GyrY,GyrZ
0.00018068522331304848,-2.1189716790104285e-05,0.0003542247286532075,2.6514882733863493e-07,-2.210590288598269e-08,-5.284489361656597e-07
4.791650772094727,-0.5510702133178711,9.40866470336914,0.004761002492159606,-0.002445098478347063,-0.012609277851879598
4.781572818756104,-0.563140869140625,9.368760108947756,0.003962573129683734,-0.0033921594731509686,-0.010498015210032463
4.7798428535461435,-0.5618442296981812,9.396921157836914,0.0024691871367394924,-0.003282136050984264,-0.010460257530212402
4.741618633270265,-0.5765367746353149,9.386930465698242,0.001978161977604032,-0.004458922427147628,-0.01250927709043026
4.764014720916749,-0.5412192940711976,9.412007331848146,0.0004652646312024445,-0.009811826050281525,-0.011246983893215658
4.78276252746582,-0.5234485268592836,9.385647773742678,-0.003637078683823347,-0.01184970233589411,-0.009333650581538679
4.782290458679199,-0.5050241351127626,9.41117572784424,-0.004728250671178103,-0.012290094047784805,-0.007197477389127017
4.787118911743164,-0.563239336013794,9.396702766418459,-0.007547288667410613,-0.01403219345957041,-0.006148725748062134
4.767395973205566,-0.5794355869293213,9.393342971801758,-0.005338013637810946,-0.010708853602409363,-0.007188014220446349
4.786827087402344,-0.5633661150932313,9.405635833740234,-0.00420378101989627,-0.010266264900565147,-0.006272477097809315
4.770726203918457,-0.5631304979324341,9.386444091796875,-0.004406749736517669,-0.009619228541851044,-0.008450343273580076
4.769103527069093,-0.5827527046203613,9.371674537658693,-0.0023611742071807384,-0.008448237553238869,-0.008451192639768125
4.815332412719727,-0.5586541891098022,9.406137466430664,-0.002605815185233951,-0.007223478518426418,-0.009767879731953146
4.802998065948487,-0.5484214425086976,9.38752841949463,-0.0010643587447702885,-0.005671701859682799,-0.008051563985645773
4.784207344055176,-0.5338048934936523,9.407434463500977,-0.0034948294050991535,-0.003995682578533889,-0.005942249670624733
4.77048397064209,-0.5688597559928895,9.369281768798828,-0.005365048535168171,-0.004126009531319141,-0.003504296531900764
4.762298583984375,-0.5890231728553773,9.406302452087404,-0.0035622732248157267,-0.0039915163069963455,-0.007285682018846274
4.770710468292237,-0.6032712459564209,9.370209693908693,-0.0032267170026898384,-0.005100759211927653,-0.0075362357310950765
4.79917049407959,-0.5560158491134644,9.393485069274904,-0.002881177002564073,-0.005326053127646446,-0.007566698361188174
4.786756992340089,-0.5609895586967469,9.393850326538086,-0.0020243262406438593,-0.003982094582170249,-0.006248875521123409
4.774190902709961,-0.5718661546707153,9.373010635375977,-0.000824845104943961,-0.002915984019637108,-0.0072341528721153745
4.761913776397706,-0.5928747653961182,9.393580436706545,-0.0014116367092356088,-0.0027700630016624928,-0.007921546697616577
4.7577056884765625,-0.5792802572250366,9.380826950073242,-0.0002782308729365468,-0.004687976557761432,-0.008614551275968552
4.777686595916749,-0.5584697127342225,9.41691780090332,0.00025984790408983827,-0.006481713615357876,-0.009834631346166136
4.76917314529419,-0.573945701122284,9.396416664123537,0.0010368030052632093,-0.006662232335656882,-0.009625528007745743
4.744657516479492,-0.5885529518127441,9.382147789001467,0.0011935677612200382,-0.005225806497037411,-0.01088065654039383
4.777660846710206,-0.572179913520813,9.405869483947756,0.0004443210491444916,-0.006807039491832256,-0.012090458534657957
4.771516799926758,-0.5838934779167176,9.392768859863281,0.001488866051658988,-0.006416456773877144,-0.011542483232915403
4.789534568786621,-0.5442755222320557,9.370742797851562,0.000818968692328781,-0.006847403943538666,-0.009823833592236044
4.76899003982544,-0.5848387479782104,9.393153190612795,-0.00023268500808626413,-0.005268086213618518,-0.009654945693910124
4.763018608093262,-0.6008000373840332,9.37959957122803,-0.0006649151328019799,-0.00484386645257473,-0.00909573305398226
4.756156444549561,-0.5956523418426514,9.408605575561523,0.001377585344016552,-0.005279747769236565,-0.010771135799586775
4.774205207824707,-0.5897847414016724,9.418787002563477,0.003943700343370438,-0.006236404646188022,-0.01105116680264473
4.755777359008789,-0.5430224537849427,9.438172340393068,0.0009416313841938972,-0.004253196064382792,-0.0114245368167758
4.762631416320801,-0.5612419843673706,9.40714740753174,-0.001143962028436363,-0.008412137627601624,-0.011533807031810285
4.760679244995117,-0.5648187398910522,9.40840816497803,0.0007249088375829161,-0.007717592176049949,-0.009776061400771141
4.7760162353515625,-0.5407536029815674,9.378405570983888,0.0007636676309630275,-0.005179741885513068,-0.009010694921016693
4.754290580749512,-0.5759446620941162,9.389219284057617,-0.0003420391585677862,-0.007068805862218142,-0.008824446238577368
4.760906219482422,-0.5863310098648071,9.394821166992188,-0.0010533049935474994,-0.007518713362514973,-0.009419790469110014
4.757965087890625,-0.6175724267959595,9.39822292327881,0.003269932698458433,-0.00930877961218357,-0.012604814954102041
4.7718825340271005,-0.5373340845108032,9.393096923828125,0.0025884581264108424,-0.010245131328701973,-0.013163707219064237
4.78688669204712,-0.5563514232635498,9.374155044555664,0.0025783227756619453,-0.008864737115800382,-0.013111471198499204
4.780195236206055,-0.5530333518981934,9.408993721008303,0.00462778564542532,-0.005188561510294677,-0.011238491162657738
4.7731947898864755,-0.542697846889496,9.371442794799805,-0.0028365782927721743,-0.005617360118776561,-0.01027771458029747
4.766775131225586,-0.5344221591949463,9.438863754272461,-0.0026220979634672408,-0.00907062366604805,-0.009706308133900167
4.77902889251709,-0.5275787115097046,9.42026138305664,-0.0031103261280804877,-0.009636269882321358,-0.007491958327591419
4.764067649841309,-0.5835882425308228,9.387181282043459,-0.0045383041724562645,-0.008444120176136495,-0.006641842424869537
4.767482280731202,-0.5881428718566895,9.392803192138672,-0.002558537293225527,-0.007685359567403793,-0.008519978262484075
4.751630306243897,-0.5923091173171997,9.40346908569336,-0.0013935260940343142,-0.007611184846609832,-0.009720014408230782
4.766234874725343,-0.5938715338706971,9.397340774536133,-3.539738827385008e-05,-0.006899152416735888,-0.009244778193533422
4.750753402709961,-0.5809121131896973,9.376815795898438,0.004859026521444321,-0.007372827734798194,-0.011413732543587685
4.7672624588012695,-0.5793482661247255,9.390713691711428,0.003890735562890768,-0.004048204980790615,-0.01079277601093054
4.76045036315918,-0.5593435764312744,9.387199401855469,0.005216042511165142,-0.005213046912103892,-0.01066426932811737
4.745624542236328,-0.5677046775817871,9.416454315185547,0.002382438397035003,-0.004376595839858055,-0.010848663747310638
4.733799934387207,-0.6078308224678041,9.413961410522461,0.0024980460293591022,-0.005808792542666198,-0.011235423386096954
4.741691112518311,-0.5670068860054017,9.398088455200195,0.0037155279424041514,-0.00797110889106989,-0.013651587069034576
4.730059146881104,-0.5827940106391908,9.417298316955568,0.002476030727848411,-0.00997144728899002,-0.01258035469800234
4.741679668426515,-0.5411886572837831,9.377365112304688,0.001906614867039025,-0.010299012064933777,-0.01383432000875473
4.7708539962768555,-0.5933998823165894,9.403112411499023,0.0017518927343189716,-0.009322122670710089,-0.014342647045850754
4.749091148376465,-0.5461809039115907,9.42524528503418,0.003989842254668475,-0.010053557343780996,-0.01482306607067585
4.7884259223938,-0.5462233424186708,9.415149688720703,0.0014022464165464046,-0.01030455157160759,-0.01380883250385523
4.77349853515625,-0.5856955051422119,9.413382530212404,0.0025600332301110034,-0.008805448189377785,-0.012721288949251175
4.751167297363281,-0.5552797317504883,9.413970947265625,0.0038786048535257582,-0.005266479216516018,-0.012874112464487554
4.732606887817383,-0.6279364228248597,9.399842262268068,0.006389128044247627,-0.0064410679042339325,-0.014949041418731214
4.752799510955811,-0.554672122001648,9.38393783569336,0.006993497256189586,-0.005383416078984737,-0.017243536189198497
4.7373623847961435,-0.5797983407974243,9.428797721862795,0.006623346824198962,-0.007499813102185726,-0.01775505766272545
4.762969017028809,-0.5005901455879213,9.409146308898928,0.004820004105567932,-0.008133753202855589,-0.015811793506145477
4.742788314819336,-0.5251511931419374,9.411212921142578,0.002891731215640903,-0.007007875014096499,-0.015012111514806747
4.746219635009766,-0.5714696049690248,9.417952537536623,0.0012671396834775808,-0.006675739772617817,-0.012961820699274542
4.745749473571777,-0.5482686758041382,9.417810440063477,0.0029433616437017918,-0.006510192062705756,-0.012687974609434606
4.759018421173097,-0.6331878900527954,9.420194625854492,0.0015709412982687356,-0.0061165764927864075,-0.01564198918640614
4.733427524566651,-0.5634645223617554,9.413616180419922,0.006048328708857299,-0.007803381886333228,-0.017386484891176224
4.759352684020996,-0.5535670518875122,9.415551185607912,0.004683199804276229,-0.010659469291567802,-0.017027454450726513
4.690484046936035,-0.5030208826065063,9.352828979492188,0.0046530114486813545,-0.011167694814503195,-0.016729326918721203
4.671345233917237,-0.5500168204307557,9.41172504425049,-0.0010128588182851674,-0.01602715626358986,-0.019242005422711376
4.69776725769043,-0.5869842767715454,9.395380020141602,-0.0006043017492629589,-0.021859159693121914,-0.022497862577438354
4.777247905731202,-0.5024163722991943,9.419805526733398,0.0006033561076037587,-0.02363981306552887,-0.020191146060824398
4.760805606842042,-0.5766938328742982,9.373552322387695,-0.0015908005880191924,-0.018474318087100983,-0.020587053149938583
4.71113157272339,-0.6954862475395204,9.37746810913086,0.002518747467547655,-0.019942047074437145,-0.026598770171403885
4.700071811676026,-0.6455984115600586,9.387600898742678,0.009927178733050825,-0.01870927400887013,-0.036265283823013306
4.787056922912598,-0.5391123294830322,9.38449001312256,0.010166305117309095,-0.01968071609735489,-0.040821988135576255
4.748631954193116,-0.5550916194915771,9.400579452514648,0.012841178104281425,-0.01647555641829968,-0.04009677097201348
4.809902191162109,-0.48751354217529297,9.428813934326172,0.011224274523556234,-0.015115579590201378,-0.03809065744280816
4.7644925117492685,-0.5542857050895692,9.43423080444336,0.008846377022564413,-0.012475539930164816,-0.03549443185329437
4.829846382141113,-0.5266070365905762,9.418126106262209,0.010107303969562055,-0.007672236301004887,-0.03317904099822045
4.836440563201905,-0.4923396706581116,9.428747177124023,0.009006217122077942,-0.001518858480267227,-0.029244402423501018
4.788732528686523,-0.46006524562835693,9.428571701049805,0.009006659500300886,-0.0020979451946914196,-0.02442731894552708
4.76600217819214,-0.46475532650947576,9.424330711364748,0.0039053508080542088,-0.008847808465361595,-0.01987472362816334
4.749890327453613,-0.5269927978515625,9.413854598999023,0.000583904329687357,-0.009672534652054312,-0.016967207193374634
4.742618083953858,-0.5679123401641846,9.424991607666016,0.0015973167028278112,-0.011926294304430487,-0.01766099222004414
4.747297763824464,-0.5853875875473022,9.403162002563477,0.004094942938536406,-0.012628166005015373,-0.019542073830962185
4.798567295074464,-0.5355516672134399,9.374275207519531,0.008545923978090286,-0.011899841949343681,-0.021265419200062755
4.796388626098633,-0.5069255232810975,9.4058313369751,0.00750622944906354,-0.009502874687314034,-0.019219702109694484
4.800442695617676,-0.4994136095046997,9.407722473144531,0.005921232048422099,-0.004955577664077282,-0.016138389706611633
4.808602809906007,-0.5232390761375428,9.426639556884766,0.007671138271689415,-0.0027924224268645052,-0.014115260913968086
4.788594722747804,-0.4693280756473542,9.400041580200195,0.007761768531054259,-0.0027314478065818553,-0.011816024780273438
4.760617256164551,-0.5557588338851929,9.406675338745117,0.005048552062362433,-0.0016775955446064472,-0.009647750295698644
4.75528621673584,-0.5336709618568422,9.377293586730959,0.005991264712065459,-0.0022519375197589397,-0.011456236243247986
4.700408935546875,-0.5649681687355043,9.392602920532227,0.0066130957566201696,-0.00253646494820714,-0.016253365203738216
4.741458892822266,-0.5411629080772401,9.416374206542969,0.009752233512699606,-0.007274621631950141,-0.018363896757364273
4.761919021606445,-0.5212572216987611,9.426689147949219,0.00743772415444255,-0.0067434292286634445,-0.016455734148621563
4.789313316345215,-0.5073763728141786,9.434248924255373,0.006810347083956004,-0.007068331353366375,-0.017552144825458527
4.787707328796387,-0.4832330346107483,9.425490379333498,0.004165995866060257,-0.006445846986025573,-0.014566188678145409
4.770268440246582,-0.46743452548980713,9.415153503417969,0.004969225265085697,-0.003494500182569027,-0.00970179494470358
4.749629020690918,-0.5081873536109925,9.407446861267092,0.0006698970100842417,-0.003954007290303707,-0.005683390889316798
4.715160846710206,-0.541218638420105,9.426241874694826,0.0008040625834837556,-0.00594672141596675,-0.005961833987385035
4.722846984863281,-0.6166263818740845,9.39381504058838,0.0021881023421883583,-0.006476897280663253,-0.009814364835619926
4.7375226020813,-0.520849347114563,9.41780757904053,0.0044754669070243835,-0.00655091367661953,-0.013977346010506155
4.746703147888184,-0.5117269158363343,9.425013542175295,0.004140793811529876,-0.0055899303406476974,-0.01314156223088503
4.767585754394531,-0.48803800344467163,9.415246009826662,0.00613324111327529,-0.00469556450843811,-0.010970370844006538
4.773759365081788,-0.4749850630760193,9.431835174560547,0.004322284832596779,-0.00261037121526897,-0.009016526862978935
4.742225170135499,-0.5189282894134521,9.419252395629883,0.0015607093228027227,-0.0038547760341316466,-0.004624025896191597
4.734069347381593,-0.5327898263931274,9.390657424926758,-0.00048096801037900155,-0.0019689383916556835,-0.006732190493494273
4.685149669647218,-0.566760778427124,9.379357337951662,-1.0344134352635592e-05,-0.004979565273970366,-0.010676951147615911
4.721892833709718,-0.5718893408775331,9.434845924377443,0.0031003146432340145,-0.00820137467235327,-0.011097731068730354
4.742250919342042,-0.573888897895813,9.404751777648928,0.004634850658476353,-0.009045969694852829,-0.01599683798849583
4.738358497619629,-0.5010020136833192,9.417759895324709,0.0066505935974419126,-0.008976271376013756,-0.015066073276102545
4.751956462860108,-0.4685362279415131,9.416908264160156,0.005397859029471874,-0.006728765089064837,-0.014527055434882643
4.737664222717285,-0.49369555711746216,9.3953332901001,0.004661113489419223,-0.006334251724183559,-0.013077274896204473
4.7515058517456055,-0.4913432002067566,9.443682670593263,0.004404637496918441,-0.008809556253254415,-0.011572234332561493
4.765254974365234,-0.5130599737167358,9.457741737365724,0.0020455655176192526,-0.007533316500484943,-0.01030960585922003
4.737215042114258,-0.5351427197456361,9.412235260009766,0.001148156705312431,-0.009601449593901634,-0.009702913463115692
4.748712539672852,-0.49265074729919434,9.407275199890138,0.0020133454818278555,-0.006728719919919968,-0.009236252866685392
4.719302177429199,-0.5348478555679321,9.420989990234375,0.002160848351195455,-0.005277955438941718,-0.010395441204309464
4.769060134887695,-0.4958217740058899,9.398687362670898,0.0032437294721603394,-0.005414788145571948,-0.011454140767455101
4.767348766326905,-0.5090187191963197,9.43398952484131,0.004538543522357941,-0.006026437971740962,-0.009512816555798055
4.755854129791261,-0.49934658408164984,9.403656005859375,0.005012628622353077,-0.004302193876355887,-0.008890466764569283
4.752081871032715,-0.5097153782844545,9.45524787902832,0.0030984168406575923,-0.004545323085039855,-0.006323183886706829
4.760678291320801,-0.4853173494338989,9.451916694641115,0.0020424467511475086,-0.0033519815187901263,-0.007032786495983601
4.741406440734863,-0.4982427656650544,9.444412231445312,-0.0007723297458142042,-0.006352862808853389,-0.002645512809976936
4.785355567932129,-0.4875776767730713,9.431032180786133,-0.003569983411580324,-0.006675560493022204,3.3742719097062945e-05
4.779820919036866,-0.5504515171051025,9.440025329589844,-0.0018719832878559828,-0.0054679494351148605,0.00042788588325493043
4.81901502609253,-0.5108439922332764,9.486274719238281,-0.005237926729023457,-0.008508277125656607,0.0026931841857731342
4.862370967864991,-0.47873783111572266,9.458506584167482,-0.0036182559560984377,-0.008446808904409409,0.008027428761124611
4.851420879364015,-0.39535290002822876,9.46062755584717,-0.007464713882654906,-0.005165155045688152,0.017539085820317272
4.652356147766113,-0.4726462662220002,9.554226875305178,-0.01382125820964575,-0.01085647474974394,0.021497849375009537
4.5532331466674805,-0.5821808576583862,9.553181648254396,-0.00326414336450398,-0.07345451414585114,0.001000500866211951
5.03998613357544,-0.2758115530014038,9.554541587829592,-0.004329015966504813,-0.08024036884307861,0.020685464143753052
4.853206634521484,-0.252117395401001,9.443432807922365,-0.02029514126479626,-0.06193498522043228,0.06990010291337968
4.70845651626587,-0.6455648541450502,9.301608085632326,-0.025804895907640457,-0.04576440155506134,0.07758330553770067
4.639265537261964,-0.601615309715271,9.357894897460938,-0.026857988908886913,-0.038519538938999176,0.0681745931506157
4.684241771697999,-0.78242164850235,9.326054573059084,-0.026107709854841232,-0.032298427075147636,0.05982737615704537
4.734985828399659,-0.9603139758110047,9.418786048889162,-0.006301669869571925,-0.0326191708445549,0.03853612020611764
5.026297569274902,-0.6662341952323915,9.36284065246582,-0.000434362911619246,-0.023957297205924988,0.030341597273945812
4.893405914306641,-0.5687275528907777,9.271446228027344,-0.0076878522522747525,0.01045997068285942,0.029687637463212017
4.9176039695739755,-0.37578338384628296,9.285907745361328,-0.008409840986132622,0.03258579596877099,0.03838791325688363
4.964442253112793,-0.3976624608039856,9.355878829956055,-0.017268849536776546,0.07042045891284943,0.04848181828856469
5.053585052490234,-0.5270938277244569,9.249516487121584,-0.025082699954509735,0.11249203979969025,0.06055401638150216
4.884101867675781,-0.5050396919250488,9.225168228149414,-0.0358230508863926,0.15292704105377197,0.07279083877801897
4.670346260070801,-0.4815442860126496,9.248910903930664,-0.03318403661251068,0.17190189659595492,0.07418330758810045
4.519691944122315,-0.5536061525344849,9.196547508239748,-0.023619215935468674,0.18148766458034518,0.06752713024616241
4.5000104904174805,-0.5414221286773682,9.2650842666626,-0.013715565204620361,0.17916661500930786,0.06037403270602227
4.566999912261964,-0.5894627571105957,9.33022212982178,-0.006358559709042312,0.17363524436950684,0.06647261232137681
4.626460075378418,-0.6032096147537231,9.327349662780763,-0.005030222702771426,0.17284515500068665,0.07039095461368561
4.652531623840332,-1.0284740924835205,9.226520538330078,0.012415887787938118,0.18350426852703097,0.06335152685642242
4.518234729766847,-1.309573531150818,9.10243320465088,0.07033748924732208,0.20709973573684692,0.04018114879727364
4.481431484222413,-1.0807558298110964,9.302604675292969,0.15504430234432223,0.23540106415748596,-0.005442683119326831
4.533305644989015,-1.125046730041504,9.335865020751953,0.20173133909702304,0.234299898147583,-0.04510004073381424
4.633718013763429,-0.7853269577026367,9.546887397766115,0.24676696956157687,0.2374381721019745,-0.062200378626585014
4.502843379974366,-0.3169682323932648,9.80755615234375,0.24778354167938232,0.22570198774337769,-0.05055258050560952
4.33241891860962,-0.10440561920404436,10.024935722351076,0.2099248170852661,0.18246133625507358,-0.0291488878428936
4.22420358657837,0.029818475246429443,10.030242919921875,0.15039072930812838,0.12443859875202179,0.00048444722779095173
4.115570068359375,0.004871010780334473,9.930058479309084,0.0867697522044182,0.062237448990345,0.01352402474731207
4.1449995040893555,-0.04067295789718628,9.875338554382326,0.0291302353143692,0.0007187247974798083,0.016377346590161327
4.320250988006593,-0.32194721698760986,9.671792030334474,-0.009715933352708817,-0.03539088740944863,0.009761262685060501
4.466569423675538,-0.4095895290374756,9.634003639221193,-0.020001268014311794,-0.04971075803041458,0.0045001935213804245
4.396306991577148,-0.5254213213920594,9.520554542541506,-0.027226638048887253,-0.05783901736140252,-0.0017981440760195255
4.052943706512452,-0.7620992064476014,9.430044174194336,-0.027377514168620113,-0.07405012100934984,-0.019521310925483704
4.1539578437805185,-0.9914672374725342,9.40628433227539,0.0005730782286264003,-0.09079696238040924,-0.06743677705526353
4.603039264678956,-0.4785978496074677,9.564486503601076,0.021181879565119747,-0.09428040683269501,-0.09422332048416138
4.665695667266847,-0.3353120386600495,9.545433044433594,0.019375961273908615,-0.07935968786478044,-0.09296843409538269
4.755022048950195,-0.24641230702400208,9.514238357543945,0.01241122465580702,-0.06335157901048662,-0.07796989381313324
4.212726116180421,-0.15737751126289368,9.356597900390625,-0.006663697306066752,-0.0513925701379776,-0.0633823648095131
4.293177604675293,-0.2541348040103913,9.603008270263672,-0.03658284991979599,-0.07674246281385423,-0.062441948801279075
4.555389404296875,-0.05591048300266266,9.69274425506592,-0.07348161935806274,-0.09745059162378313,-0.04191238433122635
4.550772190093995,-0.3355630040168762,9.561639785766602,-0.1062987744808197,-0.10291683673858643,-0.02249548025429249
4.437081336975098,-0.5577197074890137,9.497568130493164,-0.1229902282357216,-0.10500974953174591,-0.01560755167156458
4.65737247467041,-0.4913610816001892,9.40571403503418,-0.12407975643873216,-0.10090182721614838,-0.01561022736132145
4.459877014160156,-0.5835933685302734,9.42434597015381,-0.12384525686502458,-0.09320709109306335,-0.009781464003026487
4.740002155303956,-0.42057597637176514,9.568594932556154,-0.12825269997119906,-0.09686508029699327,-0.004291653633117676
4.756287097930909,-0.417458176612854,9.593932151794435,-0.13375891745090487,-0.09654329717159271,0.00763555383309722
4.5831665992736825,-0.624743402004242,9.572135925292969,-0.1371346414089203,-0.10179317742586137,0.010773261077702047
4.620873928070069,-0.8177776336669922,9.500142097473146,-0.12014924734830858,-0.10226359963417053,-0.0037083283532410864
4.509655952453613,-0.5432284474372865,9.419552803039553,-0.1105092838406563,-0.10269468277692796,-0.009887546300888062
4.437937259674073,-0.5395946502685547,9.541394233703615,-0.12008362263441087,-0.11091986298561096,-0.010143951512873174
4.637799739837647,-0.6908050179481507,9.482483863830568,-0.11518634110689165,-0.12244352698326111,-0.01612623780965805
4.639245986938477,-0.548357665538788,9.460325241088867,-0.1003352552652359,-0.11969897896051408,-0.01949094608426094
4.5596466064453125,-0.535521686077118,9.521437644958498,-0.10356528311967851,-0.1254570931196213,-0.01616567000746727
4.5761518478393555,-0.697670876979828,9.47863292694092,-0.10676122456789018,-0.13791945576667786,-0.02085591293871403
4.359066963195801,-0.6874923706054688,9.49089241027832,-0.11039812117815019,-0.1557203233242035,-0.03385550528764725
4.484008312225343,-0.44199877977371216,9.62606430053711,-0.12169658392667772,-0.1935993731021881,-0.04152430966496468
4.595661163330078,-0.6744001507759095,9.54145908355713,-0.14132510125637057,-0.22722603380680087,-0.03453464061021805
4.681084632873535,-0.7921295166015625,9.50230121612549,-0.1198427826166153,-0.2601250112056733,-0.04900045692920685
4.703106880187988,-0.5979104042053223,9.530868530273438,-0.10655239224433899,-0.2857252657413483,-0.04679854586720467
4.519853115081788,-0.5201228260993959,9.461274147033693,-0.1121642366051674,-0.30906999111175537,-0.04053184017539025
4.189971446990968,-1.1240247488021853,9.263898849487305,-0.07714559882879259,-0.33867266774177557,-0.08680883049964905
4.329877376556397,-1.1184134483337402,9.542094230651857,0.012905407696962357,-0.3931743800640107,-0.16690540313720703
4.789898872375488,-0.6846048831939697,9.659297943115234,0.037650074809789665,-0.4529879093170166,-0.20181098580360413
4.717961788177491,0.0438193678855896,9.740450859069826,0.0322205238044262,-0.5353174209594727,-0.17552210390567782
4.4305572509765625,-0.2047431766986847,9.784024238586428,-0.003270749701187015,-0.6262053847312928,-0.14631447196006775
4.111905574798585,-0.6124788522720337,9.814203262329102,-0.01518423855304718,-0.7657772898674012,-0.17168092727661133
4.404949188232422,-0.5232444405555726,9.83498764038086,-0.02377540431916714,-0.9548937082290649,-0.1883237361907959
3.896361112594605,-1.1590331792831423,9.642877578735352,-0.04602189362049103,-1.1315466165542605,-0.20308470726013184
4.092053413391113,-1.2067244052886963,9.559164047241211,-0.039571478962898254,-1.3573312759399414,-0.21750931441783908
4.120978832244874,-0.8480452299118042,9.61312484741211,-0.04493933171033859,-1.569770932197571,-0.20280703902244568
3.8240809440612793,-0.9965002536773682,9.645688056945803,-0.04647165909409524,-1.7828943729400635,-0.20988062024116516
4.541067123413086,-0.43335455656051636,9.74573612213135,-0.05442299693822861,-2.0430157184600835,-0.16894835233688354
5.092348575592042,-0.047993943095207214,9.920934677124023,-0.06057695299386978,-2.301333427429199,-0.20617307722568515
5.029729843139648,-0.18938559293746948,9.795685768127443,-0.02808273211121559,-2.5611412525177006,-0.2327413558959961
5.686745166778565,-0.1894913911819458,10.219816207885742,0.01284404005855322,-2.845597267150879,-0.253167986869812
5.177728652954102,0.03251542150974274,10.194107055664062,0.06299847364425659,-3.138734102249146,-0.28933680057525635
5.08548641204834,-0.5994189977645874,10.175622940063477,0.06381750851869585,-3.421759366989136,-0.2764521837234497
4.803777217864991,-1.0505712032318115,9.50569248199463,0.10435859858989716,-3.7738678455352788,-0.32911741733551025
4.578848361968995,-2.123916864395142,8.752657890319826,0.3770256340503693,-4.236076354980469,-0.5354244709014893
6.120404243469238,-2.4098105430603027,9.310354232788086,0.8108750581741333,-4.8932814598083505,-0.785713791847229
8.243447303771974,-1.9299306869506836,10.509904861450195,0.9524706006050111,-5.344794750213624,-0.6826670169830322
11.048913955688477,-2.5512185096740723,11.291880607604982,0.9908189177513124,-5.579874038696289,-0.7032507061958314
13.500856399536133,-3.6723713874816895,11.355780601501467,1.144360065460205,-5.500772953033448,-0.846360743045807
17.08980751037598,-3.1796529293060307,13.346620559692383,1.3904130458831787,-5.245412349700929,-1.0731909275054932
22.5093994140625,-2.5890889167785645,14.178197860717773,1.5654277801513672,-4.753853797912598,-1.2630759477615359
27.896167755126953,-3.1540253162384038,11.094242095947266,1.7659649848937988,-4.185941219329835,-1.4704835414886475
30.40168952941895,-2.4573678970336914,3.0278041362762456,2.162054300308228,-4.046420097351074,-1.9289836883544922
34.159801483154304,-6.128795623779297,4.123594284057617,3.4356219768524174,-4.081531524658203,-2.4386031627655034
35.03610610961915,-2.5475597381591797,6.583470344543457,4.197065830230714,-3.144875764846802,-2.2440857887268066
39.23357009887696,6.075263500213624,8.174767494201662,3.5775973796844487,-2.803250789642334,-1.6343666315078738
44.333335876464844,5.708257675170898,22.22864532470703,1.670635461807251,-1.5649627447128298,-0.8504218459129335
24.70134735107422,2.657548427581787,15.186849594116211,0.029109477996826172,-0.32711085677146917,-0.2551407217979431
17.698070526123047,-0.03510202467441559,10.026266098022461,-1.1124074459075928,-0.4384918808937073,0.15750430524349215
14.678455352783203,-3.4829254150390625,8.717810630798342,-1.2757563591003418,-0.700662910938263,0.2524075508117676
12.65462875366211,-5.555320262908936,9.005919456481935,-0.7608460783958436,-0.8176225423812866,0.0898989588022232
11.388666152954102,-4.21815061569214,10.133093833923342,0.03468867018818856,-0.654143214225769,-0.1264343708753586
8.658331871032717,-2.2035801410675053,10.658275604248047,0.6067202091217041,-0.263741135597229,-0.2569138109683991
5.726981163024902,0.1120820939540863,10.400388717651367,0.7766733765602113,0.20780062675476074,-0.33391395211219793
2.0940549373626713,1.7342112064361572,9.047718048095703,0.6501660346984863,0.6706175208091737,-0.42420205473899847
-1.5175962448120117,2.179372072219849,6.7865052223205575,0.3210183382034302,1.023264288902283,-0.5159398317337036
-4.064212322235108,1.352414608001709,4.519407272338867,0.05321366339921951,1.1650304794311523,-0.5719396471977235
-5.877676010131836,-0.03906099498271942,2.4598338603973393,0.01583069935441017,1.1747680902481081,-0.5531030893325806
-6.426708221435547,-0.49791014194488525,2.162680864334107,0.14752092957496643,1.1439868211746218,-0.47103616595268255
-5.557049274444581,-0.1843850016593933,3.252460479736328,0.19291439652442932,1.2490550279617312,-0.31465399265289307
-4.459362030029297,-0.11437401175498962,4.727583885192871,0.10981526225805284,1.5568624734878542,-0.1266860067844391
-4.645366668701172,-0.5247523188591005,4.767458438873292,-0.04530644044280053,2.0141396522521973,0.07270777970552446
-5.621494293212891,-1.1040481328964236,3.5163044929504395,-0.11487103998661041,2.415848016738892,0.23584772646427157
-6.7147369384765625,-1.033586025238037,1.5792295932769775,-0.14741699397563937,2.6368675231933594,0.37129983305931097
-7.259805202484132,-0.8311138749122621,0.3410612046718598,-0.2182539701461792,2.6688427925109863,0.48025706410408026
-6.471085548400879,-0.9255588650703431,0.5594531297683716,-0.3525686264038086,2.648206472396851,0.6014872789382935
-5.150330543518066,-0.933223068714142,1.3284313678741455,-0.49903532862663275,2.7512402534484863,0.7591692209243774
-4.185389995574952,-1.0509563684463503,1.6287250518798828,-0.6124451160430908,2.9722101688385014,0.9222580194473267
-3.776728630065918,-0.5987306237220765,0.8210638761520386,-0.6871291995048524,3.200936079025269,1.1014976501464844
-3.8602681159973145,0.0708160623908043,-0.4791203737258911,-0.7540891170501709,3.2847011089324956,1.242276668548584
-2.2439041137695312,0.9208275079727173,0.14326055347919467,-0.8919321894645692,3.295313835144043,1.3640336990356445
-0.6493316292762757,1.6201118230819704,0.9614674448966981,-1.0281243324279785,3.431385755538941,1.4387891292572021
-0.026769926771521572,2.614128589630127,0.8649862408638002,-1.100969433784485,3.5572841167449956,1.3947741985321045
1.1895782947540283,3.2590029239654545,0.9678273797035218,-1.1576370000839236,3.5852537155151367,1.2352689504623415
3.3142960071563725,2.9443595409393315,1.7905995845794678,-1.1295253038406374,3.5797762870788574,0.9808835983276367
4.887558937072754,3.2613677978515625,2.4649176597595215,-1.0385093688964844,3.590608358383179,0.7023290395736694
6.650761127471925,3.4693551063537598,3.1855239868164062,-1.0439608097076416,3.607621192932129,0.43401178717613226
8.72274398803711,3.0944168567657475,3.4247629642486577,-1.0510797500610352,3.5863230228424077,0.2393859624862671
10.438745498657227,2.5842504501342773,2.656193733215332,-0.9836902618408203,3.482677221298218,0.11947569996118547
11.403863906860352,2.6700980663299565,1.2897597551345827,-0.891911804676056,3.2409610748291016,0.08653206378221513
11.98527240753174,2.4187271595001225,0.3942299485206604,-0.7986786961555482,2.8168261051177983,0.151933491230011
12.53125858306885,2.362851142883301,1.1655205488204958,-0.7139490842819214,2.3266999721527104,0.33322250843048096
14.142662048339844,3.8523387908935547,2.8498442173004155,-0.6990513801574707,1.9198197126388552,0.5472547411918641
16.062210083007812,4.34534502029419,3.663530588150025,-0.746428370475769,1.5960944890975954,0.6659961938858032
16.655130386352543,3.835394859313965,4.047311782836914,-0.6117389798164369,1.3055130243301394,0.644956111907959
16.89997100830078,4.452323436737061,4.912678241729737,-0.4124152660369873,1.034469246864319,0.5306375026702881
16.517379760742188,4.373503208160401,5.1455750465393075,-0.29940679669380194,0.8609589338302612,0.3547608256340027
14.66859245300293,3.2646517753601074,3.890389680862427,-0.15875861048698425,0.6639268994331361,0.17807605862617493
12.50547981262207,2.6111292839050293,2.368261098861695,0.030753841623663906,0.3506517112255097,0.0688876360654831
9.027102470397951,2.276575326919556,-0.290682315826416,0.20013515651226046,-0.034993529319763184,-0.0114008029922843
3.6964042186737065,1.5923311710357666,-3.945150852203369,0.33515736460685736,-0.673446774482727,-0.028467629104852676
50.53082656860352,14.849600791931154,33.0247802734375,-2.809253215789795,-1.4955271482467654,1.18992280960083
15.494373321533203,-1.5700984001159668,3.5519602298736577,-0.6174372434616089,2.6562118530273438,0.66149240732193
9.769898414611818,-1.2904112339019775,14.489859580993654,-1.141150712966919,0.9355887770652772,0.905787467956543
1.2038778066635134,-3.726450681686402,12.479888916015625,-0.3047832250595093,1.3663839101791384,0.5129290223121644
-2.479686498641968,-4.094958305358887,13.322880744934084,0.06205233186483383,0.5466716885566713,0.22682905197143555
0.3744402527809143,-9.159049034118654,11.793185234069826,0.5048073530197144,0.1472722589969635,-0.4925282299518586
5.043228626251222,-1.8381712436676025,10.582374572753906,0.43777951598167425,-0.18492448329925537,-0.42212983965873724
6.611916542053223,5.155962467193604,9.530895233154297,0.09933246672153473,-0.293773502111435,-0.3664027154445649
8.102514266967773,1.9277590513229372,8.419911384582521,-0.12004771828651428,-0.13208945095539096,-0.09364798665046692
7.1532697677612305,-0.12101737409830095,8.208580017089844,-0.1401117742061615,0.06469154357910156,0.12403991073369981
5.981794357299805,-1.4408570528030398,8.497074127197266,-0.15647360682487488,0.2189402133226395,0.1876244843006134
5.2518630027771005,-2.2684578895568848,8.7510986328125,-0.1443905532360077,0.2945264279842377,0.14621813595294955
5.012840747833253,-1.580452084541321,9.093970298767092,-0.07457873225212097,0.288347214460373,0.06700293719768524
5.190072536468507,0.17293725907802585,9.374844551086428,-0.07393889129161835,0.2684910297393799,0.08603791147470476
4.883380889892578,-0.25270202755928045,9.532191276550295,-0.0714712366461754,0.22573739290237427,0.1478262394666672
4.652484893798828,-1.2082092761993408,9.542593002319336,-0.06906743347644806,0.1505951136350632,0.1533727198839188
4.652733325958253,-1.7302627563476562,9.44046401977539,-0.03930523991584778,0.08926133066415788,0.09662437438964844
4.805630683898926,-1.3613882064819336,9.378999710083008,-0.00880635716021061,0.055647432804107666,0.036388318985700614
4.856712341308594,-0.7432889938354492,9.46548080444336,-0.00894549395889044,0.01855374500155449,0.01692074723541737
4.9293365478515625,-0.5321026444435121,9.469402313232422,-0.029643176123499874,-0.02365729957818985,0.03252134472131729
5.018115520477296,-0.5804691910743714,9.285696029663086,-0.0536964274942875,-0.058838486671447754,0.055999856442213065
4.741201877593995,-0.5418860912322998,9.565000534057617,-0.08787857741117479,-0.10358945280313493,0.0721818059682846
4.650843143463136,-0.7226266860961914,9.550756454467773,-0.11946503072977067,-0.17305561900138855,0.07801540940999986
4.7624664306640625,-0.8449742794036865,9.515510559082031,-0.1325025707483292,-0.24813753366470337,0.06770922243595123
4.910914421081543,-0.9966123700141908,9.317300796508789,-0.14085868000984192,-0.306826800107956,0.08076635003089905
5.075854778289796,-0.2508089542388916,9.378599166870117,-0.17978183925151828,-0.3578543961048127,0.10685758292675018
5.046027660369874,-0.3990018963813782,9.316658020019531,-0.2329753041267395,-0.4150818288326264,0.1375581920146942
5.143385887145996,-0.7528663873672485,9.220182418823242,-0.254108875989914,-0.4491574168205261,0.12100033462047577
5.113399505615234,-0.9316074252128602,9.176555633544922,-0.2582803666591645,-0.472103476524353,0.09685162454843523
5.25593376159668,-1.0076481103897097,9.083750724792482,-0.2528774440288544,-0.483673244714737,0.08160015940666199
5.355424880981445,-1.1350111961364746,8.98916530609131,-0.27635166049003607,-0.495663046836853,0.06621611863374711
5.3851728439331055,-1.2850866317749023,8.880191802978516,-0.2879984378814697,-0.4990470707416535,0.05614656582474709
5.350820064544679,-1.075590252876282,8.878821372985842,-0.28889855742454534,-0.4963139295578003,0.04213996604084969
5.333648681640625,-1.3115962743759157,8.86530876159668,-0.2941269874572754,-0.4951344132423401,0.038870122283697135
5.433777809143066,-1.5940812826156618,8.759802818298342,-0.2513326704502106,-0.4830019474029541,0.037096593528985984
5.5428361892700195,-2.015108585357666,8.521339416503906,-0.16971874237060547,-0.4473122656345368,-0.016438847407698635
5.715190887451172,-1.99812912940979,8.409662246704102,-0.0962575450539589,-0.39771366119384766,-0.038746234029531486
5.745167255401612,-1.306399464607239,8.461284637451172,-0.07443679124116899,-0.34801569581031805,-0.04858021438121796
5.560643672943116,-1.2023112773895264,8.639083862304688,-0.09979128092527391,-0.30691367387771606,-0.04281276836991311
5.390782833099366,-1.738047003746033,8.721489906311037,-0.0986432656645775,-0.2909155488014221,-0.046636492013931274
5.415369987487793,-1.8698663711547852,8.742996215820312,-0.06504767388105394,-0.3005223274230957,-0.08075246959924699
5.568192005157472,-1.9293136596679688,8.57699489593506,-0.0315639190375805,-0.3124364912509919,-0.13634547591209412
5.690083980560304,-1.8383567333221436,8.461650848388672,0.010850309394299986,-0.3112771511077881,-0.1948821991682053
5.912456989288331,-1.3273580074310303,8.432760238647461,0.02662288397550583,-0.29453191161155706,-0.22945962846279147
5.803210258483887,-0.9284220933914185,8.624248504638672,0.025193333625793457,-0.2754052579402924,-0.21954596042633057
5.551689147949219,-0.5668125152587891,8.900751113891602,-0.00046204359387047594,-0.29360142350196844,-0.1822752058506012
5.549501895904542,-0.9984996318817139,8.85866451263428,-0.006538316141813994,-0.3378358483314514,-0.16214586794376376
5.393756389617921,-1.2330610752105713,8.717487335205078,0.019149338826537136,-0.38268768787384033,-0.1783691644668579
5.620166778564453,-0.9709391593933105,8.730383872985842,0.05292649567127228,-0.4451912939548493,-0.1976856291294098
5.625944614410401,-1.1649599075317383,8.756484031677248,0.045045070350170135,-0.48525089025497437,-0.19478087127208712
5.591927528381348,-1.3151135444641113,8.62685775756836,0.07130188494920732,-0.5353384017944336,-0.2226284891366959
5.808415412902832,-1.3982436656951904,8.500038146972656,0.08781400322914124,-0.5890265107154847,-0.2529036700725556
5.867715835571289,-0.9661924839019775,8.543718338012695,0.09641622751951219,-0.6378804445266724,-0.2483373731374741
5.859669208526612,-0.47491228580474854,8.747312545776367,0.07146910578012468,-0.6959819197654725,-0.20920321345329285
5.655543327331543,-0.5594121217727661,8.863595962524414,0.02180199697613716,-0.7694335579872132,-0.17252737283706665
5.521385669708253,-1.1578885316848757,8.62539577484131,0.012117930687963964,-0.8578295707702637,-0.18301773071289062
5.9890594482421875,-0.9976835846900941,8.529870986938477,0.020509725436568264,-0.956397533416748,-0.19805692136287692
6.233486175537109,-1.0531895160675049,8.28361225128174,0.04109394550323486,-1.0212960243225098,-0.20887754857540133
6.045289039611816,-1.0007842779159548,8.477864265441896,0.04563489183783532,-1.0904736518859863,-0.2255029529333115
5.916493892669679,-1.4817194938659668,8.578254699707031,0.07925201952457428,-1.1913825273513796,-0.274075597524643
5.6736721992492685,-1.711332440376282,8.871946334838867,0.09897209703922272,-1.3427852392196657,-0.3450995683670044
6.12469482421875,-1.8020793199539187,8.392709732055664,0.19563771784305575,-1.4538968801498415,-0.39997315406799316
6.507983207702637,-0.354955941438675,8.711294174194336,0.23768401145935059,-1.5886269807815554,-0.41673707962036133
5.898065090179444,-1.2872750759124756,8.724376678466797,0.2778815925121308,-1.7364585399627686,-0.44920212030410767
5.962498664855957,-1.3065540790557861,8.680382728576662,0.3428177237510681,-1.9486712217330935,-0.4925227165222168
5.726179122924805,-1.391092658042908,8.29937267303467,0.45469629764556885,-2.1814351081848145,-0.5779239535331727
6.127017498016358,-0.6382753849029541,8.04348659515381,0.5055128931999208,-2.455665111541748,-0.6330109238624574
6.582706928253175,-0.8416110873222352,7.940214633941651,0.556229829788208,-2.785260438919068,-0.6406788229942323
6.086347579956055,-0.5916998386383057,7.933602809906007,0.63028883934021,-3.1592223644256596,-0.6650464534759521
6.685601234436035,-0.5578755736351014,7.667170047760011,0.6983027458190918,-3.5292091369628906,-0.6946985125541688
7.157113075256348,-1.101222038269043,7.579015254974366,0.7478452920913696,-4.100286006927491,-0.5187418460845947
8.010448455810547,0.06227684020996094,7.900655269622804,0.8408071994781494,-4.6084866523742685,-0.5694884657859803
8.937566757202148,0.8166486620903016,7.911360263824464,0.8105743527412416,-5.036527633666992,-0.4995244443416596
10.496891975402834,0.9682837724685669,8.73654079437256,0.6634888648986816,-5.308042526245117,-0.2515020668506623
12.330174446105959,1.8952800035476687,9.030790328979492,0.505997121334076,-5.293520927429199,-0.08591035753488542
13.393622398376467,0.9233536720275879,8.563332557678224,0.44406014680862427,-4.944144725799561,-0.06140838935971261
18.65487289428711,0.46342623233795166,9.587603569030763,0.5020972490310669,-4.361711978912354,-0.2828124165534973
21.527242660522464,-1.3562641143798828,7.572646617889405,0.3852811753749848,-3.6074178218841557,-0.18217208981513977
24.895669937133793,-0.047906287014484406,7.4432878494262695,-0.25483837723732,-3.0477542877197266,0.1218819245696068
20.535499572753906,1.4720871448516846,3.1749498844146733,-1.0443085432052615,-2.5169544219970703,0.019802965223789215
16.83767318725586,-1.3858668804168701,-7.193059921264648,-1.4622977972030642,-2.9676852226257324,-0.427361935377121
23.56230926513672,-1.5919466018676758,-8.245203018188477,-0.9337306022644043,-3.8304080963134766,-1.147694230079651
25.298748016357422,-3.096104145050049,-7.50263261795044,0.0021323300898075104,-4.068982601165772,-1.9182689189910889
22.18510246276856,-3.233232736587525,-7.922263145446777,0.972731351852417,-4.505324840545655,-2.6868970394134526
30.18901634216309,-0.7635911703109741,-3.5178225040435795,1.8628363609313965,-5.453861713409425,-3.471252918243408
33.278575897216804,2.0689017772674565,7.664361000061035,1.8045042753219607,-4.932229518890382,-3.652256965637207
25.342645645141605,3.9579803943634038,6.45771598815918,1.1127363443374636,-4.321475028991699,-3.6854584217071538
24.13688468933106,3.6983764171600346,8.308147430419922,0.16610991954803467,-3.9784071445465092,-3.66650938987732
19.130216598510746,1.5087528228759766,8.228825569152834,-0.7115806341171265,-3.5154283046722417,-3.5530261993408203
15.36606216430664,-1.877734899520874,8.459892272949219,-1.2642650604248047,-3.255392551422119,-3.507886171340943
12.224236488342287,-6.019038677215577,8.822385787963867,-1.1872411966323855,-3.051619529724121,-3.487897157669068
10.917897224426271,-8.47520637512207,9.823688507080078,-0.5354017019271851,-2.8215119838714604,-3.3655164241790776
10.939702987670898,-9.236846923828125,12.220068931579592,0.3526835143566132,-2.3034210205078125,-3.1644833087921147
10.088208198547365,-8.405645370483398,15.210366249084474,1.2082970142364502,-1.376502275466919,-2.886250734329224
8.33442497253418,-5.781030178070069,16.647161483764652,1.5772411823272705,-0.12499547749757768,-2.3916873931884766
5.823975086212159,-3.2141978740692143,17.042428970336918,1.3046981096267702,1.22285795211792,-1.7778966426849365
1.8764135837554932,-2.564995288848877,15.320049285888672,0.607167422771454,2.3140530586242676,-1.1388896703720095
-3.0140037536621094,-2.4343066215515137,12.163185119628906,-0.14636702835559848,2.9089925289154057,-0.5706572532653809
-6.79576301574707,-3.4439866542816167,8.588488578796388,-0.7060107588768006,3.088425636291504,-0.10087954252958299
-7.542986869812012,-4.417763233184815,6.512608528137207,-0.9331911206245423,3.0299644470214844,0.27416086196899414
-6.725770950317383,-4.45447587966919,5.805978298187257,-0.8943469524383545,2.92249608039856,0.6263275146484375
-6.082927227020265,-4.278510093688965,5.946740627288819,-0.7344992756843568,2.841833829879761,0.959126353263855
-5.155768394470215,-3.0566964149475098,6.837066650390625,-0.589749038219452,2.8840622901916504,1.2617470026016238
-4.102423667907715,-1.658558487892151,7.900963306427003,-0.6035928726196289,3.0562202930450444,1.5252867937088015
-3.1566169261932377,-0.6496555805206299,8.731210708618164,-0.7516513466835023,3.3477277755737305,1.7030471563339236
-1.8934596776962282,-0.00628228485584259,9.158091545104982,-0.9625414609909058,3.730593681335449,1.79057252407074
-1.0486505031585693,0.6179476380348207,9.19536876678467,-1.1813865900039675,4.150928497314453,1.795981049537659
-0.8806517720222474,1.324190378189087,8.619206428527834,-1.3989249467849734,4.541090965270996,1.7638683319091797
-1.0906015634536745,1.687912940979004,7.501042366027832,-1.605669140815735,4.817988395690918,1.7179557085037234
-1.1040105819702148,1.936113238334656,6.627210140228272,-1.7608013153076172,4.9274702072143555,1.6321169137954714
-0.1712968349456787,2.2024970054626465,6.670968055725098,-1.894627571105957,4.920535564422608,1.5302700996398926
1.6801118850708008,2.1465306282043457,7.54885196685791,-2.006115436553955,4.920636653900147,1.4379881620407107
3.5549697875976562,1.937406301498413,8.485776901245117,-2.0518591403961186,5.03360652923584,1.3340736627578738
4.881369590759277,2.0111219882965092,8.952853202819826,-2.047472715377808,5.205283641815186,1.2077908515930176
5.5242815017700195,2.264737129211426,9.11097526550293,-2.0666561126708984,5.354535579681397,1.0788328647613525
6.507058620452882,2.461625099182129,9.339845657348633,-2.155323028564453,5.445000171661378,0.963541328907013
7.797921657562257,1.4017689228057861,9.280165672302248,-2.239242792129517,5.494565010070801,0.9094358086586
8.808773994445803,0.30420550704002386,9.136744499206545,-2.158222198486328,5.459955215454102,0.9432381987571717
9.309770584106445,0.6185202002525331,9.538261413574219,-1.9902948141098025,5.318580627441406,1.0220986604690554
10.656457901000977,2.3955080509185795,10.653117179870607,-1.968478083610535,5.119402885437012,1.113283634185791
12.683032989501953,3.46040678024292,11.806117057800295,-2.1527802944183354,4.937078475952148,1.1605387926101687
14.371809959411623,3.6250452995300293,12.564041137695312,-2.3547921180725098,4.770587921142578,1.1359604597091677
15.88821029663086,4.201179504394531,12.364617347717287,-2.4660391807556152,4.574470043182374,1.0657391548156738
16.858985900878906,5.444827079772949,11.724364280700685,-2.521777629852295,4.237399578094483,0.9480761885643006
17.970539093017578,7.00889778137207,11.732698440551758,-2.568029165267945,3.807796001434326,0.7191724181175233
19.505289077758793,8.393574714660646,11.915369987487795,-2.5549457073211674,3.4657409191131596,0.3607538342475891
20.35236358642578,10.319467544555664,11.531902313232422,-2.499110221862793,3.2306454181671147,-0.08547678589820862
21.35857200622559,12.592831611633303,10.692691802978516,-2.583848476409912,2.998083829879761,-0.4981298744678498
23.104385375976562,13.704535484313967,9.74824333190918,-2.8385412693023686,2.8222551345825195,-0.7780273556709291
24.176099777221683,12.38103771209717,7.99867868423462,-2.934104204177857,2.8489549160003667,-0.9730018377304077
22.927093505859375,10.298438072204592,4.939104557037354,-2.7483541965484624,2.9046554565429688,-1.1300722360610964
21.043775558471683,8.542540550231935,1.3631540536880495,-2.346856117248535,2.7633078098297124,-1.2780786752700808
18.535438537597656,10.143938064575195,-2.44165587425232,-2.110195398330689,2.408447265625,-1.3728438615798952
17.019891738891605,11.678662300109865,-5.974058151245117,-2.2604415416717534,1.834724545478821,-1.2917888164520264
17.020278930664062,9.482716560363771,-8.105854988098146,-2.277495622634888,1.1910374164581299,-1.147149443626404
16.48851585388184,6.570854187011719,-9.158599853515625,-1.6414242982864382,0.5360910892486572,-1.0288937091827393
11.56154537200928,-3.5447952747344975,-7.0556793212890625,0.6059098243713379,-0.27972605824470526,-0.8509474992752075
-2.0762870311737065,3.6121571063995366,2.9489641189575195,2.1774449348449707,-0.3160967230796814,-1.0807837247848513
-6.301111698150636,1.8342654705047607,19.799129486083984,1.2727864980697634,-0.9129140377044678,-1.2001367807388308
1.3428555727005007,-14.061294555664062,13.427453994750977,1.5147643089294434,-1.7220050096511843,-1.17666232585907
9.664723396301271,-12.804509162902834,7.90762758255005,1.8195478916168213,-2.5119397640228276,-1.5597968101501465
22.283153533935547,-7.058868408203125,13.662859916687013,1.8721327781677246,-2.3926687240600586,-1.137789607048035
19.591382980346683,5.119162559509277,19.278789520263672,1.1180226802825928,-1.2103894948959353,-0.1392931044101715
7.995200157165527,10.181687355041506,14.29415798187256,0.5710268616676332,-0.36821234226226807,-0.0951959639787674
3.6960494518280034,9.040926933288576,11.765935897827148,0.503022313117981,-0.5344786047935487,-0.2359527349472046
6.26871156692505,3.6576302051544194,12.35100841522217,0.2352791726589203,-0.41010212898254395,-0.23695664107799533
4.275621891021729,-1.5008952617645264,9.296507835388185,0.18573611974716187,-0.26801022887229925,-0.12066896259784698
4.190000534057617,-0.5491271018981934,9.601809501647951,0.11505630612373352,-0.30929562449455267,0.05417531356215478
4.674421787261964,0.11367034912109375,9.475841522216797,0.025575481355190277,-0.27838012576103216,-0.04087027162313461
4.035846710205078,-2.6285121440887456,9.23541259765625,0.04278425499796868,-0.2724380195140839,-0.0932474136352539
5.75440263748169,-0.7257230877876283,10.473164558410646,0.14062397181987765,-0.28959715366363525,-0.06560636311769487
5.24576234817505,-0.4098880887031555,10.003852844238281,0.22676078975200656,-0.14473429322242737,-0.19862312078475952
5.374926567077637,-1.1258746385574343,10.005059242248537,0.23245178163051608,-0.10102199018001556,-0.22352115809917453
5.342972755432129,-0.4855418801307678,9.932441711425781,0.21618744730949402,-0.04186712205410004,-0.18981273472309115
4.810985565185547,-0.7821068167686464,9.936638832092287,0.1589028239250183,-0.04188447073101998,-0.1737215220928192
4.994729995727539,-0.7417045831680298,9.72504997253418,0.14992117881774902,-0.06315306574106218,-0.15831090509891513
4.947612762451172,0.5176714658737183,9.811123847961428,0.10100986063480377,-0.050115484744310386,-0.11307008564472198
4.716963291168214,-0.014067843556404114,9.796529769897461,0.037579990923404694,-0.046372078359127045,-0.06814809888601304
4.3652849197387695,-0.4819645881652832,9.68110752105713,0.02177293598651886,-0.06633446365594865,-0.05429091304540634
4.264327049255371,-0.44586643576622015,9.747611045837404,-0.006551428698003292,-0.11672755330801012,-0.039849739521741874
4.664245128631593,-0.39221575856208807,9.722089767456055,-0.02742835693061352,-0.14650246500968933,-0.03285133466124535
4.5872039794921875,-0.48577022552490234,9.515983581542969,-0.03659796342253686,-0.15099214017391208,-0.02793603390455246
4.479496955871582,-0.8936941623687744,9.422581672668459,-0.03519202023744583,-0.15034218132495883,-0.03531913459300995
4.6929121017456055,-1.019144058227539,9.343507766723633,-0.023055085912346843,-0.15064525604248047,-0.041674867272377014
4.650342464447022,-0.8898162245750428,9.298614501953125,0.0006966828950680793,-0.1364968717098236,-0.05115387216210366
4.454113006591797,-0.8960692882537842,9.478247642517092,0.01776780374348164,-0.138328954577446,-0.06591568887233734
4.609602451324464,-0.9444413185119629,9.404138565063477,0.04553100094199181,-0.15119242668151855,-0.09012585133314134
4.517847537994386,-0.6925348043441772,9.200216293334961,0.059438269585371024,-0.14633417129516602,-0.10399575531482697
4.545383453369141,-0.89893639087677,9.315452575683594,0.05576883256435394,-0.15130801498889926,-0.11668430268764496
4.489722728729249,-0.7928236722946167,9.376753807067873,0.059048730880022056,-0.16335813701152804,-0.1315431296825409
4.473419189453125,-0.5893009305000306,9.321561813354492,0.06113728880882263,-0.1650873273611069,-0.14211538434028625
4.490305423736573,-0.5858794450759888,9.49948024749756,0.04847908020019531,-0.1789130121469498,-0.15139470994472506
4.7909955978393555,-0.5348589420318604,9.528798103332521,0.07067227363586426,-0.17862199246883395,-0.16690775752067566
4.776783466339112,-0.8938184976577759,9.411673545837404,0.09872130304574968,-0.17019607126712802,-0.19190102815628052
4.664934635162354,-0.5710787773132324,9.542673110961914,0.10723743587732316,-0.1866908073425293,-0.19906993210315707
4.946378707885742,-0.6126117110252381,9.519536972045898,0.09987601637840271,-0.19449238479137423,-0.22100634872913363
4.94986629486084,-0.527656078338623,9.433744430541992,0.10972677171230316,-0.19463305175304416,-0.23009783029556274
4.794219493865968,-0.6660643815994263,9.423333168029787,0.11674542725086212,-0.2025945484638214,-0.23379676043987277
4.627931594848633,-0.7151118516921997,9.46714973449707,0.13399997353553772,-0.23941414058208468,-0.2524527907371521
4.418423652648926,-0.8267977237701416,9.468603134155273,0.1700413376092911,-0.2773510217666626,-0.28308260440826416
4.683136940002441,-1.1444182395935059,9.442812919616701,0.21134199202060702,-0.323586106300354,-0.3202043473720551
4.785153388977051,-0.675979733467102,9.476810455322266,0.25879597663879395,-0.3647286891937256,-0.3538713157176972
4.991277217864991,-0.35437244176864624,9.336243629455568,0.27690348029136663,-0.3910520672798157,-0.3711130321025849
5.071369647979737,0.22597020864486694,9.232712745666506,0.250824123620987,-0.40508580207824707,-0.3395503759384155
5.107633113861085,0.38242799043655396,9.330055236816406,0.20904470980167392,-0.4124656915664673,-0.30087181925773626
5.093132972717285,-0.22531381249427795,9.29017448425293,0.18716977536678317,-0.41694793105125433,-0.2882644534111023
4.953930854797363,-0.39210072159767156,9.349474906921388,0.17507441341876986,-0.4410023093223572,-0.30135604739189154
4.965178966522218,-0.14639988541603088,9.28130626678467,0.13746856153011325,-0.49076008796691895,-0.3115686774253845
4.994315624237061,-0.00015263259410858154,9.277994155883789,0.09192467480897905,-0.5372339487075806,-0.31898280978202825
4.984055995941163,0.5024829506874086,9.310270309448242,0.05494820326566696,-0.5891519784927368,-0.2929175794124604
5.272330760955811,0.7213284373283387,9.245190620422365,-0.017533926293253902,-0.6302086114883423,-0.23485760390758517
5.066105365753175,0.7002080678939819,9.25956439971924,-0.06920811533927917,-0.6622324585914613,-0.173510417342186
5.083529949188233,0.6956747174263002,9.40288829803467,-0.10975001752376556,-0.7253184914588929,-0.10042649507522583
5.046087265014648,0.7935222387313843,9.292379379272461,-0.1808687895536423,-0.8123754858970643,-0.025033999234437943
5.047290325164796,0.8127470016479492,9.28069591522217,-0.29609405994415283,-0.912811577320099,0.030092790722846985
5.028522491455078,-0.11725904792547227,9.43454360961914,-0.37339138984680176,-1.023196578025818,0.042890112847089774
4.599330902099609,-1.545446276664734,9.324201583862305,-0.2551664113998413,-1.1652022600173952,-0.01418963260948658
5.046100139617921,-0.9540544748306274,9.398204803466797,-0.18894858658313754,-1.3346723318099978,-0.09431701898574829
4.825030326843262,-0.9404645562171937,9.217902183532717,-0.14978681504726413,-1.5009980201721191,-0.16301222145557406
5.074834823608398,-0.8609567880630493,9.342522621154787,-0.13961750268936157,-1.715902924537659,-0.22901593148708346
4.954561233520508,-0.8590198755264282,9.233512878417969,-0.1584703177213669,-1.9322257041931152,-0.3246259987354279
4.853481292724609,-0.49327811598777777,9.171370506286623,-0.1922837197780609,-2.180337905883789,-0.40174797177314764
5.197754859924316,1.0338340997695925,9.044627189636232,-0.3323909640312195,-2.4358961582183842,-0.3844771385192871
5.244684696197511,2.869713306427002,8.811970710754396,-0.6802781820297241,-2.7322084903717045,-0.19170053303241733
5.529472827911378,4.264922142028809,8.99722194671631,-1.132280230522156,-3.0934395790100098,0.1706500202417374
5.681674480438233,3.418309211730957,8.901682853698732,-1.4245249032974245,-3.5473330020904545,0.5322628021240234
5.3536376953125,2.6628870964050293,8.59857177734375,-1.566429615020752,-4.211312770843507,0.9769320487976074
4.646193027496339,2.5194664001464844,9.49672603607178,-1.4138187170028689,-5.150145530700684,1.4130873680114746
6.659343719482422,-3.9599437713623047,10.738015174865724,-1.1890242099761963,-6.1987318992614755,1.0874910354614258
5.672452449798585,-1.4252380132675173,12.23086452484131,-1.5206319093704226,-7.6681885719299325,0.8445267677307129
9.153446197509766,2.224881649017334,16.19173812866211,-2.1999101638793945,-8.689612388610842,1.2270879745483398
13.238485336303711,4.30734920501709,19.191114425659183,-2.923702955245972,-9.04229736328125,2.0748119354248047
20.841594696044922,0.3660664856433869,16.98983955383301,-3.7968802452087402,-8.379580497741701,2.6009163856506348
22.468544006347656,-1.9355556964874268,13.434725761413576,-4.382624626159668,-7.7412872314453125,2.345138788223267
20.627197265625,-0.45851930975914007,14.999356269836428,-4.913241863250733,-6.849372863769531,1.3091284036636355
17.458951950073246,-2.4208657741546635,10.391708374023438,-5.654860973358155,-6.198166847229004,0.4090719223022461
24.507747650146484,-2.57352089881897,12.927195549011232,-6.859338283538819,-5.593355178833008,0.8647373318672181
25.135913848876953,0.3498965799808503,13.64414691925049,-8.479232788085938,-4.248236656188965,1.6447521448135378
18.619544982910156,0.006418585777282715,12.81837558746338,-9.837807655334474,-2.73215389251709,1.8956288099288943
17.928150177001953,-6.936180591583253,11.625254631042482,-8.825905799865724,-1.144096851348877,-0.26924216747283936
42.79564666748047,-6.478841304779054,26.725824356079105,-6.695040702819824,1.9203623533248904,-2.9024572372436523
24.03989028930664,-8.74392318725586,19.865308761596683,-4.2393536567688,5.3251309394836435,-3.5035672187805176
16.006925582885746,-2.897436857223511,13.448799133300781,-3.192487478256226,6.505138397216797,-3.375637769699097
9.895591735839844,3.925828456878662,7.160876750946046,-3.191891431808472,6.943886756896973,-3.2399978637695312
4.78004026412964,5.925666809082031,3.592958927154541,-3.960280418395996,6.685623645782472,-2.8777456283569336
3.0351898670196538,3.2793116569519043,1.3459408283233643,-4.429709911346436,6.217402935028077,-2.4085206985473633
2.474082231521607,-1.7095595598220827,0.29267469048500067,-3.813737392425537,5.8340773582458505,-2.0424342155456543
2.4261920452117924,-3.7679224014282227,0.906265676021576,-2.396144390106201,5.590299129486085,-1.814383387565613
1.1791794300079346,-0.30456626415252686,2.8219540119171147,-1.0869197845458984,5.419433116912843,-1.5686187744140625
0.8791673779487611,5.0188918113708505,4.269728183746339,-0.6320456266403198,5.317962646484375,-1.172826409339905
0.317213386297226,7.519610881805421,4.475275039672852,-0.8931339979171753,5.26273012161255,-0.805495023727417
0.3388199806213379,6.967424392700195,4.4688076972961435,-1.312746286392212,5.246082782745362,-0.5129618048667909
0.36985567212104803,4.5138959884643555,3.8758420944213867,-1.3899669647216797,5.258635997772218,-0.3467089533805847
1.497840166091919,3.7510151863098145,3.8435080051422124,-1.092677712440491,5.271761417388917,-0.3068886399269104
2.2255599498748784,5.243707656860352,3.4101128578186035,-0.8241795897483827,5.326407432556152,-0.2873041927814484
1.9425523281097412,5.873656272888184,2.068362951278687,-0.7477717995643617,5.288264274597168,-0.3481022119522095
1.5221530199050906,5.163670539855957,0.9892901182174683,-0.7656941413879395,5.111087322235108,-0.4319564700126648
2.13409423828125,4.806881904602051,0.9267152547836304,-0.7934862375259399,4.917681694030762,-0.49599954485893255
3.225235939025879,4.541855812072754,1.1977553367614746,-0.8080202341079712,4.811464786529542,-0.5893541574478149
3.6922352313995366,4.51249885559082,1.1680350303649902,-0.8849263787269593,4.72597599029541,-0.6840841770172119
4.84871768951416,3.9436426162719727,1.409227252006531,-0.9775376319885254,4.630713939666749,-0.7768864631652832
5.75640869140625,3.1774766445159917,1.4174731969833376,-0.9791203141212464,4.540442943572999,-0.8410739898681641
6.675581455230714,3.574175119400025,1.7504884004592898,-0.9845320582389833,4.387828826904297,-0.849914848804474
9.257237434387209,3.27747130393982,2.391469240188599,-1.0607779026031494,4.220839023590089,-0.8033421635627748
11.09251594543457,1.9395005702972412,2.113234043121338,-0.9927547574043275,4.03497314453125,-0.7281312346458436
11.966881752014162,1.2464063167572021,1.253632187843323,-0.788583517074585,3.7139668464660645,-0.5772141814231874
13.15284061431885,0.7256748080253602,0.3746986985206604,-0.5241472125053407,3.2567548751831055,-0.32489135861396795
13.696565628051758,1.4638280868530273,-0.5206269025802612,-0.2934083044528962,2.6754345893859863,0.022598586976528168
14.004141807556154,1.6022002696990967,-1.314161777496338,-0.14867249131202698,2.008041143417359,0.36621540784835815
14.383273124694826,1.7697178125381472,-1.7618417739868164,0.03737409785389901,1.284098267555237,0.6399383544921875
14.613183975219727,1.9564428329467773,-1.806258201599121,0.2649880647659302,0.5740831494331361,0.7811098098754883
16.094369888305668,3.3353149890899663,-1.4546825885772705,0.46435225009918213,-0.08362818509340288,0.7907151579856874
17.842388153076172,4.312473297119141,-1.2538615465164187,0.5643624663352967,-0.6975123882293701,0.6796615719795228
18.553730010986328,4.995831966400147,-0.937424898147583,0.6491971015930176,-1.185291051864624,0.43167504668235784
18.797183990478516,4.964754104614258,-0.03123488649725914,0.7113341689109803,-1.4855234622955322,0.01288095209747553
16.567127227783203,4.75633430480957,-0.540886402130127,0.7217018008232118,-1.5831544399261475,-0.41568100452423096
11.121003150939943,3.5699663162231445,-2.6552102565765385,0.5935373306274414,-1.782642722129822,-0.6242989301681519
19.967782974243168,8.392812728881836,-1.3782634735107422,-0.3647163808345795,-3.188364744186402,0.9648704528808594
22.949342727661136,14.3428955078125,21.49117660522461,-2.682421445846558,-3.358067035675049,1.7495819330215456
63.34789657592774,-0.29153573513031006,48.699420928955085,-2.056069135665894,1.6194822788238525,2.128218173980713
-24.207855224609375,-18.808500289916996,-5.5797224044799805,-0.9979526400566102,0.6978559494018555,0.5754658579826356
3.4352867603302006,-11.716815948486328,15.671425819396974,0.62202125787735,-1.2079976797103884,0.17694616317749023
-2.9153404235839844,2.3131093978881836,8.51111698150635,0.7372359633445741,-0.7258385419845581,-0.3704537451267243
10.954617500305178,1.8018178939819336,11.707341194152834,0.3632814288139343,-0.7213541865348817,-0.8502097725868226
7.838212013244629,3.39108157157898,7.433062076568604,0.061138078570365906,-0.3834116160869599,-0.3865112066268921
10.036510467529297,5.628721237182617,8.440880775451662,-0.23817795515060425,-0.02275671437382698,-0.02771350927650929
7.619032382965089,-0.9618455767631532,8.781318664550781,-0.23432937264442444,0.26697388291358953,0.17035716772079468
4.982993125915527,-3.665647029876709,9.061552047729492,-0.024563990533351898,0.3086369931697846,0.09884213656187059
4.434786319732667,-2.6298413276672363,9.464602470397951,0.09777480363845825,0.26237490773200994,-0.013612847775220871
5.008612632751465,-0.5182751417160034,9.610915184020998,0.1045518144965172,0.2505601346492768,-0.06749166548252106
5.840938568115234,0.8246115446090698,9.471906661987305,0.008126235567033293,0.22382408380508423,0.009550063870847227
5.340372562408448,0.4062480032444001,9.583860397338867,-0.06998944282531738,0.189792737364769,0.08806364983320238
4.871077537536621,-0.767567813396454,9.580389976501467,-0.070711150765419,0.1509390324354172,0.09487470984458923
4.492936134338379,-0.9626319408416748,9.660426139831545,-0.07313856482505798,0.09718634188175201,0.04918669536709786
4.560072898864746,-0.8282803297042847,9.597579956054688,-0.06760554015636444,0.03637589886784554,0.003898345399647951
4.997946739196777,-0.29667359590530396,9.553413391113281,-0.07044406980276109,-0.0041317204013466835,0.00020271007088012993
5.025220394134522,-0.10095295310020447,9.63150405883789,-0.11095808446407318,-0.03325289115309716,0.04079534858465195
4.81912899017334,-0.441125750541687,9.636242866516115,-0.16198725998401645,-0.05648066475987435,0.09144926071166992
4.934741020202637,-0.5441911220550537,9.569067001342773,-0.20315422117710116,-0.09159083664417267,0.12714846432209018
4.63642454147339,-0.7209878563880922,9.503748893737795,-0.22709037363529208,-0.1276722550392151,0.14404919743537903
4.652959823608398,-1.0232808589935303,9.459572792053224,-0.21535690128803256,-0.16962993144989014,0.1254180818796158
5.017097473144531,-0.9729366898536683,9.21767807006836,-0.19508379697799683,-0.1917651891708374,0.11530978232622148
5.286590099334718,-0.7216439247131348,9.137070655822756,-0.204513356089592,-0.1821019947528839,0.1234991177916527
5.203882217407227,-0.48480403423309326,9.307846069335938,-0.22518478333950046,-0.1743198037147522,0.14502322673797607
5.096571445465089,-0.5530878305435181,9.307984352111818,-0.2484082579612732,-0.17168693244457248,0.16066604852676392
4.664642810821534,-0.9498451948165894,9.287838935852053,-0.2548705637454987,-0.17533119022846225,0.14628854393959045
4.634953975677491,-1.0844039916992188,9.55635738372803,-0.25597974658012396,-0.22374287247657776,0.09696126729249956
4.8598341941833505,-1.138484239578247,9.372029304504396,-0.2386355698108673,-0.26437643170356756,0.06788719445466997
5.005881309509277,-0.894112229347229,9.105195999145508,-0.23365698754787448,-0.283710241317749,0.05910888686776162
4.889734268188477,-1.1897546052932741,9.096182823181154,-0.22770054638385775,-0.30547735095024114,0.03619730472564697
4.883847236633301,-1.4310675859451296,8.87455940246582,-0.2029263973236084,-0.3184137642383576,0.01838681474328041
4.787404537200929,-1.420995116233826,9.071830749511719,-0.18685247004032138,-0.33740729093551636,-0.0013985130935907364
4.907312870025636,-1.4481922388076784,9.165165901184084,-0.15355260670185092,-0.3469974994659424,-0.034240264445543296
5.01392936706543,-1.502774953842163,8.807347297668459,-0.11791507154703142,-0.3439278900623322,-0.04958426207304001
4.776870250701905,-1.5093121528625488,8.55038356781006,-0.09212012588977814,-0.3261955678462983,-0.07344914972782135
4.628875255584718,-1.6420189142227175,8.958696365356445,-0.08197133988142015,-0.35295653343200684,-0.11146336793899536
4.698482036590577,-1.577549695968628,9.024093627929688,-0.07830753177404405,-0.39324915409088135,-0.1462957412004471
4.697623729705811,-1.28798246383667,9.057055473327638,-0.04670121893286706,-0.4702806174755097,-0.18406620621681213
4.4105238914489755,-1.5719903707504275,8.954719543457031,-0.02227340824902058,-0.550025463104248,-0.2716669142246247
5.097589015960694,-1.3767917156219482,9.001361846923828,0.010895575396716596,-0.6426279544830322,-0.3525865077972412
5.614710330963136,-0.738774299621582,8.950475692749023,0.025878269225358963,-0.6843033432960511,-0.3636181950569153
5.243987083435059,0.014793798327445984,9.325127601623537,-0.021974874660372738,-0.7292122244834901,-0.32853031158447266
5.23333740234375,-0.22157946228981018,9.379662513732912,-0.09713111817836761,-0.8249486088752748,-0.280210018157959
5.32578992843628,-0.992734730243683,9.151116371154787,-0.14975745975971225,-0.9520944356918335,-0.29261088371276855
4.839560985565186,-0.5182491540908813,9.392581939697266,-0.1637123674154282,-1.1117639541625977,-0.32019868493080145
5.104531288146973,-0.32623890042305,9.148070335388185,-0.24471554160118103,-1.3253517150878906,-0.30514743924140936
5.016597270965577,0.15053896605968478,9.239338874816896,-0.36182916164398193,-1.5493637323379519,-0.24006491899490356
4.537372589111328,-0.8903453350067139,9.632937431335451,-0.4751132428646088,-1.7914495468139648,-0.22866252064704895
5.075509071350098,-1.9415252208709717,9.92266845703125,-0.3839316666126252,-2.075704574584961,-0.19710113108158114
5.130425453186035,-1.2196354866027832,9.580482482910156,-0.19349980354309082,-2.3877153396606445,-0.23350621759891513
5.576544761657715,-0.34400320053100586,9.142606735229492,-0.1614629328250885,-2.6254980564117436,-0.2830948829650879
6.420875549316406,-0.4801381230354309,8.71005153656006,-0.06549279391765594,-2.9161303043365483,-0.308993011713028
6.367056846618652,-0.6244224905967714,7.968572139739991,0.07030336558818817,-3.208028078079224,-0.3143807053565979
6.4915056228637695,-0.03316359221935272,8.026412010192873,0.14388398826122287,-3.5939161777496342,-0.2489793598651886
6.84766435623169,1.2371869087219238,8.687546730041506,0.12929877638816833,-3.9939625263214116,-0.061207011342048645
7.752394676208496,0.2997121810913086,9.889293670654297,0.0893819108605385,-4.359158515930176,0.09777382016181946
9.741971969604492,-1.4939332008361816,11.045309066772461,0.07982733100652696,-4.537825584411621,0.13525651395320895
12.460433006286623,-3.232241153717041,12.736505508422852,0.023153413087129593,-4.3482465744018555,0.11501041799783708
13.854373931884766,-3.5329468250274663,12.213397979736328,0.04136613383889199,-4.040288925170898,0.01134143862873316
21.13375473022461,-3.599406957626343,12.982466697692873,0.12085396796464921,-3.7551703453063965,-0.2822992205619812
24.2586669921875,-5.097423553466797,6.546990394592285,0.29569387435913086,-3.5243556499481206,-0.6071676015853882
29.90969467163086,-5.150101661682129,0.36114591360092163,0.9813840389251709,-3.9019088745117188,-1.2473741769790652
32.44372177124024,-1.9784182310104372,-1.7349611520767214,1.7759028673172,-4.2581024169921875,-1.806268095970154
34.31610488891602,-0.5013195276260376,3.0407800674438477,2.2906029224395756,-4.245135307312012,-2.0515389442443848
34.98669052124024,2.6010000705719,4.959222316741944,2.685409307479859,-4.383145332336426,-2.486557245254517
45.9771728515625,4.534693717956543,19.275552749633793,2.122148036956787,-3.5396132469177246,-2.489994287490845
30.844451904296875,4.242221832275391,18.05327415466309,1.100180506706238,-2.0249924659729004,-2.2280743122100835
26.131261825561527,3.9846670627594,16.906217575073246,-0.15156351029872897,-1.2499258518218994,-2.0945568084716797
19.490352630615234,2.1606454849243164,14.993906974792482,-1.197282910346985,-0.6314370632171631,-2.005919694900513
12.282108306884766,-1.2684314250946045,12.427884101867678,-1.8166872262954714,-0.38102141022682195,-2.0182957649230957
9.22973155975342,-5.705426216125488,11.672050476074219,-1.7133718729019167,-0.3431417942047119,-2.168164968490601
8.592860221862795,-9.411461830139162,13.061317443847656,-0.8798232078552246,-0.10669703036546709,-2.231261491775513
7.307881832122804,-9.687657356262209,14.597579002380373,0.23938848078250888,0.5576297044754028,-2.1699364185333256
2.8698518276214604,-8.206769943237305,13.27079486846924,1.1887283325195312,1.3620030879974365,-1.992962956428528
-3.373586654663086,-6.00092363357544,10.554977416992188,1.6226551532745361,1.9371937513351443,-1.7139711380004883
-8.320446014404297,-4.317924976348878,7.663022041320801,1.4460893869400027,2.1044816970825195,-1.366387128829956
-9.67763900756836,-4.267451763153077,6.662344932556152,0.8957839608192445,2.014136791229248,-0.9349125027656556
-8.658319473266602,-5.312510013580323,6.789960384368897,0.27808183431625366,2.101264476776123,-0.45788934826850897
-9.084992408752443,-7.4290571212768555,5.764028549194336,0.021289927884936336,2.305258274078369,-0.018345413729548458
-10.463194847106935,-7.663137912750245,4.135354042053223,0.01747697964310646,2.4241783618927006,0.38628545403480535
-10.810070991516115,-5.848033905029297,3.278603792190552,-0.09278538823127747,2.4544932842254643,0.7966930866241455
-10.217264175415039,-4.281552314758301,2.9679598808288574,-0.4074627161026001,2.4887051582336426,1.1817125082015993
-9.196706771850586,-4.124689102172852,3.31959867477417,-0.7165090441703797,2.5822343826293945,1.49323046207428
-7.912449836730957,-3.8060522079467773,3.6833958625793457,-0.873020112514496,2.8399391174316406,1.7487640380859375
-7.27329158782959,-2.677675247192383,3.1588180065155034,-0.9282800555229188,3.1383109092712402,1.9067872762680056
-6.765395164489746,-1.2737085819244385,2.354557991027832,-0.9945439696311952,3.359338521957398,1.9572796821594238
-5.577600002288819,0.36051005125045776,2.275631189346314,-1.1340930461883545,3.5284936428070073,1.927100419998169
-4.2161455154418945,1.6766266822814941,2.0238304138183594,-1.2866464853286745,3.7001190185546875,1.8268489837646484
-2.1972665786743164,2.1769621372222905,2.015254020690918,-1.384338974952698,3.827090263366699,1.636876702308655
0.20804136991500854,2.2426455020904545,2.234717845916748,-1.3584873676300049,3.955275535583496,1.400264620780945
2.5559604167938237,3.0439162254333496,2.0885527133941655,-1.2518321275711062,4.04118537902832,1.1698116064071657
4.948129177093507,3.4781491756439213,1.5254884958267214,-1.1750897169113161,4.035752296447754,0.9235925674438477
7.098519325256348,3.1986007690429688,0.6676201224327089,-1.0403852462768555,3.9202606678009038,0.6669113636016846
9.823339462280273,3.479048728942871,0.59253066778183,-0.9141861200332642,3.675591468811035,0.4683263003826142
12.865802764892578,2.7411377429962163,0.5665056109428407,-0.8172613978385926,3.3924732208251953,0.35120168328285223
14.822119712829592,1.7039242982864382,0.7080474495887757,-0.6124285459518433,3.082070112228394,0.32078936696052557
16.94954109191895,2.7361440658569336,2.006877899169922,-0.47618755698204046,2.8036656379699707,0.41713508963584905
19.173143386840824,3.2052807807922363,2.520443201065064,-0.5152509212493896,2.6328063011169434,0.569184720516205
18.629693984985355,2.3071818351745605,0.630414605140686,-0.415257602930069,2.3940982818603516,0.6992674469947816
17.15090560913086,2.3272006511688237,-1.3914126157760622,-0.19351522624492648,1.9264793395996094,0.836256742477417
15.177170753479006,3.238008499145508,-2.9372236728668217,0.020309692248702053,1.3539211750030518,0.9704692959785463
9.687582015991211,4.22403621673584,-7.455539703369141,0.1590752899646759,0.7098867893218994,1.0837224721908572
84.73897552490236,11.05851936340332,20.901647567749027,-2.1371021270751953,-1.8252345323562624,2.5731120109558105
18.92730712890625,26.04436492919922,3.131679773330689,0.26966530084609985,2.689503431320191,0.9219182133674623
11.257072448730469,-6.767343044281007,18.122356414794922,-1.2151789665222168,1.5160959959030154,0.5719032287597656
-11.545753479003906,-10.883535385131836,9.081152915954592,-0.18810594081878662,0.9462008476257324,0.4782706201076508
-1.5326863527297976,6.135510444641113,13.277494430541992,0.5160927176475526,-0.33672434091567993,-0.1674880534410477
3.325492143630982,-9.925403594970703,11.720243453979492,0.5448348522186279,-0.39137950539588934,-0.521677315235138
6.512226104736328,-1.8354977369308474,9.548828125,0.23333875834941867,-0.6000525951385498,-0.3177509009838105
9.841959953308107,6.181339740753175,8.431404113769531,0.026862630620598796,-0.28475078940391546,-0.2272874116897583
8.149832725524904,-1.1987147331237793,7.381245136260987,-0.17344880104064941,0.18712504208087924,-0.014256622642278671
6.458416461944581,-0.9111685752868652,8.462448120117188,0.01918563060462475,0.3447447419166565,0.0865754634141922
4.881333827972413,-1.019399881362915,9.159735679626467,-0.0020681556779891257,0.4278925657272339,0.07577695697546007
4.812518596649171,-1.1427671909332275,9.318772315979006,-0.03366802260279656,0.3937499821186066,0.06955891847610474
5.139312744140625,-0.4134959578514099,9.46120834350586,-0.07391326129436493,0.3588435351848603,0.07107231020927429
4.778452396392823,0.31172555685043335,9.766119956970217,-0.12500073015689853,0.2936885356903076,0.1453571915626526
4.197381496429444,-0.6357370615005493,10.002365112304688,-0.1477824300527573,0.18630656599998474,0.18647812306880954
3.7744011878967285,-1.5197296142578125,9.798295974731445,-0.12075845152139665,0.057549614459276206,0.12178051471710205
3.7025809288024902,-1.4761683940887451,9.958799362182617,-0.08868177980184556,-0.08590500056743622,0.010449892841279508
4.393753528594972,-1.0620567798614502,9.799103736877443,-0.08589234948158264,-0.21091593801975253,-0.05180243775248528
5.045628547668457,-0.4809082448482514,9.444093704223633,-0.09196744114160539,-0.274042010307312,-0.0653754696249962
5.307307243347168,-0.6815401315689087,9.176788330078125,-0.11226929724216461,-0.26066601276397705,-0.03907761350274087
5.2158403396606445,-1.3579756021499636,9.13906764984131,-0.11746323853731157,-0.23735469579696655,-0.04429417476058007
5.0440521240234375,-1.6705337762832644,9.079288482666016,-0.07681869715452196,-0.2264021933078766,-0.04980539530515671
5.240880489349366,-1.0084346532821657,9.239355087280273,-0.06331393867731096,-0.22311866283416748,-0.04476198181509972
5.256103515625,-0.5226434469223022,9.300501823425295,-0.08933574706315996,-0.22990392148494723,-0.009832432493567467
5.242985248565675,-0.8005580902099609,9.199810028076172,-0.10492590069770813,-0.23456113040447238,0.01240408606827259
5.1509671211242685,-0.9772794246673584,9.048206329345703,-0.0817399248480797,-0.23369914293289185,0.0068450067192316055
5.105617523193359,-0.9722562432289125,9.15974521636963,-0.07856797426939012,-0.24786576628684998,-0.0048548425547778615
5.0319886207580575,-0.8422373533248901,9.138816833496094,-0.09743817895650865,-0.2760529816150666,-0.015100963413715363
4.972041606903077,-0.8058302998542787,9.392308235168459,-0.11559876799583435,-0.3010914623737336,-0.031478025019168854
5.269496440887452,-1.005131721496582,9.1894006729126,-0.10329034179449083,-0.3145076632499695,-0.018443584442138672
5.324160099029542,-1.0914456844329834,8.929851531982422,-0.09632523357868195,-0.30878636240959173,-0.016855377703905106
5.199516773223878,-1.2533237934112549,8.804833412170412,-0.06878224015235901,-0.28950732946395874,-0.042111504822969444
5.120450496673585,-1.382154941558838,8.770326614379883,-0.031497225165367126,-0.2624752223491669,-0.06716415286064148
5.080963134765625,-1.2972290515899658,8.925567626953125,-0.017910398542881012,-0.25111582875251776,-0.08946777135133745
4.981592655181886,-1.1164377927780154,9.038297653198242,-0.0040818196721375,-0.24806252121925354,-0.11192383617162706
5.305342674255371,-1.1498229503631592,9.019093513488771,-0.008366608992218971,-0.2520977258682251,-0.11062896996736528
5.095133304595948,-1.1826281547546387,8.91914463043213,-0.023853266611695293,-0.27674418687820435,-0.11494603008031846
4.9734296798706055,-1.1722832918167116,9.07453727722168,-0.008679720573127271,-0.3258815407752991,-0.14606574177742004
5.029687404632569,-1.3489606380462646,8.921788215637209,0.00860668532550335,-0.3639341294765473,-0.1874655783176422
4.836522102355957,-1.5862514972686768,8.89354133605957,0.05285035818815231,-0.3982839584350586,-0.2578246891498566
4.663663387298585,-1.7253595590591433,9.14805316925049,0.11882210522890092,-0.4595170021057129,-0.3643603622913361
5.008369445800781,-1.1619209051132204,9.106748580932617,0.16372819244861606,-0.55713951587677,-0.4328482747077942
4.868317604064941,-0.7932500839233398,9.143744468688967,0.15338701009750366,-0.6565482020378114,-0.4484638571739197
5.083327293395996,-0.5033152103424072,9.283726692199709,0.11844943463802338,-0.7891116142272949,-0.4467518031597138
5.313170433044434,0.06020855903625488,9.337785720825195,0.0683855637907982,-0.9436661005020142,-0.37906268239021307
4.795982837677003,-0.39201247692108154,9.232474327087404,0.007617492694407702,-1.1111228466033936,-0.32084888219833374
4.690990924835206,0.19130626320838928,9.37325954437256,-0.05709360912442208,-1.3435709476470947,-0.2342241853475571
5.075733661651612,0.22054800391197205,9.75611972808838,-0.14736305177211764,-1.5891605615615847,-0.1784357726573944
5.048514366149902,0.06011001765727997,9.950362205505373,-0.20333008468151095,-1.783111333847046,-0.15271084010601046
5.654327869415284,-1.1583044528961182,9.949869155883789,-0.19816561043262484,-1.9848358631134033,-0.15789872407913208
5.524716377258301,-1.493070721626282,9.131790161132812,0.00882100872695446,-2.1516935825347905,-0.22647109627723694
6.218554019927979,-0.26934510469436646,9.310641288757326,0.029109703376889232,-2.4012587070465092,-0.25720685720443726
5.955270290374757,-0.6135106682777406,8.86869525909424,0.011995269916951658,-2.61873197555542,-0.27301296591758734
5.756278991699219,-0.6969692111015321,8.148031234741211,0.08982057124376298,-2.9273271560668945,-0.34837114810943604
5.755319118499757,-0.6273781061172485,8.514286041259766,0.21888126432895663,-3.3158435821533203,-0.3987185657024384
6.053136825561523,-0.38561698794364935,8.577127456665039,0.3666725158691406,-3.723456382751465,-0.4256604611873627
7.310079097747804,-0.5178266763687134,9.157011032104492,0.47334876656532293,-4.12416934967041,-0.39859595894813543
8.99540901184082,-2.019192457199097,10.379570007324219,0.5520593523979188,-4.377147674560547,-0.3725668787956238
12.368062973022461,-1.9392030239105225,11.874974250793459,0.4924017488956452,-4.42500114440918,-0.3448436558246613
14.776873588562013,0.1287267506122589,11.956608772277834,-0.05095294490456582,-4.27843999862671,-0.28067320585250854
19.24881172180176,-0.15442104637622836,11.679073333740234,-0.5601862072944642,-4.016085624694824,-0.2769370377063752
24.51067161560059,0.8198212981224061,7.959562301635742,-1.062568545341492,-3.7435450553894043,-0.2849319577217102
29.619922637939453,-3.5913586616516113,3.048535585403443,-1.1564569473266602,-3.7863724231719975,-0.6814624071121216
31.551019668579105,-5.384197235107422,-0.02186506986618042,-0.22657285630702975,-3.8019478321075444,-1.2369842529296875
34.39035415649415,-6.487279891967773,2.9835386276245117,0.9152081608772279,-3.4247817993164062,-1.530304551124573
31.51766395568848,-3.4590098857879643,3.672305822372437,2.016426801681519,-3.404409885406494,-1.8698875904083252
43.513938903808594,1.4152210950851443,19.476295471191406,2.025413990020752,-2.6394884586334233,-1.9300739765167236
27.335956573486328,3.067518711090088,17.119501113891605,1.337522864341736,-1.069747567176819,-1.845768928527832
21.06601142883301,3.387947320938111,13.769776344299318,0.233538419008255,-0.7975775599479676,-1.8317468166351318
15.707571029663086,1.147809147834778,12.130615234375,-0.5343761444091797,-0.8380916714668275,-2.034850358963013
13.100116729736328,-2.1888327598571777,12.310540199279787,-0.9349404573440552,-1.009822726249695,-2.2343387603759766
12.807775497436523,-5.747220039367676,13.220159530639648,-0.6879200339317323,-0.9542941451072694,-2.385141372680664
11.222877502441406,-7.876629352569581,13.952762603759766,0.19376929104328158,-0.5881342887878418,-2.398159742355347
8.144701957702638,-6.46242618560791,14.706058502197266,1.0169384479522705,-0.09430900961160661,-2.282272577285767
6.266098976135254,-4.5023908615112305,15.74006462097168,1.317626953125,0.5445645451545716,-2.005312919616699
3.4334964752197266,-3.325669765472412,13.966192245483398,1.2408266067504883,1.272090196609497,-1.6898492574691775
-2.1422455310821538,-4.175906658172608,9.585854530334474,1.1970499753952029,1.696761131286621,-1.512019753456116
-6.398271560668945,-4.828120231628418,6.284353733062745,1.2216627597808838,1.7400759458541872,-1.2947891950607302
-7.272380828857422,-4.419300079345703,5.732413291931152,1.1079440116882324,1.6251400709152224,-0.9213399887084961
-6.476829528808594,-4.328320026397706,6.2245755195617685,0.8671524524688721,1.68033766746521,-0.4329041540622712
-6.562324523925781,-4.829439640045167,6.311116695404054,0.6205376386642456,1.9504913091659548,0.07385724782943726
-8.171327590942383,-4.821349143981934,4.617518424987793,0.4452203214168549,2.2063374519348145,0.5680545568466187
-9.234800338745117,-4.086030006408691,3.308120965957642,0.22182798385620117,2.284570455551148,1.013599157333374
-8.329150199890138,-3.0930161476135254,3.198115825653076,-0.15597377717494967,2.3748376369476323,1.445387363433838
-8.58982563018799,-3.293166875839234,2.2323791980743413,-0.38235723972320557,2.4808309078216557,1.769350528717041
-8.528637886047365,-2.874752759933472,1.6077753305435183,-0.4815467298030854,2.5590968132019043,1.9827547073364258
-7.856544494628906,-1.527860164642334,1.8080775737762451,-0.5816856622695923,2.6471140384674077,2.0942330360412598
-6.424391269683839,-0.06541310250759125,2.7994937896728516,-0.7795368432998657,2.8473010063171387,2.1095106601715092
-5.067464828491211,0.6426445245742798,2.9575755596160893,-0.9781254529953003,3.1588613986969,2.0140275955200195
-4.543186187744141,1.1670595407485964,1.9665412902832031,-1.071967363357544,3.4288232326507573,1.8104504346847536
-3.1489522457122807,1.815310835838318,1.611717700958252,-1.141311287879944,3.5747904777526855,1.565313220024109
-0.2440929561853409,2.2393143177032475,1.9206490516662598,-1.2433067560195925,3.7328193187713627,1.3624932765960693
1.9507806301116943,2.470017433166504,1.2609293460845947,-1.2500272989273074,3.892256736755371,1.2178293466567995
3.7368047237396245,3.044615983963013,-0.16895811259746554,-1.2093898057937624,3.921173572540283,1.1116149425506592
6.427556514739991,2.376677989959717,-1.0456651449203493,-1.0915521383285525,3.795994281768799,0.9707544445991517
9.000864982604982,1.96594774723053,-1.119061350822449,-0.8690670728683472,3.574367046356201,0.8591511845588685
12.403807640075685,2.1457910537719727,-0.06724326312541962,-0.741523027420044,3.3166792392730717,0.8481924533843994
16.50507354736328,1.8303705453872683,0.9512066245079042,-0.6739379167556763,3.14230751991272,0.9265831112861634
18.943361282348636,1.0752516984939577,0.1453101933002472,-0.48249480128288275,2.995561122894287,0.9656774401664735
19.102523803710938,1.3184430599212646,-1.6311078071594238,-0.2602425813674927,2.704148292541504,0.982822358608246
18.258775711059574,1.800279498100281,-3.2707419395446777,-0.1434593349695206,2.2429232597351074,1.004709601402283
16.738260269165043,2.0252845287323002,-4.886037349700929,-0.0681026801466942,1.6489880084991455,0.9996765851974487
11.624876976013185,2.9131174087524414,-9.680037498474123,0.010365186259150505,0.9030146002769471,0.8814427852630615
8.271925926208498,6.209699153900147,-13.841692924499513,0.03930401429533959,-0.40789750218391424,0.6134598255157471
115.34658813476562,17.104660034179688,62.47588729858399,-2.7325148582458496,-1.4131284952163699,2.238460063934326
-10.39259433746338,19.71201896667481,-26.404617309570312,1.1121704578399658,4.245243549346925,-0.6054249405860902
15.007449150085451,-15.955210685729982,17.334703445434574,-0.839463770389557,2.606114387512207,0.29054436087608343
-8.757973670959474,11.53223514556885,14.126265525817873,0.08399030566215515,1.8739941120147705,0.2513589560985566
-2.0315279960632324,-8.121881484985352,14.140144348144531,0.6281260251998901,1.1937831640243532,-0.3488873243331909
1.641944766044617,-10.010464668273928,12.436238288879396,0.3762699365615845,0.43205824494361883,-0.25959149003028875
3.0234532356262207,2.3749771118164062,11.498393058776857,0.27647814154624945,-0.14313027262687683,-0.3718963563442231
6.26860237121582,-2.4498515129089355,8.780922889709474,0.14117330312728882,-0.1343027651309967,-0.5484628081321717
7.791958808898926,2.334380388259888,7.915370464324952,0.2969157099723816,0.06681186705827714,-0.455061674118042
7.800878047943116,2.730947494506836,8.173569679260256,0.17086729407310486,0.31463184952735906,-0.20985551178455356
6.104568004608155,0.24113653600215915,8.739568710327148,-0.004552895203232765,0.5047799944877626,0.0033752797171473503
4.673997402191163,-1.3797321319580078,9.17555904388428,-0.04004139453172684,0.5633294582366943,0.011629411019384863
4.435387134552003,-0.13507094979286194,9.841780662536623,-0.04355567321181298,0.49899572134017944,-0.014559968374669554
4.132015228271484,1.1558747291564941,10.302772521972656,-0.14717897772789001,0.3509471714496613,0.09447293728590013
4.043201446533203,0.8351482152938843,10.154216766357422,-0.2334025949239731,0.16273310780525208,0.21810393035411837
4.248438835144043,-0.06606963276863098,10.031124114990234,-0.24241875112056735,-0.011480034328997137,0.2785221338272095
3.992872714996338,-0.7585027813911439,9.973225593566896,-0.25215989351272583,-0.15025682747364047,0.2589060068130493
4.192483425140382,-0.8683120012283325,9.894860267639162,-0.23576906323432922,-0.27542796730995184,0.20254071056842807
4.680225372314453,-0.28885483741760254,9.74795436859131,-0.24108564853668213,-0.3720636069774628,0.19260412454605103
4.830487251281738,0.06093032658100128,9.57401752471924,-0.2813647091388703,-0.4369399249553681,0.23609280586242676
4.6723294258117685,0.12153902649879456,9.639656066894531,-0.35771843791008,-0.5338413715362549,0.2738011181354523
4.854604244232179,-0.7234405279159546,9.598455429077148,-0.39682990312576294,-0.6146332621574403,0.2456040531396866
4.913495540618897,-1.2031553983688357,9.24212169647217,-0.3700410425662995,-0.6618999242782593,0.1886660605669022
5.193834781646729,-1.1061724424362185,9.091062545776367,-0.34073027968406683,-0.6609721779823304,0.15403234958648682
5.346774101257324,-1.1287692785263064,8.964333534240724,-0.32904705405235296,-0.6268497705459595,0.11778087168931962
5.326292991638184,-1.4050486087799072,8.871256828308107,-0.3014557957649231,-0.5807871222496034,0.10717757791280748
5.291058540344238,-0.9872598648071289,9.0936279296875,-0.27876341342926025,-0.5594395995140077,0.11363488435745239
5.367523670196534,-0.9653633832931519,9.01423454284668,-0.27811667323112493,-0.5513238310813905,0.1038733422756195
5.4608354568481445,-1.0567958354949951,8.935957908630373,-0.268585354089737,-0.5236530303955078,0.10949047654867174
5.398263931274414,-0.963417649269104,8.941931724548342,-0.2510530948638916,-0.5010059475898744,0.11910212785005571
5.230137825012207,-1.139825224876404,8.786044120788576,-0.2370443791151047,-0.47754496335983276,0.09132017940282823
5.20721435546875,-1.654203534126282,8.626212120056154,-0.19491153955459595,-0.4354488253593445,0.046701442450284965
5.4800615310668945,-1.7624444961547852,8.52434825897217,-0.16544023156166077,-0.39898297190666204,0.011166254058480263
5.5449113845825195,-1.204834222793579,8.661748886108398,-0.14553961157798767,-0.36575558781623846,-0.0010043891379609706
5.352406978607179,-1.433582425117493,8.689075469970703,-0.1477916389703751,-0.31981003284454346,-0.013319128192961218
5.3105621337890625,-1.691307783126831,8.616849899291992,-0.14583715796470642,-0.3045498728752136,-0.04476920142769814
5.112784385681152,-1.5268003940582275,8.738744735717773,-0.1110692396759987,-0.32264989614486694,-0.07087362557649614
5.007637023925781,-1.6881790161132812,8.873552322387695,-0.09420420974493028,-0.3604205250740051,-0.12977942824363708
5.204475402832031,-1.7050231695175173,8.797366142272951,-0.05151166766881943,-0.4042965471744538,-0.20287954807281494
5.224884986877441,-1.7085766792297363,8.635168075561523,-0.0037939238827675585,-0.45194205641746527,-0.27681583166122437
5.208026409149171,-1.0813262462615967,8.681992530822756,0.02336840517818928,-0.5134145021438599,-0.30982729792594915
5.24488115310669,-0.7476152181625366,9.02503299713135,0.008354423567652702,-0.5847333073616029,-0.30517724156379705
5.241340160369874,-1.0173360109329226,8.992368698120117,-0.01904271356761456,-0.7084997892379761,-0.28428676724433904
4.579514026641847,-0.8584085106849672,9.386794090270998,-0.025419106706976894,-0.8849080204963685,-0.27951037883758545
4.495706081390382,-1.0397869348526003,9.12289047241211,-0.0017788534751161935,-1.1224796772003174,-0.260714739561081
5.135817527770996,-0.6975193023681641,9.289321899414062,-0.007357269991189242,-1.3704700469970703,-0.21947923302650452
4.617139339447022,-0.4915095567703247,9.603181838989258,-0.04618745297193527,-1.6185978651046755,-0.2007479965686798
5.170709133148194,-0.9134716391563417,9.298917770385742,-0.06973318755626678,-1.9045724868774414,-0.19666366279125216
5.000395774841309,-0.40625974535942083,9.04866123199463,-0.117667593061924,-2.1863231658935547,-0.17783524096012118
6.413671016693116,-0.3132668733596802,9.56851577758789,-0.193701833486557,-2.412044763565064,-0.2034864276647568
5.857048988342285,-0.4806235432624817,8.752557754516602,-0.1846047788858414,-2.675981044769287,-0.25384351611137396
6.348754405975343,-1.2373816967010498,9.296013832092287,-0.06464413553476335,-2.9523718357086186,-0.31952112913131714
5.220452785491944,-1.1181774139404297,8.249762535095217,0.18379461765289307,-3.3366205692291264,-0.3297939896583557
5.981473922729492,-0.7450143098831177,8.80793857574463,0.26989045739173895,-3.8278965950012207,-0.3719329237937927
6.816341400146484,-0.15420976281166077,9.527764320373537,0.32347285747528076,-4.330437183380128,-0.2567555904388428
7.816149711608887,-1.7459611892700195,11.017075538635256,0.37627276778221136,-4.76741647720337,-0.16167134046554565
10.586859703063967,-2.7138171195983887,13.322305679321289,0.362212747335434,-5.138117790222168,-0.24490828812122348
14.695017814636232,-1.485061287879944,14.867274284362795,0.1198577731847763,-5.134188175201417,-0.3046490848064423
21.231849670410156,-1.8220090866088867,15.176823616027834,-0.14917208254337314,-4.937555313110352,-0.384948879480362
26.90475845336914,-3.1210701465606694,13.770836830139162,-0.42970407009124756,-4.391654014587402,-0.43453088402748113
31.64473915100098,-3.1213219165802006,8.318588256835938,-0.8709781169891357,-4.397654056549073,-0.7174156904220581
35.987499237060554,-5.648237228393555,5.527858257293702,-0.6892582178115845,-3.966470003128052,-0.9747695326805116
34.343334197998054,-4.106178760528565,5.37814998626709,-0.26494157314300537,-3.4246308803558354,-1.1540374755859375
34.43732452392578,-3.728097200393677,2.1375551223754883,0.07221183180809021,-3.426762104034424,-1.6123398542404177
46.181652069091804,-2.73502779006958,16.940160751342777,0.3185454905033112,-2.507099151611328,-1.7783180475234988
27.93697547912598,-0.7451459169387817,13.426314353942873,0.18938894569873813,-1.0265429019927979,-1.8220674991607666
21.110321044921875,1.0366855859756472,9.309645652770998,-0.5879098176956177,-1.0151971578598025,-1.7955577373504639
16.339752197265625,-0.8283969163894653,7.670056343078613,-0.9987177848815918,-1.1747982501983643,-1.9602955579757693
13.608457565307617,-3.1106760501861577,7.6908464431762695,-0.99687659740448,-1.4039074182510378,-2.1240954399108887
12.341612815856935,-5.082411766052246,9.879400253295898,-0.5628635883331299,-1.3527477979660036,-2.2979919910430913
9.949739456176758,-5.643560409545898,11.671374320983888,0.0987095832824707,-0.9740983843803407,-2.3263087272644043
6.744240760803223,-4.557891368865968,12.842112541198732,0.538531243801117,-0.3955619633197785,-2.1807870864868164
3.84314513206482,-3.823394775390625,12.983632087707521,0.6280691623687744,0.3544969260692597,-1.9121325016021729
-0.5384498834609985,-3.7079567909240723,11.413273811340334,0.6240233182907104,1.0923615694046023,-1.6846541166305544
-6.138506889343262,-4.384617805480957,8.569190025329592,0.6570565700531006,1.538304924964905,-1.5563781261444092
-10.266670227050781,-4.176941871643066,5.569246292114258,0.6565788388252259,1.6045495271682741,-1.4394054412841797
-11.716832160949709,-3.449907541275025,4.5220842361450195,0.49740120768547064,1.4851720333099365,-1.255648493766785
-11.154425621032717,-3.2360069751739506,5.465715408325195,0.1335407793521881,1.4682151079177859,-0.978385627269745
-10.710845947265625,-4.2331647872924805,6.236928939819336,-0.25768476724624634,1.7496381998062136,-0.6669000387191772
-10.680752754211428,-5.244117259979249,6.610680103302003,-0.45652061700820923,2.1468944549560547,-0.3309310972690583
-10.335554122924805,-4.862460136413574,6.634683609008789,-0.5559762120246888,2.61641263961792,0.04271462932229043
-11.21900272369385,-3.7595846652984624,4.911465644836426,-0.6706397533416748,3.055951356887818,0.388038843870163
-12.06854248046875,-2.5335893630981445,2.8400959968566895,-0.8518608808517456,3.2555210590362553,0.6942123174667358
-11.705057144165039,-1.499683976173401,1.7123057842254639,-1.0842750072479248,3.2956838607788086,0.9471543431282045
-9.712550163269045,-1.5134363174438477,2.0234115123748784,-1.258444428443909,3.3429064750671387,1.1339393854141238
-6.37928056716919,-1.7391473054885866,2.976989269256592,-1.237408518791199,3.4956040382385254,1.3059184551239014
-3.3593173027038574,-1.1577696800231934,3.1655030250549316,-1.0673931837081911,3.7874860763549805,1.528776288032532
-1.8827694654464724,0.6680537462234497,1.524501085281372,-0.9034523367881776,4.065677165985108,1.763077974319458
-0.9367098212242128,2.737884044647217,-0.9282000660896302,-0.8801794648170472,4.102504730224609,1.9329663515090945
0.7082884907722474,4.28913164138794,-2.3315634727478027,-0.9146975874900819,3.8996315002441406,2.0058484077453613
3.8706037998199467,6.023480415344238,-1.455926060676575,-0.9613007903099061,3.598255157470703,1.9128669500350954
9.41700077056885,6.293140411376953,0.7591255903244019,-1.025200605392456,3.45573091506958,1.65440571308136
14.797097206115724,4.8412137031555185,2.175465345382691,-0.8308098912239076,3.5221099853515625,1.2655628919601443
18.867599487304688,4.704928874969483,1.8146677017211914,-0.44130539894104004,3.661089181900025,0.8703683018684388
20.774923324584964,5.044111251831055,-0.46436184644699097,-0.15334539115428927,3.6284408569335938,0.5243982672691346
21.22280311584473,3.4678215980529785,-3.0840063095092773,0.08109708875417711,3.312947511672974,0.2813790440559387
20.109891891479496,1.5198539495468142,-5.150519847869874,0.35193437337875366,2.824447870254517,0.2400146722793579
18.09107208251953,0.6619522571563721,-6.413745880126953,0.6197598576545716,2.217681407928467,0.384881854057312
13.683561325073242,0.5009390115737915,-9.175000190734865,0.6229003667831421,1.4289315938949587,0.763237476348877
23.109045028686527,6.957195281982422,-15.41890621185303,-0.311837524175644,0.08068337291479112,1.4125087261199951
94.20178985595705,23.21233177185059,43.231464385986335,-3.154972314834595,-0.6245120763778687,3.174023866653443
-1.1464006900787354,14.637848854064943,-16.975919723510746,-0.21255767345428467,4.301591396331788,0.5207459330558778
16.401842117309574,-17.632886886596683,17.92877197265625,-1.4439072608947754,2.9277889728546147,0.9991353750228882
-8.282171249389648,5.210798740386964,9.654179573059084,-0.19081588089466098,2.670556783676148,0.497919499874115
0.5390490293502808,-12.260006904602053,15.078087806701662,0.6081095933914185,2.224751234054566,-0.5669742822647095
-1.0018994808197021,-10.625756263732912,14.37656879425049,0.5405011177062988,1.1222788095474245,-0.4781328737735749
-0.46738624572753906,4.770388126373292,13.243754386901857,0.4986835420131684,0.12902605533599854,-0.6466044783592225
4.331205368041992,1.5483947992324831,10.703969001770021,0.23212383687496188,-0.32039800286293035,-0.5738735198974609
6.883037567138672,4.13671875,9.234241485595703,0.06818940490484239,-0.47244125604629517,-0.21709258854389193
7.283585548400879,1.002530813217163,8.196208953857422,-0.08059073984622955,-0.3549341261386872,0.07159049063920976
6.920709133148194,-1.9793490171432497,7.632267951965332,-0.11573199927806854,-0.07799360901117326,0.08646270632743835
6.017279624938965,-1.8211168050765993,8.14780044555664,-0.03913986682891846,0.14875513315200806,-0.015510003082454206
5.660501003265382,0.015354752540588379,9.033794403076172,-0.04522564262151718,0.2731644809246064,-0.046221695840358734
5.172438144683839,1.0396006107330322,9.645832061767578,-0.15463900566101074,0.290577918291092,0.07576755434274675
4.755289077758789,0.21334512531757358,9.828475952148438,-0.24812667071819308,0.22933194041252136,0.19439856708049777
4.648744583129883,-0.776189923286438,9.674649238586428,-0.236956462264061,0.1289341598749161,0.20900079607963562
4.487350940704347,-1.387106537818909,9.691386222839357,-0.14675286412239075,0.014449820853769781,0.1525026261806488
4.427732944488526,-1.4676015377044678,9.664680480957031,-0.11833076924085618,-0.06927384436130524,0.07497712969779968
4.772130012512207,-1.0496058464050293,9.44431781768799,-0.08396153897047044,-0.13282200694084167,0.03385302051901818
5.258254528045655,-0.5565146207809448,9.28631591796875,-0.08674106001853943,-0.1477477252483368,0.04010697081685067
5.217326641082765,-0.31150197982788086,9.174911499023438,-0.0951780751347542,-0.15194472670555115,0.06832794100046159
5.053278446197511,-0.5508153438568115,9.391942977905273,-0.10074339807033539,-0.18093238770961764,0.07641962915658952
4.926816940307617,-0.8338229060173036,9.384197235107422,-0.08986435085535051,-0.2174205183982849,0.06747236102819444
4.9343719482421875,-0.7488467097282411,9.345209121704102,-0.08317068219184875,-0.2643060088157654,0.038339797407388694
5.100459098815918,-0.8437625169754028,9.156588554382326,-0.0854245275259018,-0.280602902173996,0.01800529658794403
5.147544860839844,-0.9177604913711548,8.964686393737795,-0.07844457775354387,-0.26457351446151733,-0.0009899633005261421
5.287432670593262,-0.7321724295616151,9.017950057983398,-0.06580238789319993,-0.23492902517318726,-0.01383830700069666
5.461026668548585,-0.8908041715621948,8.852742195129396,-0.05269776657223702,-0.19465316832065585,-0.022039666771888733
5.416691303253175,-0.6712706089019775,8.846397399902344,-0.04479700326919556,-0.14777265489101413,-0.02041253075003624
5.335626602172852,-0.38057097792625433,8.992035865783693,-0.04997103661298752,-0.12829612195491794,-0.002597986022010446
5.004110336303711,-0.5455705523490907,9.059540748596193,-0.07108516991138458,-0.12867714464664462,0.007822172716259956
4.888541221618652,-0.8220145106315614,9.252279281616211,-0.08964674919843675,-0.16104049980640414,-0.014900967478752136
4.859804630279542,-0.9494345188140869,9.241903305053711,-0.07476214319467546,-0.19639024138450623,-0.035693388432264335
4.9271864891052255,-1.2732821702957156,9.048939704895021,-0.025052046403288845,-0.23212790489196777,-0.06280390918254852
5.172534465789796,-0.9286658763885498,8.978288650512695,0.0016179694794118404,-0.2633481323719025,-0.10099621117115021
5.34128475189209,-0.43438810110092163,9.084327697753906,-0.0010706554166972637,-0.2906131148338318,-0.10629091411828996
4.789751052856445,-0.8262805342674256,9.073880195617678,-0.012376765720546247,-0.3134007453918457,-0.12440813332796098
4.694910049438477,-1.2118666172027588,9.048336029052734,0.012585625052452087,-0.36563548445701605,-0.1778804808855057
4.912874221801758,-1.0270851850509646,9.169252395629883,0.06503255665302277,-0.43035766482353216,-0.23183873295783997
5.16161870956421,-0.4371085464954377,9.205384254455568,0.06767718493938446,-0.5006979703903198,-0.255409985780716
4.741972923278809,-0.44758540391921997,9.23574733734131,0.05019811168313027,-0.5893179178237915,-0.24887399375438693
4.567507743835449,-0.4693639874458313,9.707721710205078,0.045830972492694855,-0.7495310902595521,-0.2237936705350876
4.750888824462891,-0.5947185754776001,9.543952941894531,0.0456613227725029,-0.9429470896720887,-0.21165668964385986
4.4959778785705575,-0.892419695854187,9.537700653076172,0.05199946835637093,-1.1314674615859988,-0.23952949047088623
4.78400468826294,-0.9297789931297303,9.357549667358398,0.10308349132537842,-1.320850729942322,-0.22576075792312622
5.126389503479004,0.08711522817611694,9.393571853637695,0.11655697971582414,-1.5275533199310303,-0.19338461756706238
4.940356731414796,-0.30445396900177,9.531553268432617,0.10505153238773346,-1.7580472230911257,-0.1687777042388916
5.323533535003663,0.014051198959350586,9.576174736022951,0.05342721939086914,-2.0193190574645996,-0.1370055824518204
5.347485065460206,-0.32127660512924194,9.318916320800781,0.027066409587860107,-2.2690341472625737,-0.12841984629631042
6.384001731872559,0.6497251987457275,9.75091075897217,-0.0729251354932785,-2.5137770175933842,-0.15090398490428927
5.734039783477784,-0.17005987465381625,9.394767761230469,-0.19279567897319796,-2.618549346923828,-0.20878325402736667
6.18804693222046,-1.6344825029373171,9.558260917663576,-0.030335407704114914,-2.78814697265625,-0.2447251230478287
5.241489410400391,-0.3582595884799958,8.132195472717287,0.15192402899265292,-3.1679153442382812,-0.22373513877391818
5.96378231048584,-0.299014300107956,8.601398468017578,0.42375075817108154,-3.6094644069671635,-0.4040421545505524
6.517998695373535,-0.07187497615814209,9.31501579284668,0.5978318452835083,-4.071298122406007,-0.43975406885147095
8.114010810852053,-1.1849457025527956,10.486868858337404,0.6099608540534974,-4.434034824371339,-0.3384866714477539
11.457268714904787,-0.5627442598342896,11.758237838745117,0.39667519927024847,-4.660060882568359,-0.0938447192311287
14.286286354064943,-0.6155236959457397,12.627928733825685,-0.04280757158994675,-4.595013141632081,0.07415007799863817
18.010057449340824,-1.4618489742279053,12.92048740386963,-0.2995308339595795,-4.388607025146484,-0.09958452731370927
25.736063003540043,-0.07113330066204071,10.600518226623537,-0.625059962272644,-4.149384498596191,-0.24451448023319247
30.440692901611328,-3.0261347293853764,7.099521636962891,-0.8573735356330873,-4.0438337326049805,-0.5894067883491517
30.50093269348145,-6.313787460327148,1.8717846870422363,0.0616447851061821,-4.009788990020753,-1.3113721609115603
35.1942481994629,-7.620532035827637,4.867901802062988,1.290147662162781,-3.852349281311035,-1.5910784006118777
32.18749618530274,-4.225628376007081,2.634538173675537,2.22744631767273,-3.6329796314239506,-1.7640621662139893
45.10327911376953,1.4477334022521973,18.271148681640625,1.9549837112426758,-2.910295724868775,-1.6615080833435059
28.159156799316406,4.174992561340332,16.369731903076172,1.016448974609375,-1.153180241584778,-1.621639132499695
18.895090103149418,4.022051811218262,10.934676170349123,-0.4534482061862946,-0.9288487434387207,-1.540506958961487
14.35438346862793,1.4728198051452637,8.807555198669435,-1.4587342739105225,-1.04067063331604,-1.71006715297699
11.432785987854006,-2.641288042068482,7.891246795654297,-1.8485146760940554,-1.2508130073547363,-1.9160243272781374
10.167348861694336,-6.978983402252198,9.033025741577148,-1.3314576148986816,-1.3142246007919314,-2.1545789241790776
9.657873153686523,-9.147221565246584,10.796146392822266,-0.2412170171737671,-1.0864707231521609,-2.2372756004333496
8.09202766418457,-7.750138759613038,12.53300666809082,0.7744041085243226,-0.5858455300331117,-2.1396665573120117
5.431321620941163,-5.17686414718628,12.885251045227053,1.2678110599517822,0.0760689750313759,-1.8928508758544922
1.3598152399063113,-3.2635974884033203,11.353918075561523,1.2297375202178955,0.6736291050910951,-1.5782893896102907
-3.3452570438385014,-2.9267127513885502,8.524904251098633,0.9394609928131104,0.9993121027946473,-1.3155848979949951
-6.205626487731934,-3.097213983535767,6.696169376373292,0.6140306591987611,1.0511142015457156,-1.0973210334777832
-6.24064826965332,-3.008802175521851,6.784392833709718,0.28176331520080566,1.097680449485779,-0.8141547441482544
-5.567953109741211,-3.265272617340088,7.216146469116211,0.005508340429514647,1.329951524734497,-0.4622630476951599
-5.824060440063477,-3.890984058380127,7.21753740310669,-0.15412095189094543,1.6460543870925906,-0.14847829937934875
-6.225204944610597,-3.8524596691131596,7.3299150466918945,-0.19956576824188232,1.9243764877319336,0.15484200417995456
-5.208652496337891,-2.9458117485046387,7.912028789520265,-0.3591523468494416,2.298882484436035,0.49909827113151556
-5.431638717651367,-2.720345258712769,6.819606781005859,-0.5080495476722718,2.754578113555908,0.8335959911346436
-7.218204975128175,-2.9150876998901367,4.420092582702637,-0.5361693501472474,3.0214338302612305,1.0787843465805056
-7.415998458862305,-2.291188001632691,2.8141086101531987,-0.5434490442276001,3.067122459411621,1.3271440267562868
-7.19950008392334,-1.600135087966919,1.7559911012649538,-0.5708451271057129,3.044186353683472,1.5373468399047852
-5.753517150878906,-0.9165335893630981,2.42588472366333,-0.6959593892097474,3.043919563293457,1.7112689018249512
-3.3620116710662846,-0.8488835096359253,3.5956106185913086,-0.8559122681617738,3.257112979888916,1.8958398103713991
-2.51466703414917,-0.45860943198204046,3.4963502883911133,-0.9007623791694642,3.556495904922486,2.069624900817871
-1.7045704126358034,1.122201919555664,3.1082587242126465,-0.9776654839515687,3.7864937782287598,2.2207434177398686
-0.47759318351745605,1.907311201095581,2.33414888381958,-1.0828349590301514,3.9494540691375737,2.2634179592132573
0.5442684292793275,2.361078500747681,1.6823600530624392,-1.0751702785491943,3.993223905563355,2.180771827697754
2.2581794261932377,3.1012120246887207,1.65743625164032,-1.001911282539368,3.9568994045257573,2.0009522438049316
4.539846897125245,3.578190326690674,1.8089164495468142,-0.8918136358261108,3.9259040355682377,1.7391629219055176
6.444768428802491,4.5986785888671875,1.3053740262985232,-0.7801288962364198,3.85903263092041,1.405489206314087
8.730428695678711,4.305704116821289,0.42943835258483887,-0.6960150003433228,3.676528692245484,1.0001049041748047
12.148172378540039,3.547616481781006,0.6401869654655458,-0.5610675215721131,3.3970777988433842,0.6318715810775757
15.394591331481935,2.7173202037811284,0.7396731376647949,-0.40517038106918335,3.1640884876251225,0.4033305048942566
17.163204193115234,2.4180295467376713,-0.29560667276382446,-0.232048898935318,2.90292763710022,0.31993511319160467
18.166604995727543,2.6005151271820073,-1.550016760826111,-0.16050413250923157,2.4981849193573002,0.3535972833633423
18.452896118164062,2.115535974502564,-2.7638385295867924,-0.14237162470817566,2.001347541809082,0.4480527341365815
17.116117477416996,1.2838593721389773,-4.054418563842773,-0.08479010313749315,1.4506464004516602,0.6168066859245301
14.379487991333008,0.7265838384628296,-5.9742841720581055,-0.017116032540798187,0.8189833760261537,0.9087353348731996
71.65263366699219,8.810407638549805,-1.9510211944580078,-1.6109091043472292,-1.2517859935760498,1.7395900487899782
37.108173370361335,29.190710067749027,14.616299629211428,0.3066498041152954,2.9490737915039062,1.527151942253113
13.319396018981935,0.18932148814201355,16.10082817077637,-1.018543839454651,2.0905189514160156,-0.2624639570713044
-4.812713623046875,-7.172974109649659,10.041311264038086,-0.27803215384483343,2.2663021087646484,0.658130407333374
-5.291609287261964,5.231711387634277,14.151137351989748,0.44587907195091253,1.2779004573822021,-0.135582372546196
1.8032742738723757,-11.754974365234375,12.320209503173828,0.7050300240516664,0.6686061024665834,-0.6043075323104858
0.3329961895942688,-5.820021629333496,12.621718406677248,0.5170806050300599,0.023045890033245087,-0.39306446909904486
4.702670097351074,4.596316337585449,10.959385871887209,0.34519764780998236,-0.34030693769454956,-0.5828713178634644
7.912924766540527,0.8516225814819336,8.557743072509766,0.1403869092464447,-0.201980397105217,-0.412026584148407
7.794137954711914,1.5403372049331667,8.214685440063477,0.14277489483356479,-0.03471902385354043,-0.12635797262191772
7.001439094543457,0.8138004541397095,8.314258575439453,0.019532717764377594,0.19675962626934054,0.07470084726810455
5.892754554748535,-1.261552691459656,8.491727828979492,-0.05457626283168793,0.3957581222057343,0.12361112982034685
5.063469409942628,-2.132970571517945,8.866214752197266,-0.00796379614621401,0.4799323081970215,0.03374524787068368
4.317063808441163,-0.027444422245025635,9.855911254882812,0.004217055160552264,0.46239557862281805,-0.012550164014101028
4.266983509063722,0.9329359531402588,10.22750473022461,-0.11682211607694627,0.3529103398323059,0.08205056935548784
3.9775693416595463,0.40185898542404175,10.159169197082521,-0.1900431513786316,0.19102843105793002,0.17041139304637912
4.24888563156128,-0.6813377141952515,9.977940559387209,-0.17375184595584872,0.03483753651380539,0.1783206015825272
4.225515365600586,-0.7163259983062744,9.90618419647217,-0.19980916380882263,-0.0783824473619461,0.15548159182071689
4.350760936737061,-0.7863239645957948,9.750689506530763,-0.22903801500797275,-0.163424551486969,0.12605960667133334
4.57261848449707,-0.42374300956726074,9.766341209411623,-0.24006469547748568,-0.23392054438591003,0.10944536328315735
4.81006669998169,-0.1724233627319336,9.57498550415039,-0.26142886281013494,-0.2948480248451233,0.1191399320960045
4.810569286346436,-0.36320972442626953,9.583406448364258,-0.29029273986816406,-0.36102813482284546,0.1306281536817551
4.899771690368652,-1.0606487989425661,9.413348197937013,-0.30341655015945435,-0.41032454371452337,0.1513628363609314
4.702507019042969,-0.8342334628105165,9.523157119750977,-0.32261478900909424,-0.4770143330097199,0.14204432070255282
4.971185684204102,-1.1665940284729004,9.296627044677734,-0.32056915760040283,-0.5091442465782167,0.11934369802474976
5.199082851409913,-1.0607856512069704,9.008162498474123,-0.3141646981239319,-0.5052148103713989,0.11457214504480363
5.088252544403077,-0.8500332832336426,9.177202224731445,-0.3157471120357514,-0.49845463037490845,0.1042197272181511
5.171572208404542,-1.1019654273986816,9.178619384765625,-0.29757639765739446,-0.48161619901657104,0.08919759094715118
5.069509029388429,-1.0937037467956543,9.129379272460938,-0.2771986126899719,-0.486386924982071,0.08184666931629181
5.0767273902893075,-1.0941083431243896,9.308879852294922,-0.2633704841136933,-0.520650088787079,0.07888667285442352
5.066740512847901,-1.3716516494750977,9.081125259399414,-0.26776388287544256,-0.5344544649124146,0.05319697782397271
5.3480730056762695,-1.2838289737701416,9.081601142883303,-0.2629747092723847,-0.5441060066223145,0.04168807715177536
5.3969998359680185,-1.2681052684783936,8.751259803771974,-0.24584646522998813,-0.5198346376419067,0.050811696797609336
5.3217010498046875,-1.4707421064376833,8.695614814758303,-0.2555921673774719,-0.4982661008834839,0.04379978403449059
5.546287536621094,-1.5758702754974365,8.526478767395021,-0.2451818585395813,-0.4723032414913178,0.03837557137012482
5.591582775115968,-1.2327041625976562,8.73241710662842,-0.2221776247024536,-0.4526312649250031,0.04528056457638741
5.338677883148194,-1.2325900793075564,8.871878623962404,-0.2237623929977417,-0.4456566274166108,0.039677694439888
5.297739028930664,-1.6867172718048096,8.770902633666992,-0.20648875832557678,-0.4450340270996094,0.03029916994273663
5.181866645812988,-1.8004276752471924,8.672869682312013,-0.1537722647190094,-0.4456487596035004,0.019762929528951645
5.2383999824523935,-1.8959314823150635,8.67901134490967,-0.1223220005631447,-0.46083569526672363,-0.019066661596298218
5.460864067077637,-1.8708035945892334,8.624669075012209,-0.09242911636829376,-0.4675001204013825,-0.05990593135356903
5.751822471618652,-1.8553998470306396,8.472886085510256,-0.07021640986204149,-0.45896765589714056,-0.11125494539737701
5.4757490158081055,-1.8199542760849001,8.462965965270998,-0.041067507117986686,-0.4435964822769165,-0.16490770876407626
5.48417615890503,-1.6038286685943604,8.547977447509766,0.0016913543222472074,-0.4487874507904053,-0.21184155344963074
5.598522186279297,-1.7574214935302734,8.298603057861328,0.060348007827997215,-0.43698668479919434,-0.26888307929039007
5.402547836303711,-1.5777355432510378,8.49790668487549,0.10447421669960022,-0.45693135261535645,-0.31210163235664373
5.88641119003296,-1.150811314582825,8.398843765258789,0.15408374369144442,-0.485440194606781,-0.3447218835353852
5.988292694091797,-1.2052085399627686,8.294731140136719,0.16817571222782138,-0.47634392976760864,-0.35921406745910645
5.900228023529054,-0.8581492900848389,8.524848937988281,0.16557411849498752,-0.4773385524749756,-0.3467721641063691
5.798892974853516,-0.3374819755554199,8.621922492980959,0.12570007145404818,-0.5024216771125795,-0.29786139726638794
5.312180519104004,-0.6914237141609193,8.955027580261232,0.09445060789585114,-0.5827783942222596,-0.2635301947593689
5.193595409393311,-0.9593653678894043,8.885745048522951,0.12227213382720947,-0.7311286330223085,-0.23381684720516208
5.263522624969483,-0.8500787615776063,8.836111068725586,0.12480512261390686,-0.8979586958885194,-0.22319012880325317
5.587327003479004,-0.8211249709129335,8.669164657592773,0.11525695025920868,-1.0431580543518066,-0.23411868512630465
5.569253444671632,-0.9920951128005981,8.989251136779787,0.12626266479492188,-1.1799279451370241,-0.2563079595565796
5.8761186599731445,-0.6773239374160767,9.088433265686037,0.12559850513935092,-1.3019123077392578,-0.2694796323776245
6.168469429016113,-0.5203691124916078,8.647802352905273,0.07324160635471344,-1.4183596372604372,-0.2768239378929138
7.265073776245117,-0.1675487756729126,8.8548583984375,0.04626885429024697,-1.5144463777542116,-0.2721332907676697
6.237386226654054,-0.6233147382736206,8.884194374084474,-0.00804982613772154,-1.5657193660736084,-0.25197473168373113
5.76101016998291,-1.146921157836914,8.893138885498047,-0.013851778581738472,-1.768109440803528,-0.28016981482505804
5.675746917724609,-1.6947317123413086,9.303004264831545,0.13348019123077393,-1.968065142631531,-0.32268375158309937
5.153230667114258,-1.564542889595032,8.60110855102539,0.2737123966217041,-2.3281707763671875,-0.4051607549190522
5.433742046356202,-1.899102568626404,8.460615158081055,0.365841418504715,-2.713599681854248,-0.5150950551033021
5.589905738830566,-1.837317705154419,8.53982448577881,0.45819309353828436,-3.1706857681274414,-0.599543571472168
6.187122821807862,-1.6480723619461062,8.250189781188967,0.5747251510620117,-3.6301548480987553,-0.6886522769927979
6.778472900390625,-1.1406452655792236,7.984728813171387,0.6519708037376405,-4.102404117584229,-0.7568763494491577
7.707811832427979,-0.1339582055807114,8.777488708496094,0.730154275894165,-4.611958980560304,-0.7634052038192749
9.490639686584474,1.1192774772644043,9.372515678405763,0.7576835751533509,-4.978024482727051,-0.6587377786636353
10.816507339477539,1.6381431818008425,9.750115394592287,0.6938611268997192,-5.071732997894288,-0.4447581171989441
13.205198287963867,0.5797813534736634,9.893574714660646,0.5389022827148438,-4.923066139221191,-0.3122639954090119
16.19982719421387,-1.2407940626144411,9.564877510070803,0.40463507175445557,-4.500205516815186,-0.23187211155891418
22.91412353515625,-1.8300839662551882,10.418479919433594,0.24701747298240662,-3.9339087009429936,-0.21206401288509372
22.12960243225098,-0.735175371170044,8.61974620819092,-0.22687302529811862,-3.250354290008545,-0.29297795891761785
20.61593246459961,-0.014747142791748047,5.253716468811035,-0.8337484002113343,-2.803266286849976,-0.431715190410614
17.76779365539551,-2.788570642471314,-1.732746481895447,-0.825030028820038,-3.1717276573181152,-0.9565786719322206
24.07503700256348,-3.2579019069671635,-1.5571129322052002,-0.1423632800579071,-3.5452668666839604,-1.577484965324402
21.725233078002933,-2.197018623352051,-1.5745000839233398,0.834141731262207,-3.681714773178101,-2.3288521766662598
19.484647750854496,-0.11306862533092499,-2.8515090942382812,1.5734384059906006,-4.233521461486816,-2.9851949214935307
29.748043060302734,3.588347673416138,4.236660003662109,1.564366936683655,-4.784143447875977,-3.3376863002777104
27.588914871215824,3.5301785469055176,9.801912307739258,1.0990207195281982,-3.9216926097869877,-3.4194977283477788
21.72243881225586,3.533543109893799,7.97032117843628,0.25484719872474676,-3.540262222290039,-3.30339789390564
