AccX,AccY,AccZ,GyrX,GyrY,GyrZ
0.00017759295587893578,-4.521725350059569e-05,0.00042093734373338526,2.3141917893099165e-07,2.7302624516778456e-07,-1.1485873585570516e-07
4.100834846496582,-1.0699694156646729,9.717779159545898,0.0066625867038965225,0.009866218082606794,-0.002132965251803398
4.060300827026367,-1.0959136486053467,9.708480834960938,0.009177341125905515,0.013105688616633415,-0.0016450758557766676
4.106049537658691,-1.0771985054016113,9.750110626220703,0.011654244735836983,0.0168770793825388,0.0012946662027388811
4.101185321807862,-1.0580081939697266,9.730519294738771,0.014330315403640272,0.017278177663683895,0.0025464212521910667
4.095690250396729,-1.0780702829360964,9.745995521545412,0.015405073761940002,0.021007759496569637,0.003972809761762619
4.07366704940796,-1.1216487884521484,9.713430404663086,0.02065970934927464,0.021765027195215225,0.002526761032640934
4.0751190185546875,-1.1153340339660645,9.710271835327148,0.023221163079142574,0.02569209411740303,0.004308307077735663
4.087141513824464,-1.0638231039047243,9.716437339782717,0.02844544686377049,0.030704645439982418,0.0018831421621143818
4.082697868347168,-1.013066291809082,9.742549896240234,0.026910973712801937,0.032656051218509674,0.003986948635429145
3.9962034225463867,-1.0659080743789675,9.699572563171388,0.022524418309330944,0.032760269939899445,0.00955197773873806
3.881218433380127,-1.1633232831954958,9.689825057983398,0.023166423663496975,0.026152994483709335,0.0018468346679583194
3.8769690990448002,-1.1674326658248904,9.734761238098146,0.023450242355465892,0.010663847438991072,-0.00925937108695507
4.020964622497559,-0.9935111999511719,9.754579544067383,0.019529622048139572,0.0004203042772132904,-0.01463722251355648
4.019266605377198,-0.9880856275558472,9.76309108734131,0.011610003188252449,-0.0007499000639654697,-0.01293610129505396
4.046594142913819,-1.0707743167877197,9.756423950195312,0.00929501559585333,-0.004175188019871712,-0.013458718545734884
4.047584533691406,-1.090646743774414,9.749139785766602,0.011430071666836739,-0.0024154959246516228,-0.013027579523622991
4.032701015472413,-1.0897642374038699,9.737600326538086,0.012522910721600057,-0.0017280748579651117,-0.014968420378863813
4.038363933563233,-1.0988819599151611,9.741273880004883,0.014606441371142866,-0.0010492459405213594,-0.018031585961580276
4.019732475280762,-1.0452519655227663,9.746759414672852,0.01644747331738472,-0.0024155636783689265,-0.018292438238859177
4.034010410308839,-1.023712158203125,9.769274711608888,0.014245246537029745,-0.0023284114431589846,-0.01624760404229164
4.028180122375488,-1.014709711074829,9.75538444519043,0.011047861538827421,-0.003763854503631592,-0.014572155661880972
3.987093448638916,-1.035368323326111,9.738161087036133,0.009342529810965063,-0.006605798378586769,-0.013169178739190102
3.9786326885223393,-1.039563298225403,9.75518321990967,0.004507436882704497,-0.011663034558296204,-0.015977380797266964
4.009600162506104,-1.0455302000045779,9.758356094360352,0.004524542018771172,-0.015452815219759941,-0.015456712804734709
4.010677337646484,-1.0094740390777588,9.748516082763672,-0.0002399412915110588,-0.016740826889872554,-0.01512112095952034
4.017262935638429,-1.0514576435089111,9.75759029388428,-0.001962803537026048,-0.020499367266893387,-0.01557544618844986
4.052837371826172,-1.0509288311004639,9.753018379211428,-0.0024872983340173964,-0.018566884100437164,-0.01420691702514887
4.03774118423462,-1.039295792579651,9.743659973144531,-0.0033648635726422076,-0.019623933359980587,-0.014341754838824272
4.0463714599609375,-1.0460721254348757,9.735931396484375,-0.0025997539050877094,-0.018389252945780758,-0.012598834931850433
4.0466370582580575,-1.0499587059020996,9.737316131591797,-0.005044894758611918,-0.01624108850955963,-0.012679388746619225
4.067890644073487,-1.0417218208312988,9.733850479125977,-0.005779239814728499,-0.01606622338294983,-0.011967589147388937
4.032098770141602,-1.0774971246719363,9.72545909881592,-0.0037122704088687897,-0.015361733734607697,-0.010617290623486044
4.037210464477539,-1.0563777685165407,9.754452705383303,-0.0020907965954393153,-0.014293111860752106,-0.011517635546624662
4.041970729827882,-1.043452858924866,9.744334220886232,-0.0025746205355972056,-0.014214696362614632,-0.010556703433394432
3.992130756378174,-1.0789730548858643,9.720800399780273,-0.002067880937829614,-0.014922179281711578,-0.013318049721419813
3.992837905883789,-1.0822719335556032,9.728119850158693,-0.0004482894728425891,-0.019429108127951625,-0.014835083857178688
3.98026704788208,-1.0600101947784424,9.725985527038576,-0.00394304795190692,-0.024224169552326202,-0.018292324617505077
4.016468048095703,-1.0495917797088623,9.75110721588135,-0.005386103875935078,-0.027668802067637447,-0.018551627174019817
4.052175045013429,-1.0546181201934814,9.72935199737549,-0.004984649363905192,-0.02935551106929779,-0.01718164794147015
4.0541839599609375,-1.026148796081543,9.75396728515625,-0.0065196952782571324,-0.027775617316365245,-0.017214931547641754
4.0342607498168945,-1.0744524002075195,9.738969802856445,-0.006538703106343746,-0.02777270041406155,-0.017047323286533356
4.084572792053223,-1.0566723346710205,9.757884979248047,-0.005381792783737183,-0.02853106148540974,-0.018242510035634044
4.071779251098633,-1.0724666118621826,9.74979019165039,-0.005358174443244934,-0.025462673977017406,-0.016910657286643982
4.0683960914611825,-1.025975227355957,9.756200790405273,-0.00494302436709404,-0.02165275439620018,-0.016925839707255367
4.068421363830566,-1.031621813774109,9.742700576782227,-0.00570656592026353,-0.019735906273126602,-0.01424295920878649
4.048017024993897,-1.0700139999389648,9.72428607940674,-0.0041887396946549416,-0.017724340781569484,-0.011937436647713186
4.021834373474121,-1.0649391412734988,9.744694709777834,-0.004008885473012924,-0.01983815245330334,-0.013827545568346977
4.011256694793702,-1.0883092880249023,9.707954406738281,-0.002924318891018629,-0.019206028431653976,-0.013775638304650785
4.023994445800781,-1.0672415494918825,9.724980354309084,-0.00031533717992715543,-0.02095906063914299,-0.017012042924761776
4.03018617630005,-1.0680792331695557,9.77455806732178,-0.0022626018617302184,-0.024469200521707535,-0.0185159370303154
4.0659074783325195,-1.0063632726669314,9.731371879577638,-0.0031075691804289818,-0.024152623489499096,-0.018100649118423462
4.106206893920898,-1.0166038274765017,9.734923362731935,-0.0042088967747986325,-0.022237988188862804,-0.014010215178132057
4.103925228118897,-1.0395621061325075,9.731733322143555,-0.0035560128744691615,-0.019729185849428177,-0.011002262122929098
4.08056402206421,-1.0711897611618044,9.74846935272217,-0.002835229504853487,-0.016410795971751217,-0.009314655326306822
4.064884662628175,-1.089008927345276,9.734419822692873,-0.0011525277514010668,-0.01346957962960005,-0.010768657550215721
4.053936958312988,-1.0508289337158203,9.723644256591797,-0.002496662782505155,-0.015042896382510664,-0.010011432692408562
4.067117214202882,-1.044966459274292,9.751655578613281,-0.002883142326027155,-0.013161784969270231,-0.008597992360591888
4.033760070800781,-1.0484079122543337,9.740180969238281,-0.004334811121225357,-0.013954379595816137,-0.010986509732902052
4.041101455688477,-1.0798891782760622,9.71715831756592,-0.0032497097272425894,-0.015223696827888489,-0.01032939460128546
4.045880317687988,-1.0749037265777588,9.714912414550781,-0.003073187544941902,-0.015298046171665192,-0.012013182975351812
4.0533461570739755,-1.0646594762802126,9.71574115753174,0.0003599377232603729,-0.017881775274872783,-0.0127149298787117
4.033782005310059,-1.06018602848053,9.725505828857422,-0.0012545608915388584,-0.018681259825825695,-0.011754500679671766
4.055966377258301,-1.0520673990249636,9.743994712829592,-0.0015211742138490083,-0.01856198161840439,-0.014451271854341032
4.0890703201293945,-1.034062743186951,9.738492012023928,-0.0005306045059114695,-0.017328236252069473,-0.01339694391936064
4.083097934722901,-1.0383030176162722,9.72295665740967,3.584345540730283e-05,-0.01514833699911833,-0.011424027383327484
4.091911792755128,-1.0739593505859375,9.729769706726076,-0.0002181779418606311,-0.011984867043793203,-0.01181111764162779
4.066446781158448,-1.068903923034668,9.716780662536623,0.002845525275915861,-0.012313337065279486,-0.010198596864938736
4.034770965576172,-1.0799272060394287,9.742591857910156,0.001996529055759311,-0.010137139819562437,-0.012112006545066833
4.027246475219727,-1.0739364624023438,9.732340812683107,0.0013475745217874648,-0.013298042118549347,-0.013505277223885061
4.055354595184327,-1.068040728569031,9.737550735473633,-0.0001137173967435956,-0.015648221597075466,-0.012718747369945051
4.050305366516113,-1.045048475265503,9.72494888305664,-0.00034770040656439965,-0.01604606583714485,-0.013585723005235197
4.071205139160156,-1.0515382289886475,9.730257034301758,-0.0010881349444389343,-0.013211250305175781,-0.012600471265614034
4.114833831787109,-1.0600621700286865,9.738440513610842,-0.0006120018661022186,-0.01432542596012354,-0.011483723297715187
4.079240322113038,-1.0496464967727663,9.718664169311523,0.0011306882370263338,-0.011617650277912618,-0.009812665171921255
4.08686399459839,-1.0614395141601562,9.72184944152832,0.00025548544363118714,-0.010652624070644379,-0.01018368359655142
4.053211212158203,-1.0696110725402832,9.724987983703615,0.0014959133695811033,-0.009363461285829544,-0.007812622003257276
4.046710968017578,-1.0690253973007204,9.72672748565674,0.0004665249725803733,-0.00864392798393965,-0.009877843782305717
4.046581745147706,-1.061359524726868,9.73828983306885,-0.00032832904253154993,-0.010402328334748747,-0.008473775349557401
4.009307861328125,-1.0908344984054568,9.722462654113771,-0.00039031205233186483,-0.010959380306303503,-0.010364735499024391
4.064855575561523,-1.053652048110962,9.725848197937013,-2.8156588086858392e-05,-0.012134000658988953,-0.012893565930426122
4.083459377288819,-1.0315032005310059,9.719217300415039,-0.002437430899590254,-0.014525515027344229,-0.011691246181726456
4.076699733734132,-1.0384742021560671,9.715608596801758,-0.0010240485426038504,-0.012788799591362478,-0.010361650027334692
4.069811344146729,-1.0579392910003662,9.71995735168457,-0.0016661589033901691,-0.011115481145679952,-0.009844992309808731
4.084590911865234,-1.0485135316848757,9.743335723876953,-0.00013190320169087502,-0.0112135810777545,-0.009244861081242561
4.088532447814941,-1.0624011754989626,9.720608711242678,-0.001779504236765206,-0.010139690712094307,-0.0076844082213938245
4.064685344696046,-1.0690360069274902,9.72654438018799,-0.0006195088499225677,-0.01140366680920124,-0.007213917560875416
4.0602264404296875,-1.0750408172607422,9.72285556793213,0.00048280839109793305,-0.009639349766075613,-0.009062487632036209
4.036869049072266,-1.076852798461914,9.722355842590334,0.001011154497973621,-0.008960005827248098,-0.009585164487361908
4.0269317626953125,-1.0674810409545898,9.722386360168459,0.000463814300019294,-0.01206482481211424,-0.011282291263341904
4.049135684967042,-1.0559189319610596,9.761030197143555,-0.0002154348621843383,-0.014692189171910286,-0.012457378208637238
4.056819915771484,-1.0514624118804932,9.73229503631592,-0.001656088512390852,-0.015073441900312902,-0.011728890240192413
4.060986518859863,-1.0384540557861328,9.71322250366211,-0.002758346730843187,-0.015737308189272884,-0.010875532403588295
4.0650343894958505,-1.0724486112594607,9.727419853210451,-0.0035320108290761714,-0.015717189759016037,-0.011274305172264578
4.083038330078125,-1.0493527650833132,9.71787738800049,-0.0029027778655290604,-0.014914208091795446,-0.00890955235809088
4.096040725708008,-1.06101393699646,9.723665237426758,-0.0029881286900490527,-0.011598195880651474,-0.008239106275141241
4.075526237487793,-1.0653789043426514,9.742269515991211,-0.0018386880401521921,-0.012386901304125786,-0.00842771213501692
4.0550642013549805,-1.0743552446365359,9.71193599700928,0.00028201891109347343,-0.009817610494792463,-0.00792219489812851
4.057070255279542,-1.0597167015075684,9.73873805999756,-0.00053837284212932,-0.00883001834154129,-0.0077595580369234085
4.043923377990723,-1.06547486782074,9.697559356689453,0.0005234291893430055,-0.010237541049718857,-0.008465097285807134
4.0422515869140625,-1.0712200403213503,9.752949714660646,0.0006814419175498189,-0.011227908544242384,-0.0099375881254673
4.044006824493409,-1.0845530033111572,9.74215316772461,0.0002498855465091765,-0.013381428085267546,-0.01214325986802578
4.061608791351319,-1.0548299551010134,9.728797912597656,-0.00222527445293963,-0.015218149870634079,-0.012057105079293251
4.077198505401612,-1.0664198398590088,9.726634025573732,0.000543949950952083,-0.013470342382788658,-0.011523543857038023
4.072266578674316,-1.0776108503341677,9.727909088134766,0.0016875384608283641,-0.013550584204494955,-0.012490272521972656
4.083740234375,-1.079902768135071,9.705016136169435,0.0019708601757884026,-0.01180055644363165,-0.012744305655360222
4.075823783874512,-1.0710256099700928,9.72147846221924,0.003311930457130075,-0.010502992197871208,-0.011789213865995407
4.067388534545898,-1.0626530647277832,9.732548713684084,0.0026399830821901564,-0.011715969070792198,-0.011777774430811407
4.048793315887452,-1.0666455030441286,9.740551948547365,0.002567477757111192,-0.010674626566469671,-0.011714186519384384
4.066483497619629,-1.0552686452865603,9.74381732940674,0.0033994012046605353,-0.011916087940335274,-0.014125981368124487
4.08356523513794,-1.0450266599655154,9.745141029357912,-0.0005415568593889475,-0.011407273821532728,-0.011389286257326605
4.053509235382081,-1.042907953262329,9.71237087249756,-0.0013428520178422334,-0.014004139229655266,-0.010354383848607542
4.073450565338136,-1.0586977005004883,9.693440437316896,-0.00010318381828255951,-0.013829978182911873,-0.011706200428307058
4.061415195465089,-1.071056842803955,9.698653221130373,-0.001516152988187969,-0.01633381098508835,-0.013043091632425787
4.063999176025391,-1.0620440244674685,9.718253135681154,-0.00020761959603987634,-0.016063632443547252,-0.012924288399517538
4.086202621459961,-1.0521466732025146,9.73768711090088,-0.0007201654370874166,-0.013883375562727453,-0.011750364676117897
4.077485084533691,-1.0568436384201052,9.738868713378906,-0.0013350982917472722,-0.014109523035585882,-0.01170126162469387
4.0693254470825195,-1.0482779741287234,9.745873451232912,-0.001012065331451595,-0.013044105842709541,-0.010787756182253362
4.091219902038574,-1.079672455787659,9.740457534790039,0.0005848270957358183,-0.011175829917192459,-0.009700577706098557
4.0717878341674805,-1.0978924036026003,9.715106010437013,0.0025230061728507285,-0.010108405724167824,-0.00817584712058306
4.041164398193359,-1.0635448694229128,9.739429473876953,0.003437145380303264,-0.011209621094167234,-0.00981052964925766
4.066440582275391,-1.0627148151397705,9.721875190734865,0.001635412685573101,-0.012424633838236334,-0.00968971662223339
4.068742752075195,-1.0700933933258057,9.738458633422852,0.002405659295618534,-0.011766294948756697,-0.013025588355958463
4.058150291442871,-1.0619087219238281,9.743861198425295,0.0010737483389675617,-0.013984591700136663,-0.01443629153072834
4.088925361633301,-1.0511562824249268,9.708967208862305,0.00222019013017416,-0.01174050010740757,-0.015129552222788336
4.079965591430664,-1.0679059028625488,9.711844444274904,-0.0006509316153824329,-0.013514938764274122,-0.011585978791117668
4.07093381881714,-1.062107801437378,9.710865974426271,-0.00027212736313231295,-0.013362182304263115,-0.011573990806937218
4.069896697998047,-1.0661633014678955,9.727384567260742,-0.0011431922903284433,-0.012113751843571663,-0.011364667676389219
4.050467967987061,-1.0832020044326784,9.723333358764648,-0.00034603846142999833,-0.013627790845930578,-0.013950277119874954
4.090172290802003,-1.0566126108169558,9.733461380004883,0.0007992800674401225,-0.012726565822958946,-0.012320959009230139
4.070436954498292,-1.0649218559265137,9.72504997253418,0.0009154560975730419,-0.012546013109385969,-0.011653116904199125
4.071202278137207,-1.050079941749573,9.744606018066406,0.0006085532950237393,-0.013110498897731306,-0.012561194598674774
4.088496208190918,-1.1195834875106814,9.725774765014648,0.0016755607211962344,-0.012237171642482282,-0.013817686587572098
4.068556785583496,-1.0335644483566286,9.73668098449707,0.0032385895028710365,-0.011671385727822782,-0.013651879504323006
4.08647346496582,-1.0545276403427126,9.740296363830568,0.0023778725881129508,-0.01441742479801178,-0.013353543356060982
4.081340789794922,-1.0520726442337038,9.715660095214844,0.003090652171522379,-0.011581725440919401,-0.014921223744750023
4.057465076446534,-1.059119701385498,9.709527969360352,0.004232125356793404,-0.013163084164261818,-0.014258761890232565
4.058963298797608,-1.0957787036895752,9.731024742126467,0.003918010741472244,-0.012830053456127645,-0.017188522964715958
4.083993911743164,-1.0337135791778564,9.75764274597168,0.0056746271438896665,-0.012948904186487198,-0.015874285250902176
4.073697090148926,-1.056798338890076,9.731332778930664,0.006036029662936927,-0.012416763231158257,-0.0168269407004118
4.087127685546875,-1.034184455871582,9.726299285888672,0.00453668087720871,-0.011528385803103447,-0.015688447281718258
4.058943271636964,-1.0733251571655273,9.737473487854006,0.004986514337360859,-0.010814902372658254,-0.015384849160909653
4.054648876190186,-1.0762156248092654,9.725068092346193,0.005046344827860595,-0.012824559584259987,-0.017183955758810043
4.095725059509277,-1.0156192779541016,9.731172561645508,0.0031801853328943253,-0.011040498502552511,-0.01575540006160736
4.065023422241211,-1.0564655065536501,9.720846176147461,0.0031036389991641045,-0.008324189111590385,-0.014420234598219396
4.063220500946046,-1.0524758100509646,9.71146011352539,0.0013379029696807267,-0.011441655457019806,-0.014941089786589147
4.069659233093262,-1.0809524059295654,9.731791496276857,0.0023273502010852103,-0.014579938724637032,-0.016107216477394104
4.080102920532227,-1.0359028577804568,9.707500457763672,0.0029794923029839993,-0.014971339143812658,-0.01584170013666153
4.061334133148194,-1.0486795902252197,9.727645874023438,0.0016811252571642399,-0.016997262835502625,-0.014789090491831304
4.092267513275147,-1.0242350101470947,9.763018608093263,0.0012930587399750948,-0.01588663645088673,-0.016608212143182755
4.085351943969727,-1.0804129838943484,9.734900474548342,0.0009260029182769359,-0.01687319576740265,-0.015584137290716171
4.110711574554444,-1.0310593843460085,9.707686424255373,-0.0015651760622859001,-0.016361074522137645,-0.014061201363801956
4.094121456146241,-1.0852081775665283,9.726303100585938,0.00035335985012352467,-0.01511855237185955,-0.014928701333701612
4.099771022796632,-1.0133016109466553,9.708279609680178,-0.0006805892335250974,-0.014668376184999945,-0.014694223180413246
4.058820724487305,-1.1068116426467898,9.714197158813477,0.001719052204862237,-0.013530774973332884,-0.013412390835583212
4.084625720977784,-1.0450725555419922,9.719079971313477,0.003464634763076902,-0.014296656474471092,-0.016102263703942302
4.061928272247315,-1.0647679567337038,9.722497940063477,0.0026024885009974246,-0.01234469097107649,-0.017050903290510178
4.0875244140625,-1.0515031814575195,9.714176177978516,0.002784748794510961,-0.014831328764557838,-0.014921068213880064
4.079236507415772,-1.0722904205322266,9.70625400543213,0.0030197766609489918,-0.013612602837383749,-0.014346898533403875
4.061486721038819,-1.0583814382553103,9.721294403076172,0.004254184663295746,-0.015521437861025335,-0.014870686456561089
4.104128360748292,-1.0184837579727175,9.730492591857912,0.005740512628108264,-0.014352067373692991,-0.016026750206947327
4.099174976348878,-1.0293122529983523,9.724370956420898,0.001255450653843582,-0.014951502904295921,-0.014573308639228346
4.071922779083253,-1.0505459308624268,9.754646301269531,0.00045464630238711834,-0.015553497709333898,-0.014595958404242994
4.099023342132569,-1.0700287818908691,9.765905380249023,0.0014050777535885572,-0.015597055666148664,-0.013331236317753792
4.098308086395265,-1.0435332059860232,9.724372863769531,0.0013972780434414747,-0.014944798313081266,-0.013572519645094872
4.102052688598633,-1.0417366027832031,9.692662239074709,0.0012637757463380697,-0.012608641758561134,-0.012141424231231214
4.085350036621094,-1.0702908039093018,9.688540458679201,0.003305460326373577,-0.011609279550611975,-0.011609473265707495
4.077101230621339,-1.0929797887802126,9.702672004699709,0.005837577395141125,-0.010580352507531645,-0.015550928190350533
4.073022365570069,-1.0761010646820068,9.70446300506592,0.01005393732339144,-0.009970475919544699,-0.015813209116458893
4.064116001129151,-1.0760245323181152,9.716099739074709,0.011172208003699781,-0.009488118812441826,-0.019596235826611522
4.067442417144776,-1.0413286685943604,9.753281593322756,0.010752233676612379,-0.010614084079861641,-0.02096071094274521
4.09223747253418,-1.0403649806976318,9.70741367340088,0.009591341949999334,-0.011197514832019806,-0.020916411653161052
4.086750030517578,-1.033269286155701,9.71963119506836,0.010702542960643768,-0.012979360297322273,-0.020015815272927288
4.096432685852051,-1.0547595024108887,9.700645446777344,0.008130040951073171,-0.012590793892741203,-0.018189849331974987
4.115408420562745,-1.057472109794617,9.673289299011232,0.010283082723617554,-0.00782404560595751,-0.01823883689939976
4.090411663055421,-1.0982801914215088,9.72261142730713,0.014527008868753912,-0.005369509570300579,-0.017960285767912868
4.078525066375733,-1.0361547470092773,9.711204528808594,0.015377487987279892,-0.004965747706592083,-0.02078630216419697
4.088629722595215,-1.0150763988494873,9.724061965942383,0.013156040571630003,-0.005807947367429733,-0.021102821454405788
4.094367504119874,-1.055732607841492,9.728179931640625,0.012625318951904775,-0.006314500235021114,-0.018236350268125534
4.073218822479249,-1.0413657426834109,9.743483543395998,0.01228227373212576,-0.00434105284512043,-0.018304830417037014
4.086316585540772,-1.0379209518432617,9.704115867614748,0.012980262748897077,-0.0022012472618371253,-0.01684434339404106
4.105437755584718,-0.9902235269546509,9.726675987243654,0.013125905767083168,-0.002161377808079124,-0.015353912487626076
4.085778713226319,-1.0190993547439577,9.72850227355957,0.009735715575516226,-0.0036534108221530914,-0.014116154983639717
4.075019359588624,-1.0305900573730469,9.722265243530273,0.010585200972855093,-0.004236066713929176,-0.013838944025337698
4.091411113739015,-1.0412803888320925,9.711987495422365,0.01060611754655838,-0.0046937596052885056,-0.013388504274189474
4.047874927520753,-1.043572187423706,9.731182098388672,0.008720590732991697,-0.005044860765337944,-0.013918655924499037
4.079542636871339,-1.0236243009567263,9.733196258544922,0.01054209377616644,-0.005149443633854389,-0.015045855194330215
4.1208600997924805,-0.9940650463104248,9.724274635314943,0.00978248193860054,-0.0034342377912253146,-0.012912575155496597
4.1267762184143075,-0.9995565414428711,9.699386596679688,0.010970571078360082,-0.00010950379510177301,-0.010139690712094307
4.117472171783448,-1.0046117305755615,9.715513229370117,0.011017883196473122,0.003206352470442653,-0.008834106847643852
4.100273132324219,-1.0303740501403809,9.745695114135742,0.011876231990754606,0.0052392370998859406,-0.006657678633928299
4.052940845489503,-1.0324203968048096,9.727280616760256,0.012380591593682768,0.006839439272880554,-0.006851626094430686
4.034475326538086,-1.0516889095306396,9.761466979980469,0.01183619350194931,0.0030120094306766987,-0.008028193376958372
4.070110797882081,-1.024172067642212,9.732594490051271,0.010990488342940809,0.00044414401054382324,-0.009254344739019872
4.041831970214844,-0.998898983001709,9.727985382080078,0.007835847325623037,-0.0010519754141569138,-0.010214969515800476
4.054671287536621,-1.028947114944458,9.723283767700195,0.005311713088303805,-0.004805250093340874,-0.00971724931150675
4.066116809844972,-0.9870843887329102,9.731938362121584,0.005555357784032822,-0.005362039431929588,-0.009887031279504301
4.045478820800781,-1.0259873867034912,9.727442741394045,0.005894332192838192,-0.00554662710055709,-0.00968652218580246
4.039706230163574,-0.9705241918563843,9.734075546264648,0.0027409130707383156,-0.008071363903582098,-0.010772519744932653
4.062230110168457,-0.9808083772659302,9.75309944152832,-0.00011176057159900665,-0.011060104705393316,-0.008031023666262627
4.051488876342773,-1.0354779958724978,9.72621822357178,-8.289777179015802e-05,-0.013361162506043913,-0.009850826114416122
4.040943622589112,-0.9759402275085449,9.669265747070312,-0.000244785042013973,-0.012210805900394918,-0.010484736412763596
4.019796371459961,-1.028733730316162,9.65254306793213,-0.000642360420897603,-0.010318123735487463,-0.0100000211969018
3.971810817718506,-0.9653860330581665,9.703089714050295,-0.002557427156716585,-0.01787965558469296,-0.01228918507695198
3.959451198577881,-0.97593492269516,9.774134635925295,-0.006653674878180027,-0.026875007897615433,-0.015770455822348598
4.022722244262695,-1.001068115234375,9.738699913024904,-0.01666444726288319,-0.03165198862552643,-0.013645279221236708
4.024353981018066,-1.0318530797958376,9.744103431701662,-0.01601873151957989,-0.03444244712591171,-0.012862075120210648
4.033701419830323,-1.0174975395202637,9.755923271179201,-0.01965394988656044,-0.040942069143056876,-0.01674789935350418
4.087235450744629,-0.978811502456665,9.751289367675781,-0.02544722706079483,-0.04345080256462097,-0.014454971067607405
4.054666042327882,-0.9422295689582826,9.719778060913086,-0.03389264643192291,-0.044113408774137504,-0.01025734655559063
4.09153699874878,-1.0683540105819704,9.715832710266115,-0.03677061200141907,-0.043084550648927696,-0.009005925618112089
4.050328254699707,-1.0921578407287598,9.74960708618164,-0.034750398248434074,-0.04438091814517975,-0.014101407490670683
4.129148483276367,-1.033766746520996,9.745685577392578,-0.03210484981536865,-0.046058423817157745,-0.013221542350947859
4.09296751022339,-1.084831714630127,9.712481498718263,-0.034358289092779166,-0.046292416751384735,-0.012583582662045957
4.072318077087402,-1.0576163530349734,9.708462715148928,-0.03171653300523758,-0.048363488167524345,-0.014113641344010832
4.056863307952882,-1.0162746906280518,9.715015411376953,-0.03479776158928872,-0.04879021644592285,-0.013543539680540563
4.053694248199464,-1.0310392379760742,9.728780746459961,-0.039132654666900635,-0.059338562190532684,-0.013059859164059164
4.124792098999023,-1.018142104148865,9.720715522766115,-0.042488928884267814,-0.06512957811355591,-0.00978799816220999
4.163445472717285,-1.0503629446029665,9.695099830627443,-0.04230305179953576,-0.06269919872283936,-0.008858084678649902
4.165384769439698,-1.0394896268844607,9.694117546081545,-0.041510958224534995,-0.060538820922374725,-0.009084424935281278
4.177570343017578,-0.996414303779602,9.698211669921875,-0.04449711367487908,-0.05525880679488183,-0.005004115402698517
4.195485591888429,-1.0241479873657227,9.73123550415039,-0.04742443189024926,-0.05114530771970749,0.0010338326683267953
4.139911174774171,-1.145620346069336,9.709023475646974,-0.045155785977840424,-0.04806494340300561,0.0035637828987091784
4.1318769454956055,-1.1584283113479616,9.68670177459717,-0.040748193860054016,-0.04865574464201928,-0.0034291306510567665
4.1755337715148935,-1.1550731658935547,9.685901641845703,-0.03427794948220254,-0.04881628975272179,-0.005593833513557911
4.163705348968507,-1.1243340969085693,9.666501045227053,-0.02768132835626602,-0.047734562307596214,-0.007606334984302521
4.1501054763793945,-1.1794866323471072,9.645483970642092,-0.020735379308462143,-0.04341706261038781,-0.009030430577695371
4.121877193450929,-1.179272770881653,9.70223140716553,-0.013001928105950356,-0.04183288291096688,-0.014195084571838379
4.14961862564087,-1.2185765504837038,9.655197143554688,-0.007208278402686119,-0.04188591241836548,-0.019864981994032863
4.175842761993409,-1.1058917045593262,9.660284996032717,7.304785685846583e-05,-0.0378839373588562,-0.02187503315508366
4.170051097869874,-1.0419815778732302,9.687585830688477,-0.00020607841724995526,-0.03818628937005997,-0.02047804370522499
4.179317474365234,-1.077481985092163,9.712322235107422,-0.002110113389790058,-0.03878455981612206,-0.018753837794065475
4.180821418762207,-1.1023414134979248,9.709537506103516,-0.0036828056909143925,-0.03578662872314453,-0.018825149163603786
4.207557201385499,-1.0124855041503906,9.706276893615724,-0.002067222492769361,-0.031388379633426666,-0.016979271546006206
4.186516761779785,-1.0793108940124512,9.689409255981445,-0.0023716080468147997,-0.02588968351483345,-0.015037337318062782
4.224121570587159,-1.067226052284241,9.680536270141602,-0.0027230046689510345,-0.020974023267626766,-0.012576144188642502
4.212515354156495,-1.0430991649627686,9.666208267211914,0.0008387291454710067,-0.011707439087331297,-0.013050951063632965
4.090818881988526,-1.1418628692626953,9.674990653991701,0.003436623141169548,-0.010373977012932302,-0.011534513905644417
4.1530303955078125,-1.1242650747299197,9.66700553894043,0.004207160323858261,-0.015686606988310817,-0.015061057172715666
4.1344099044799805,-1.1192675828933718,9.67598628997803,0.0047422293573617935,-0.017183398827910427,-0.0187547504901886
4.197291374206543,-1.119593620300293,9.660609245300295,0.00826270878314972,-0.015578683465719223,-0.019233634695410732
4.179642200469972,-1.1128361225128174,9.693850517272951,0.010928981937468054,-0.012626927345991135,-0.018677795305848125
4.198083877563477,-1.061103105545044,9.693581581115724,0.01335448306053877,-0.006440883502364159,-0.018442343920469284
4.194689750671387,-1.118321180343628,9.663392066955568,0.01513521745800972,3.661209848360159e-05,-0.017991431057453156
4.24058485031128,-1.100043535232544,9.615558624267578,0.025038925930857662,0.009755912236869337,-0.01788400113582611
4.203857421875,-1.0718538761138916,9.587753295898438,0.028016174212098125,0.018969736993312836,-0.019164098426699642
4.179215431213379,-1.0792297124862673,9.689654350280763,0.03242361545562744,0.02403831668198109,-0.012843067757785322
4.136573791503906,-1.1330430507659912,9.607669830322266,0.033614415675401695,0.02744578942656517,-0.01607299037277699
4.110016822814941,-1.1122134923934939,9.662174224853516,0.04118242487311364,0.029434075579047207,-0.019539985805749893
4.205419540405273,-1.0543227195739746,9.659544944763185,0.04299480840563775,0.03951743245124817,-0.023605780676007274
4.229239463806152,-0.9797838330268861,9.698125839233398,0.04619343951344491,0.05573025345802307,-0.013818679377436638
4.2101502418518075,-1.0799293518066406,9.707133293151857,0.043741486966609955,0.06264737993478776,-0.004874019883573055
4.156115055084229,-1.1346814632415771,9.720059394836428,0.05150685831904412,0.0748657211661339,-0.0037950105033814907
4.177634239196777,-1.0389742851257324,9.691987991333008,0.05550332739949227,0.08043523132801056,-0.004376936238259078
4.166152477264405,-0.8507649898529053,9.64877700805664,0.051202181726694114,0.08694225549697876,-0.00020696292631328106
3.9896860122680664,-0.9325433373451234,9.756757736206055,0.04097681120038033,0.0847707986831665,0.007237005513161422
3.904628276824951,-1.080642342567444,9.8251953125,0.03258952870965005,0.062427464872598655,0.004252461716532707
3.9716248512268066,-1.0985971689224245,9.808600425720217,0.02624204568564892,0.04351590573787689,-0.004600844811648131
4.0288662910461435,-0.9799039363861084,9.80232048034668,0.02248401567339897,0.033512789756059654,-0.00762060983106494
4.08879280090332,-0.8880935311317445,9.769936561584474,0.013816713355481626,0.02583727240562439,-0.002778850262984634
4.076640605926515,-1.0354210138320925,9.713000297546388,0.010481517761945724,0.021694999188184738,-0.000522338494192809
4.025810718536378,-1.1078593730926514,9.765811920166016,0.010706641711294653,0.01255759783089161,-0.0053510027937591085
4.016889572143555,-1.0699925422668457,9.760165214538576,0.009196870960295202,0.00045868789311498404,-0.011469921097159386
4.040266513824464,-0.9594484567642212,9.785942077636719,0.01027468126267195,-0.008562486618757248,-0.014330980367958547
4.085561275482179,-0.9726905822753906,9.786326408386232,0.0023533727508038287,-0.012967471964657308,-0.009374888613820076
4.054534912109375,-1.0677096843719482,9.75628662109375,7.137420470826328e-05,-0.016863944008946422,-0.012853968888521194
4.004412174224854,-1.000420689582825,9.775634765625,0.002675450872629881,-0.024163013324141506,-0.018117768689990047
4.064972877502441,-0.9353491663932801,9.766805648803711,-0.006567713804543018,-0.0325295813381672,-0.019805967807769775
4.020352363586426,-0.8337677717208862,9.805612564086914,-0.023269057273864746,-0.044558361172676086,-0.014887708239257337
3.9796690940856934,-0.8529049158096313,9.80776119232178,-0.0443057119846344,-0.0639862045645714,-0.012099655345082283
4.025479793548585,-0.998244047164917,9.781872749328615,-0.06077830865979195,-0.08280554413795471,-0.00990687683224678
4.064391613006593,-1.0053077936172488,9.748146057128906,-0.06432401388883592,-0.08932968974113464,-0.010504418052732946
4.106076240539551,-1.0368851423263552,9.731945037841797,-0.069962315261364,-0.09441234916448595,-0.004779229871928692
4.089468002319336,-1.1502974033355713,9.70151138305664,-0.0675928220152855,-0.09678861498832703,-0.007833748124539854
4.170448303222656,-1.123924970626831,9.651740074157717,-0.061666589230299,-0.0938967913389206,-0.01365615800023079
4.162692546844483,-1.0216493606567383,9.676046371459961,-0.06082003563642502,-0.0897577926516533,-0.014347324147820473
4.133072853088379,-1.0199786424636843,9.72728157043457,-0.06909660249948503,-0.08865521103143693,-0.00809313915669918
4.126012802124023,-1.0193390846252441,9.690080642700195,-0.07012490183115007,-0.09395647048950195,-0.005178061779588462
4.085554122924805,-1.0965133905410769,9.663694381713867,-0.07355767488479614,-0.09865338355302812,-0.004749030340462924
4.110039234161378,-1.2118250131607058,9.626713752746584,-0.07169301807880402,-0.09889621287584306,-0.008715348318219185
4.120151519775391,-1.1941134929656982,9.69300937652588,-0.06464738398790361,-0.10298175364732744,-0.018077529966831207
4.0866804122924805,-1.1513118743896484,9.652503013610842,-0.059513404965400696,-0.10787751525640489,-0.02427772805094719
4.176316738128663,-1.1666253805160525,9.629141807556154,-0.055274698883295066,-0.1098225861787796,-0.032637909054756165
4.165040016174316,-1.0182465314865115,9.737871170043945,-0.05476554855704308,-0.11051146686077118,-0.03225574269890786
4.179713726043702,-0.9841582775115967,9.756879806518555,-0.0654147043824196,-0.12351771444082262,-0.02190874144434929
4.068873405456543,-1.2052536010742188,9.71094608306885,-0.061472702771425254,-0.13743337988853455,-0.023613462224602703
4.126201629638672,-1.1230368614196777,9.725047111511232,-0.054602976888418205,-0.15700724720954895,-0.0332198441028595
4.141391277313233,-1.1119827032089236,9.717367172241211,-0.058871351182460785,-0.17066676914691928,-0.03649498522281647
4.188464641571046,-1.120163917541504,9.661836624145508,-0.06508828699588776,-0.19076621532440186,-0.03978149220347405
4.18213987350464,-1.0595372915267947,9.715034484863281,-0.07178059220314026,-0.20457957684993747,-0.04117896407842636
4.300185203552246,-0.9558531641960145,9.661620140075685,-0.08356598019599915,-0.22113151848316195,-0.03278035297989846
4.158233642578125,-1.3238370418548584,9.514617919921875,-0.0722951591014862,-0.228022113442421,-0.04067506641149521
3.957150220870972,-1.4376910924911501,9.551481246948242,-0.02646232396364212,-0.25224238634109497,-0.07629222422838212
4.159621238708496,-1.1898912191390993,9.701766014099123,-0.010701030492782593,-0.28666904568672186,-0.09540759027004242
4.032005786895753,-1.1400638818740847,9.752206802368164,-0.013103371486067772,-0.3331123888492585,-0.1053416356444359
4.016702651977539,-1.0738539695739746,9.708930015563967,-0.009800243191421034,-0.39258885383605957,-0.10821498185396196
3.9809339046478276,-0.9303040504455566,9.749622344970703,-0.008117591962218285,-0.4589424729347229,-0.11459723860025407
3.861322641372681,-1.3655009269714355,9.613441467285156,0.0004737727576866746,-0.5448216795921327,-0.1339610517024994
3.8384521007537846,-1.2176668643951416,9.77815055847168,0.023469584062695507,-0.6525994539260864,-0.15563243627548218
4.12075138092041,-0.8935204148292543,9.932296752929688,0.0204034224152565,-0.7683692574501039,-0.14600607752799988
3.8151564598083496,-0.9801427125930786,9.876040458679201,0.016704317182302475,-0.8907754421234131,-0.133575513958931
3.5922698974609375,-1.0629624128341677,9.993114471435547,0.041877556592226035,-1.054565668106079,-0.14006794989109042
3.9088609218597417,-1.007545590400696,10.118260383605959,0.06970406323671342,-1.2254228591918945,-0.14981409907341003
4.2342848777771005,-0.8056358695030214,9.96938228607178,0.03033774346113205,-1.3887838125228884,-0.16915461421012878
4.384613037109375,-0.9498462677001953,9.868700981140138,-0.00014852768799755725,-1.533954739570618,-0.17827817797660828
4.237521171569824,-1.3447177410125732,9.832172393798828,0.0006707192515023054,-1.680964469909668,-0.20851008594036105
4.519495487213136,-1.1783441305160525,9.766714096069336,0.007251872681081295,-1.852656960487366,-0.24677087366580966
4.763869285583496,-0.9787167310714722,9.783132553100586,-0.01754426211118698,-2.0022165775299077,-0.26279449462890625
4.5991315841674805,-1.064517140388489,9.897389411926271,-0.040359511971473694,-2.188082695007324,-0.2835547029972077
4.92455816268921,-0.8010361790657045,9.680071830749513,-0.0791090577840805,-2.3620679378509526,-0.32810962200164795
4.758340835571289,-1.0481473207473757,9.212543487548828,-0.08783962577581407,-2.600189685821533,-0.38120347261428833
4.639991283416749,-1.2326586246490479,8.822980880737305,0.025183847174048427,-2.892772674560547,-0.46188625693321234
4.912439823150636,-1.031179666519165,9.06796169281006,0.21088920533657077,-3.2497656345367436,-0.5091074705123901
5.1773648262023935,-1.338604211807251,9.130162239074709,0.39191302657127386,-3.709385871887207,-0.5481380820274354
6.012942790985108,-1.79736602306366,9.339437484741211,0.5354196429252626,-4.200239181518555,-0.5184429883956909
7.25069522857666,-1.76532256603241,10.224813461303711,0.5969472527503968,-4.6386871337890625,-0.49452361464500433
8.85996723175049,-1.437151074409485,11.18655300140381,0.5087606310844422,-4.813833713531495,-0.46901655197143555
11.04539680480957,-1.7045702934265137,12.382070541381836,0.38512656092643743,-4.859527587890625,-0.42821249365806585
13.596500396728516,-3.4495289325714116,12.801287651062013,0.4435171186923981,-4.731198310852051,-0.46439433097839355
17.13899421691895,-3.8026185035705566,13.972077369689943,0.7213378548622132,-4.503210067749023,-0.6270430684089662
20.35404777526856,-2.740579128265381,13.13083267211914,0.8311587572097778,-4.207400321960449,-0.8167615532875062
24.515335083007812,-2.8957200050354004,7.858140468597413,0.8385807275772095,-4.034060001373292,-1.0678176879882812
27.608341217041016,-6.527945995330811,3.3762633800506596,1.3344701528549197,-4.144591331481934,-1.572835922241211
34.56194305419922,-4.094872951507569,7.9123334884643555,2.151950597763062,-3.8796749114990234,-1.8481742143630984
32.493194580078125,-0.6542472839355469,6.592401504516602,2.474989891052246,-3.0782899856567383,-1.7934511899948122
38.28584289550781,5.953693389892578,10.020934104919435,1.3853868246078493,-2.9154438972473145,-1.6630548238754275
41.064048767089844,2.4328513145446777,21.751413345336918,-0.15987545251846313,-1.2987774610519411,-1.602410435676575
24.92223930358887,0.2247895896434784,14.003136634826662,-1.5216915607452393,-0.27354654669761663,-1.076982021331787
18.492630004882812,-2.8208572864532475,10.36839008331299,-2.28377103805542,-0.3892812132835388,-0.7894878983497621
13.06840705871582,-6.697827816009522,7.747936725616456,-2.0660426616668706,-0.7476493120193481,-0.6859266161918641
10.248191833496094,-8.926960945129396,7.389516830444336,-1.0920233726501465,-1.2138010263442995,-0.7144200205802919
10.336551666259766,-7.74152946472168,9.80937385559082,0.014950845390558243,-1.4675856828689577,-0.7152167558670044
9.605159759521484,-4.372645854949952,13.574477195739748,0.6395413875579834,-1.2618467807769775,-0.5214676260948182
7.942376613616944,-1.604827642440796,15.262983322143555,0.7096247076988221,-0.6335742473602295,-0.20307649672031405
3.968423843383789,-0.4224040806293488,14.002971649169922,0.5371509790420532,0.11566220968961717,-0.024408703669905666
-0.0002505853772163391,0.023264020681381226,11.763947486877443,0.3508944511413574,0.7325890660285951,0.03463590890169144
-3.3208656311035156,-0.1628812551498413,8.871661186218263,0.2968783974647522,1.130018949508667,0.026644429191946987
-4.785088539123535,-0.19618754088878634,7.009936809539796,0.3656566441059113,1.3667776584625244,-0.015456777997314932
-5.426435947418214,0.6891336441040039,6.256708145141602,0.3983974754810334,1.5747275352478027,-0.002633824944496155
-6.604419708251953,0.7336910367012025,5.207925319671632,0.35733464360237127,1.8050875663757324,0.04497696831822396
-7.5591278076171875,-0.012390762567520142,4.29261350631714,0.37375473976135254,1.9903063774108887,0.09391320496797563
-8.189550399780273,-0.38417348265647894,3.2646117210388184,0.4519972503185273,2.1417088508605957,0.1361876577138901
-8.526419639587404,0.20590034127235413,2.867335796356201,0.44497108459472656,2.2569601535797124,0.16467811167240146
-8.329412460327148,0.7054449915885926,2.5089752674102788,0.2461625784635544,2.419959545135498,0.2173959165811539
-8.44548225402832,0.3129463195800781,1.8558949232101443,0.035784747451543815,2.6008136272430424,0.2770102620124817
-7.672944068908691,-0.054982196539640434,1.8399866819381716,-0.11641544848680498,2.774360179901123,0.3478876650333405
-6.895333290100098,-0.402024656534195,1.459479808807373,-0.17535805702209473,3.006933927536011,0.4182972609996796
-6.483333587646484,-0.41616246104240423,0.6649422645568848,-0.20060548186302185,3.2065145969390874,0.4806750416755676
-5.620083808898926,-0.052510008215904236,-0.041229661554098136,-0.25699362158775335,3.3311398029327397,0.5889118909835815
-4.810134410858155,0.02472216635942459,-0.6344482898712158,-0.33096048235893255,3.3954811096191406,0.7377148270606996
-3.5089712142944336,0.3484883606433869,-0.4085770845413208,-0.4001737534999848,3.4115023612976074,0.899814248085022
-2.1315820217132573,1.1259269714355469,0.062243469059467316,-0.480720728635788,3.4561715126037598,1.0444861650466921
-0.44585853815078735,1.827653169631958,0.7639868259429932,-0.5914398431777954,3.505718231201172,1.125101447105408
2.2379853725433354,2.3107213973999023,2.310456514358521,-0.699422061443329,3.5783872604370117,1.173267483711243
5.380614280700684,3.154114961624146,3.8396422863006596,-0.783194124698639,3.73555326461792,1.15610933303833
8.165308952331545,2.9839293956756596,3.91055965423584,-0.7859461307525635,3.952818632125855,1.0128428936004639
9.775094985961914,2.58668065071106,2.671107769012451,-0.5848734974861146,4.012770175933839,0.7623215913772583
11.408980369567873,3.5249168872833256,1.599747896194458,-0.38861560821533203,3.842516660690308,0.4878276586532593
13.422886848449709,3.5491244792938237,1.0478726625442507,-0.33214128017425537,3.558137655258179,0.24475310742855075
14.52896499633789,1.9888007640838623,0.4778252840042114,-0.1948659271001816,3.211127758026123,0.08834471553564073
14.897770881652834,1.3066822290420534,-0.0071038901805877686,0.04626629501581192,2.775763511657715,0.06720823794603349
15.454618453979492,1.7016122341156006,-0.2916972935199738,0.16036465764045715,2.268945932388306,0.18749457597732544
15.579228401184084,0.4205644726753235,-0.8352177739143373,0.2795882225036621,1.6820183992385866,0.344987839460373
15.226068496704102,-0.1958570629358292,-0.5227413773536683,0.5244367718696595,0.996523380279541,0.516911804676056
14.981307983398438,0.22362770140171054,0.27837505936622625,0.6757339239120483,0.37879812717437744,0.7071067690849305
15.626609802246094,1.2176469564437868,1.5177943706512451,0.5735984444618226,-0.17390239238739014,1.0088680982589724
54.81189346313477,19.726051330566406,13.438833236694336,-2.5703048706054688,-1.6759971380233767,1.60590136051178
39.296592712402344,16.009124755859375,18.596456527709964,-1.4125289916992188,1.3612686395645144,0.4378012418746948
9.465228080749513,2.118353128433228,6.862454414367676,-1.5239486694335938,1.2872984409332275,1.2313104867935183
4.86924934387207,-6.850526809692383,12.505748748779297,-1.1429615020751953,1.907734513282776,1.5620701313018799
-3.35064697265625,0.7024039030075073,10.89041519165039,-1.0715222358703613,1.4644845724105837,0.9354582428932191
3.242660760879517,-10.040442466735842,9.627806663513185,-0.13619621098041537,1.6846020221710205,-0.5479605793952943
5.640311241149902,-18.491668701171875,9.092751502990724,0.25826048851013184,1.2494688034057617,-0.5250301957130433
-0.1104791909456253,2.2078986167907715,12.827288627624513,0.5301573276519775,0.7790760397911073,-0.48251473903656006
1.2362196445465088,1.724463701248169,11.571880340576172,0.36142531037330633,0.26988279819488525,-0.6353764533996582
5.139211654663086,4.481037616729737,10.879703521728516,0.016266813501715664,0.0011926027946174145,-0.32759383320808416
5.9417829513549805,2.5726609230041504,10.220896720886232,-0.09280142933130266,-0.12218674272298814,0.02561243250966072
5.9823975563049325,-1.031043291091919,9.037860870361328,-0.2292510122060776,-0.012605350464582443,0.17752479016780856
4.942845821380616,-4.605665683746339,8.186238288879396,-0.10068809986114502,0.07938624173402788,0.041258316487073905
4.290081977844238,-2.0143489837646484,9.322265625,0.033220883458852775,0.10818856954574585,-0.11445730179548265
4.127798080444336,0.614672064781189,10.239037513732912,-0.0033789726439863448,0.05876204743981362,-0.0948086827993393
4.429566383361816,1.0584696531295779,10.328239440917969,-0.13567999005317688,-0.01260871533304453,0.035307593643665314
4.475761413574219,-0.018064260482788086,9.776101112365724,-0.22367465496063232,-0.07743775099515916,0.12856571376323703
4.143559932708741,-1.3791242837905886,9.661710739135742,-0.22986185550689697,-0.14369334280490878,0.12187887728214264
3.9907867908477788,-1.6858607530593874,9.88456439971924,-0.20335248112678528,-0.23811078071594238,0.06703337281942369
4.149577617645265,-1.0142061710357666,9.930910110473633,-0.1986813694238663,-0.32479965686798096,0.02478434704244137
4.393967628479004,-0.5680895447731019,9.902812957763672,-0.22992467880249023,-0.39507743716239935,0.028569826856255535
4.502280712127686,-0.43076980113983154,9.773545265197756,-0.27015879750251776,-0.46364855766296387,0.037622634321451194
4.281769275665284,-0.5969092845916748,9.866848945617678,-0.3388424515724182,-0.5268586874008179,0.02103747241199017
4.249030113220215,-1.140855669975281,9.892386436462404,-0.36671000719070435,-0.6140136122703553,0.01702415570616722
4.120880603790284,-1.7837283611297607,9.475845336914062,-0.35780811309814453,-0.7270405888557435,-0.018371546640992168
4.199265480041504,-1.0897284746170046,9.485359191894531,-0.36610740423202515,-0.8505293726921083,-0.027456004172563553
4.70906925201416,-0.9251495599746704,9.544657707214357,-0.37789392471313477,-0.9338001012802124,0.01363810244947672
4.602615833282472,-0.7017345428466797,9.348320960998537,-0.36269655823707586,-1.0264406204223633,0.024752752855420116
4.922274589538574,-1.3676612377166748,8.98861598968506,-0.3562140762805939,-1.040738821029663,0.032639212906360626
5.0924787521362305,-1.1873954534530642,9.138201713562013,-0.33450764417648315,-1.1171649694442751,-0.0011236146092414856
5.133152008056641,-1.359242081642151,8.864419937133789,-0.3057432174682617,-1.1474945545196533,-0.004458955023437739
4.964458465576172,-1.1193225383758545,8.988951683044435,-0.314042329788208,-1.1723190546035769,0.002630392089486122
5.451315879821777,-1.332795023918152,9.114233016967773,-0.34319201111793524,-1.1908345222473145,-0.01736536994576454
5.196242809295655,-1.5751272439956667,8.603930473327638,-0.33039188385009766,-1.2164646387100222,-0.0376238077878952
5.676752090454102,-1.8083308935165407,8.476919174194336,-0.2816524207592011,-1.211339592933655,-0.0668223649263382
6.109853744506836,-1.8601717948913574,8.65634536743164,-0.2738272845745087,-1.1843411922454834,-0.08564700931310655
5.881501197814941,-2.061413288116455,8.224311828613281,-0.14861200749874118,-1.133324384689331,-0.10828287899494171
6.383014202117921,-1.793227553367615,8.08430576324463,-0.11496616899967194,-1.080724596977234,-0.13050854206085205
6.561176300048828,-1.7498735189437868,8.150196075439453,-0.08601280301809312,-1.003286957740784,-0.12892144918441772
6.479104518890382,-1.4656245708465576,7.802073001861573,-0.04149298369884491,-0.9354292750358583,-0.12060876190662384
6.478531837463379,-1.6447349786758425,7.740865230560304,-0.03644996508955956,-0.8519810438156128,-0.12071196734905243
6.481103897094727,-1.679788589477539,8.007770538330078,-0.01668081991374493,-0.8008404970169067,-0.1219686046242714
6.05332088470459,-1.8623392581939697,7.981540203094483,0.0007675461820326747,-0.7817136645317079,-0.14563319087028503
5.993478775024414,-1.922945857048035,8.186784744262695,0.017251715064048767,-0.8224228024482728,-0.19566521048545837
6.108347415924073,-1.6841537952423096,8.264685630798342,0.0314645990729332,-0.8902301192283631,-0.22757636010646823
6.312289714813233,-1.5144612789154053,8.155084609985352,0.06433072686195374,-0.9331229329109193,-0.2520478367805481
6.4658002853393555,-1.091087818145752,7.91614580154419,0.08335807919502258,-0.9504944086074829,-0.2499823719263077
6.432100772857667,-1.3502417802810671,7.748355388641358,0.09688363224267961,-0.9730149507522583,-0.25791254639625555
6.422424793243409,-0.9442864656448364,7.814836025238038,0.11000847071409227,-1.0056536197662354,-0.2587072253227234
6.0554871559143075,-1.4066355228424072,7.8699235916137695,0.12183146178722382,-1.055606245994568,-0.2653960585594177
6.137258052825929,-1.3485058546066286,7.984490394592285,0.15371625125408175,-1.1491404771804812,-0.2965118885040283
6.488995075225831,-1.4080581665039062,7.885858058929444,0.18345107138156894,-1.2468771934509277,-0.3353604972362519
6.403492450714112,-1.4269437789916992,7.3706631660461435,0.22663678228855136,-1.3371031284332275,-0.36396217346191406
6.788751602172852,-1.0073862075805664,7.696110248565675,0.2498038113117218,-1.4445656538009646,-0.3957781195640564
6.710517883300781,-1.1166987419128418,7.65858030319214,0.2759803235530854,-1.554751515388489,-0.3934413194656372
6.241173267364503,-0.8005235195159912,7.744102478027344,0.30697318911552435,-1.7785968780517578,-0.37137714028358465
6.464874744415284,-1.2013394832611084,8.532205581665039,0.34563612937927246,-2.1007626056671147,-0.36145189404487615
6.02059030532837,-1.830853581428528,8.164626121520998,0.45138910412788397,-2.4753589630126953,-0.42144021391868597
6.568994045257569,-1.8845874071121218,7.7963104248046875,0.535621464252472,-2.894166231155396,-0.5128778219223022
6.721952915191651,-1.347863554954529,7.76658821105957,0.6163216829299927,-3.361073732376099,-0.5763828754425049
7.711800575256348,-1.3169617652893066,7.33034610748291,0.6451397538185121,-3.799070358276367,-0.5999805927276611
8.970436096191406,-1.206898093223572,7.228601455688477,0.6604250073432923,-4.369965553283691,-0.4443326890468598
8.100587844848633,-0.23775067925453186,7.64241886138916,0.5596137642860414,-4.905777454376222,-0.3723350763320923
9.185286521911623,0.5921983122825624,8.00033950805664,0.3756316900253296,-5.155588626861573,-0.3269907832145691
11.002037048339844,1.1103273630142214,8.961524963378906,0.19494043290615085,-5.124173164367676,-0.3030189275741577
12.949982643127443,1.2461981773376465,9.075485229492188,0.016830846667289734,-4.821197986602784,-0.19208431243896484
14.300813674926758,0.8362200260162354,9.118990898132326,-0.07472704350948334,-4.572976112365723,0.003996931482106448
17.938673019409183,0.030168652534484863,9.242300987243654,-0.03323876112699509,-4.023073673248292,0.1509462296962738
21.740880966186527,-2.8273646831512456,8.77871322631836,-0.1540660262107849,-3.6179478168487553,0.2891878187656403
24.83150863647461,-4.5652923583984375,9.30908203125,-0.737881362438202,-3.0028271675109863,0.4449817836284638
21.410423278808594,0.0703316330909729,5.068018436431886,-1.9230614900588991,-2.2692120075225835,0.544135332107544
18.215572357177734,-2.4829266071319585,1.1062591075897217,-2.6089179515838627,-2.076052665710449,0.043383259326219566
21.62287139892578,-5.218427658081055,-0.13016320765018466,-2.462584257125855,-2.1872129440307617,-0.5812230110168457
18.23699951171875,-4.137185096740723,-3.468128919601441,-1.554988503456116,-2.342113971710205,-1.5442167520523074
14.653022766113281,-2.663830280303955,-6.742243766784668,-0.4887431263923645,-3.105783462524414,-2.710532903671265
20.08663368225098,-0.09201437979936601,-5.742094993591309,0.6420045495033265,-4.581414222717285,-3.9860842227935795
32.154701232910156,3.7385826110839844,8.468610763549805,0.666323482990265,-4.808836936950684,-4.635903358459473
25.567098617553714,5.0314788818359375,8.633559226989748,-0.17334006726741794,-3.7366366386413574,-4.646984577178956
23.32246589660645,3.4863452911376953,8.728489875793459,-1.2408918142318728,-3.0587627887725835,-4.51175594329834
19.501487731933594,-0.3605789542198181,8.31553840637207,-1.8243612051010134,-2.3098387718200684,-4.321993350982667
15.060233116149904,-3.951679944992066,6.978000164031983,-1.8874082565307617,-1.8895515203475954,-4.046794414520265
11.900591850280763,-7.674969673156738,6.561359405517578,-1.1843348741531374,-1.6725718975067139,-3.734707117080689
9.562967300415039,-9.065616607666016,6.54335880279541,-0.022831598296761516,-1.5413547754287722,-3.3993964195251465
8.034431457519531,-8.417276382446289,7.493832588195801,1.151033639907837,-1.389191508293152,-3.0417027473449707
6.059051990509034,-6.131129741668702,8.19683361053467,1.9448723793029785,-1.114901423454285,-2.5866582393646245
4.190130233764648,-3.7390120029449467,8.611595153808594,2.1639180183410645,-0.7549814581871034,-2.007854461669922
2.8692216873168945,-1.985103249549866,9.937657356262209,1.951308846473694,-0.3381603658199311,-1.3718416690826416
2.717180490493775,-1.39079487323761,11.65422248840332,1.4709663391113281,0.22923053801059726,-0.7408205270767212
2.662831068038941,-1.5197346210479736,12.907577514648438,0.9804344177246094,1.0242661237716677,-0.21324174106121066
2.0130810737609863,-1.6115381717681885,12.966449737548828,0.5861842632293701,1.9286473989486697,0.2026875913143158
-0.04747173935174942,-1.6768760681152344,11.71384906768799,0.2880830764770508,2.7140116691589355,0.5107782483100892
-2.1078319549560547,-1.4767563343048096,9.570659637451172,0.07209894061088562,3.230679273605347,0.746600866317749
-3.8195042610168457,-1.1668950319290163,7.298915863037109,-0.091027170419693,3.4699666500091557,0.9290216565132142
-4.539812088012695,-0.598422646522522,5.832633495330811,-0.2603743076324463,3.47321629524231,1.0985643863677979
-4.086450576782227,-0.5829803347587587,5.344740867614746,-0.4329183995723725,3.4196846485137944,1.2846965789794922
-3.358433723449707,-1.0954248905181885,5.546265602111816,-0.4865847527980805,3.40633487701416,1.425920367240906
-2.3241345882415776,-1.2030824422836306,6.245346546173097,-0.4430977702140808,3.4868748188018803,1.5160723924636843
-1.4758523702621462,-1.1363611221313477,6.690408706665039,-0.3849891126155854,3.6871118545532227,1.5480626821517947
-0.7855694890022279,-0.13259229063987732,7.192049980163574,-0.3924499452114106,3.915399789810181,1.5301709175109863
0.004455208778381348,0.7862182855606079,7.620105266571046,-0.5989976525306703,4.169404983520508,1.5368040800094607
0.8727151155471802,1.1026349067687988,7.962252140045167,-0.8990875482559204,4.45732069015503,1.5628706216812136
1.5941190719604492,1.134785294532776,8.014778137207031,-1.187129855155945,4.773350715637207,1.5968853235244753
1.499908447265625,0.8775820732116699,7.459628105163574,-1.3373208045959473,5.043895721435547,1.5834501981735232
1.7507648468017578,1.2239243984222412,7.2936506271362305,-1.4220591783523562,5.193144798278809,1.5071667432785036
2.4580941200256348,2.1384382247924805,7.543634414672852,-1.5422562360763552,5.264162063598633,1.4121360778808594
3.3093397617340092,2.7238399982452397,7.855351448059082,-1.7246789932250977,5.307945728302003,1.2836863994598389
4.313955783843995,2.9284341335296635,8.243449211120607,-1.935101628303528,5.33022165298462,1.1313769817352295
5.749398708343507,2.63864016532898,8.918019294738771,-2.0622913837432866,5.3469953536987305,0.9379640221595765
7.245339870452882,2.861158847808838,9.644479751586914,-2.1168179512023926,5.384302616119386,0.7360056042671205
8.674735069274904,4.052284717559815,10.219365119934084,-2.2178766727447514,5.42420768737793,0.5794031023979188
10.234037399291992,5.150717735290527,10.32346820831299,-2.444930076599121,5.476634979248047,0.4338435828685761
10.986940383911133,5.146819114685059,9.864243507385256,-2.620986700057984,5.471684455871582,0.24622286856174472
11.184120178222656,5.70535707473755,9.619510650634766,-2.69411563873291,5.312834262847901,0.01773871667683125
12.103705406188967,7.424728870391847,10.438055038452148,-2.828362464904785,5.0632290840148935,-0.23470261693000793
14.309555053710938,8.294960975646974,11.937619209289553,-3.0317444801330566,4.892359733581543,-0.6112387776374818
16.65350151062012,8.499763488769531,12.905732154846193,-3.102368593215943,4.825888633728027,-1.1197601556777956
17.566354751586918,9.677513122558594,12.503995895385742,-3.171841382980347,4.7513322830200195,-1.6584689617156982
17.251905441284183,10.940176963806154,11.083788871765138,-3.42024564743042,4.552301883697511,-2.1536927223205566
16.57534408569336,11.07231330871582,8.278959274291992,-3.7743675708770756,4.159958362579347,-2.6007142066955566
16.64769744873047,9.603077888488771,5.576031684875488,-3.9927155971527104,3.5156540870666504,-2.992075681686402
18.337499618530277,8.381655693054201,4.632882595062257,-4.003708362579347,2.7249011993408203,-3.228682041168213
19.605167388916016,8.04890251159668,4.414245128631593,-3.933133125305176,2.068341970443726,-3.276505947113037
19.69841766357422,9.09635639190674,3.837652921676636,-3.9288961887359624,1.570841193199158,-3.179337501525879
18.89604759216309,10.355560302734375,2.658572912216187,-4.073851108551026,1.1773979663848877,-2.972659826278687
17.47319602966309,9.89538097381592,1.4724329710006716,-4.148465156555176,0.8493270277976991,-2.7515661716461186
16.864097595214844,8.444271087646484,1.1367340087890625,-3.8548717498779297,0.5170083642005922,-2.5803885459899902
17.297872543334964,6.931240081787109,1.9564634561538699,-3.2309224605560307,0.3014144599437714,-2.479309558868408
16.71193885803223,5.324975490570069,2.555605888366699,-2.4145431518554688,0.22480572760105136,-2.4329428672790527
14.527961730957031,-10.786470413208008,1.6380916833877566,-0.184941828250885,-0.08729667216539384,-2.417789220809937
13.615318298339844,8.45225715637207,0.8339945673942567,3.3478605747222905,-0.7435482740402222,-3.12098240852356
14.506311416625977,2.5189988613128667,14.839624404907227,2.9684755802154545,-0.14509315788745883,-2.717772960662842
17.405590057373047,-14.929952621459961,23.238388061523438,2.067677736282349,0.3489300012588501,-1.3017064332962038
-1.0809972286224365,-7.540260314941406,7.6993608474731445,1.3473482131958008,0.5486349463462831,-0.6849948763847352
2.2446320056915288,-7.205780982971191,7.674642562866211,1.5171276330947878,-0.5613007545471191,-0.7198951840400697
11.024167060852053,14.303946495056154,18.158826828002933,1.0627905130386355,-0.6102377772331239,-0.46830832958221436
5.73438310623169,10.790572166442873,12.253773689270021,0.5337828397750854,0.0681862309575081,-0.3607679009437561
3.175320625305176,1.4455066919326784,10.406947135925295,0.2226651906967163,-0.04960497841238976,-0.20865686237812045
4.105273246765137,-1.9600868225097656,10.562794685363771,0.20329378545284274,-0.1030803769826889,-0.18481998145580295
3.652706861495972,0.01681824028491974,9.351771354675295,0.15195569396018982,-0.15619438886642456,-0.17552889883518222
5.048908710479737,0.5987512469291688,10.006202697753906,0.06802059710025787,-0.03823226317763329,-0.1304440200328827
4.607853412628175,-1.7559888362884521,9.283717155456545,0.07649406045675279,0.04659247398376465,-0.10028910636901855
4.602895259857179,-1.8630791902542116,9.551353454589844,0.1296781599521637,0.06826461106538774,-0.08886198699474335
4.571758270263672,-1.443070650100708,9.801724433898928,0.1409551650285721,0.08494410663843156,-0.07040020823478699
4.365234375,-1.1028194427490234,9.967060089111328,0.11723012477159502,0.06625424325466156,-0.05366048589348794
4.3030457496643075,-0.8878264427185059,10.005358695983888,0.08668366819620134,0.046329565346241,-0.03763601928949356
4.306852817535401,-1.0748469829559326,9.909260749816896,0.07324166595935822,0.03417827561497689,-0.023192331194877625
4.116742610931397,-0.9394527077674867,10.056055068969727,0.04972172528505325,0.02393561229109764,-0.006517922971397639
3.7867159843444824,-0.9868555068969727,9.950277328491211,0.019338356330990795,-0.01216573640704155,0.0007678402471356095
3.636295080184937,-1.0692774057388308,9.881777763366701,-0.013285378925502302,-0.06696602702140808,-0.0011858362704515457
4.186835289001465,-0.77360999584198,10.055177688598633,-0.04784604161977768,-0.09727346152067186,0.002329477109014988
4.414496898651124,-0.7519034147262573,9.955596923828125,-0.08112125098705292,-0.08240213990211487,0.02508029900491238
4.265036582946777,-0.9907034039497377,9.868336677551271,-0.10627737641334534,-0.067161463201046,0.049008168280124664
4.089407444000245,-1.082459092140198,9.820663452148438,-0.11633370071649553,-0.07265014946460724,0.05547580122947693
4.057457447052003,-1.0870927572250368,9.825858116149904,-0.1323024332523346,-0.08808324486017229,0.0559936985373497
4.105981349945069,-1.0059914588928223,9.92628288269043,-0.15533936023712158,-0.10598587989807129,0.06084509566426278
4.233786582946777,-1.1306380033493044,9.789862632751467,-0.16579402983188632,-0.10710698366165161,0.06735084205865861
4.169574737548828,-1.205199956893921,9.68654537200928,-0.17498719692230225,-0.11133003979921342,0.07612254470586778
3.815872430801392,-1.387674331665039,9.46829605102539,-0.17152312397956848,-0.12218127399683,0.07602915167808533
3.7679052352905273,-1.4766933917999268,9.608666419982912,-0.17142616212368014,-0.1624989360570908,0.058253608644008636
4.230794429779054,-1.3233593702316286,9.620604515075685,-0.16833356022834778,-0.17393906414508822,0.04265430569648743
4.312639713287354,-1.4784804582595827,9.544733047485352,-0.15433508157730103,-0.15566967427730563,0.04486311599612237
4.26009464263916,-1.6462266445159912,9.469921112060547,-0.13349926471710205,-0.1383844465017319,0.04194388538599014
4.131033897399902,-1.6611418724060059,9.464969635009766,-0.11463705450296403,-0.12830875813961032,0.034234143793582916
4.12515687942505,-1.790927052497864,9.456465721130373,-0.09616495668888092,-0.12694407999515536,0.021057330071926117
4.25556755065918,-1.806800723075867,9.460641860961914,-0.07699383050203325,-0.12497501075267792,0.003945382311940193
4.355419158935547,-1.3766095638275146,9.482786178588867,-0.06198030337691308,-0.11302138864994049,-0.0007269681082107128
4.41020154953003,-1.1589784622192383,9.576598167419435,-0.06754209101200104,-0.09349270164966583,0.0065152919851243505
4.261795997619629,-1.235957145690918,9.726119995117188,-0.07829066365957262,-0.08382201194763184,0.019870577380061153
4.228143215179444,-1.4789937734603884,9.618650436401367,-0.08201902359724046,-0.08909614384174347,0.02120862901210785
4.0711822509765625,-1.3289029598236084,9.632558822631836,-0.08859741687774658,-0.10136687010526658,0.020234476774930954
4.084889888763429,-1.3681498765945437,9.663396835327148,-0.09504521638154985,-0.12734325230121615,0.013392552733421326
4.001630783081055,-1.7666041851043701,9.468875885009766,-0.09833528846502305,-0.1539103090763092,-0.006755740847438575
3.6874399185180664,-1.8149282932281494,9.426324844360352,-0.08430197089910509,-0.1845921277999878,-0.042654745280742645
4.389825820922852,-1.684762716293335,9.658009529113771,-0.07561762630939484,-0.20486955344676974,-0.06434942781925201
4.232973098754883,-1.4209500551223757,9.562632560729982,-0.07393583655357361,-0.21124958992004395,-0.08667176216840745
3.824731588363648,-1.6183718442916872,9.339237213134766,-0.0630214512348175,-0.22877819836139682,-0.10752643644809723
4.350932598114015,-1.6925529241561892,9.603167533874513,-0.04437033832073212,-0.24391074478626254,-0.15429590642452243
4.615596771240234,-1.3246266841888428,9.705692291259766,-0.05876608192920685,-0.26106455922126776,-0.13971656560897827
4.395968914031983,-1.2203190326690674,9.594166755676271,-0.08531553298234941,-0.2646846473217011,-0.12870657444000244
4.254679203033448,-1.3674470186233523,9.619832038879396,-0.1191752776503563,-0.29580438137054443,-0.12322884052991868
4.332991123199464,-1.255878210067749,9.644012451171875,-0.14087687432765963,-0.3533298969268799,-0.14541283249855042
4.2280030250549325,-1.3208224773406982,9.583664894104006,-0.17423957586288452,-0.3716112077236176,-0.13198727369308472
4.398070812225343,-1.1902153491973877,9.693061828613281,-0.21669577062129977,-0.4337699711322785,-0.1379285454750061
4.440676689147949,-1.1698603630065918,9.696359634399414,-0.25378328561782837,-0.4780701696872712,-0.12440186738967896
4.2739930152893075,-1.212461590766907,9.743725776672365,-0.301466852426529,-0.5704571008682251,-0.13190901279449463
4.192476272583008,-0.9952346086502075,9.861622810363771,-0.36157655715942383,-0.6600244641304017,-0.1261807382106781
4.1398377418518075,-1.153904676437378,9.935126304626467,-0.42989999055862427,-0.800971269607544,-0.11862394958734514
3.855533361434937,-0.9258899688720703,10.074810028076172,-0.5424469709396362,-0.9864957928657533,-0.09820300340652466
3.669066667556763,-0.9635980725288392,10.091678619384766,-0.6348568797111512,-1.2127752304077148,-0.05824805051088333
3.3991971015930176,-0.6528047919273378,10.322913169860842,-0.7293401360511781,-1.492283582687378,-0.02281553111970425
2.9766514301300053,-0.7497457861900331,10.157467842102053,-0.8275963068008423,-1.8138158321380615,-0.023849481716752056
2.820283889770508,-0.7807504534721376,10.211100578308107,-0.9182028770446777,-2.1935021877288823,-0.06068112701177597
2.941504955291748,-0.9804587364196777,10.202903747558594,-0.9682724475860596,-2.6265242099761967,-0.09498094767332078
2.7482774257659917,-1.0897858142852783,10.048665046691896,-0.9864801168441772,-3.111366510391236,-0.10523773729801178
2.65663480758667,-1.1842583417892458,10.244532585144045,-0.9896407127380371,-3.7714500427246094,-0.16837660968303683
2.9265987873077397,-2.187604665756226,10.697821617126467,-0.9786315560340882,-4.440542221069336,-0.22534270584583285
3.0151100158691406,-1.2789555788040163,11.331297874450685,-1.005975127220154,-5.254899978637695,-0.20271942019462585
3.6510462760925293,-2.090897560119629,12.118826866149904,-1.1438988447189333,-6.188379287719727,-0.11525236815214158
4.860939502716065,-2.2134354114532475,15.250022888183594,-1.461923956871033,-7.188908100128175,-0.03095133602619171
7.961241245269776,-2.666898250579834,17.960821151733402,-1.9972150325775146,-8.119423866271974,-0.025265231728553772
11.405149459838867,-5.093585014343262,15.777192115783693,-2.538624525070191,-8.646659851074219,-0.09632621705532074
20.27511215209961,-4.698144435882569,20.171722412109375,-3.096286535263062,-8.836013793945312,-0.24374885857105258
24.057325363159183,-6.257122516632081,22.235626220703125,-3.69686770439148,-8.36635494232178,-0.4745994210243225
24.178550720214844,-7.114930152893066,20.972291946411136,-4.297384262084961,-7.579761981964112,-0.8388810157775879
28.07577705383301,-7.385493755340577,18.93809318542481,-5.3881072998046875,-6.81745481491089,-0.6687137484550477
25.262830734252933,-2.5395288467407227,22.445569992065433,-7.698810100555421,-5.05812931060791,0.10968599468469621
19.49235343933106,-4.272266387939453,19.1034107208252,-9.504574775695803,-2.9516699314117436,0.007015949115157127
18.95098876953125,-10.276700973510742,11.451142311096193,-7.687007427215577,-1.462419033050537,-1.7438184022903445
35.83256912231446,-19.438804626464844,28.923416137695312,-3.971245288848877,1.998768210411072,-2.9719221591949467
10.236189842224123,-12.38549327850342,15.237014770507812,-1.2470084428787234,4.0336408615112305,-2.7554929256439213
5.704925060272218,-3.1752429008483887,7.955982685089112,-0.030857237055897716,4.317068576812745,-2.734795570373535
2.3163897991180424,2.6907010078430176,3.966030359268189,0.06704694032669067,4.219075679779054,-2.8289146423339844
1.2592467069625857,5.772068023681641,2.8552870750427246,-0.7253999114036561,3.9255757331848145,-2.695699691772461
0.22584423422813416,5.272458076477051,2.1187334060668945,-1.6357525587081911,3.7861595153808594,-2.5286939144134526
0.08328615128993988,1.4966607093811035,2.3061904907226562,-2.0281274318695073,3.822822809219361,-2.407461166381836
0.12614233791828158,-1.6332037448883057,3.302807331085205,-1.776628613471985,3.90047550201416,-2.214826345443726
-0.13763006031513217,-2.7499427795410156,4.017460346221925,-1.1331300735473633,4.034754276275636,-1.900287985801697
-0.03902587667107583,-1.3318204879760742,4.394473075866699,-0.6116997003555298,4.25324296951294,-1.4727838039398193
-0.7999539971351625,0.9412991404533387,3.5597908496856694,-0.5016067028045654,4.5084638595581055,-0.9274372458457948
-2.0067248344421387,2.3508770465850835,1.9983206987380984,-0.736497461795807,4.625441551208496,-0.36759707331657415
-2.396021127700806,2.1874938011169434,0.7950574159622192,-0.9615031480789185,4.6138577461242685,0.11473903805017473
-2.1170260906219487,2.4455809593200684,0.06103241443634033,-0.9463109970092773,4.529265880584718,0.4450618624687195
-1.4755684137344363,3.7210402488708496,0.5334250926971436,-0.8976433277130127,4.400234222412109,0.6645321249961854
-0.029231872409582138,4.653534412384034,1.7338229417800906,-0.9091055989265443,4.3946332931518555,0.7733365893363954
1.545750975608826,4.666391372680664,2.6237657070159917,-0.8781651854515077,4.552048683166504,0.7266429662704468
2.4468297958374023,4.060198307037354,2.701608657836914,-0.7230427265167236,4.771008968353272,0.5919189453125
3.246605396270752,4.358376026153565,2.197758197784424,-0.4982955753803254,4.959501743316651,0.43695974349975586
4.43697452545166,4.912073612213136,1.166642427444458,-0.3713884949684143,5.06701421737671,0.3004249930381775
5.579392910003663,4.898058891296387,0.057665809988975525,-0.3271982371807099,5.033209800720215,0.18892329931259155
7.314087867736816,4.335471153259277,-0.16989623010158542,-0.28847718238830566,4.878654003143311,0.08043928444385529
9.726049423217773,3.9297621250152592,0.49307453632354736,-0.20534379780292514,4.695091724395753,-0.027832821011543274
12.301226615905763,3.6444101333618164,1.0730413198471072,-0.1370014697313309,4.501598358154297,-0.11603312939405443
14.221965789794922,3.051697969436646,1.0218592882156374,-0.056716255843639374,4.2145142555236825,-0.18329645693302157
15.955316543579102,2.117847442626953,1.0846734046936035,0.09789112210273743,3.784981966018677,-0.2428012192249298
17.226581573486328,2.067675352096558,1.2268486022949219,0.3062816858291626,3.2355904579162598,-0.2970059216022492
18.441909790039062,2.8271589279174805,1.6130077838897705,0.40462833642959595,2.600603818893433,-0.3447369933128357
19.46340370178223,3.3887593746185307,2.6589131355285645,0.3732623755931855,2.007932186126709,-0.41638052463531494
19.649059295654297,2.7990283966064453,3.1976230144500737,0.3312463462352753,1.5685224533081055,-0.5366256833076478
19.621070861816406,1.5622557401657107,2.281039237976074,0.44609579443931585,1.2202423810958865,-0.5803043842315674
16.937774658203125,1.171766996383667,-0.07668187469244005,0.6358078122138978,0.7619738578796387,-0.46768209338188177
20.078832626342777,7.301120281219483,-6.009639739990234,0.39418309926986694,-0.17684464156627658,-0.13761647045612338
44.589088439941406,-2.157597541809082,-14.56922245025635,-1.4850139617919922,-2.7568809986114506,1.2975938320159912
29.383499145507812,10.501415252685547,30.395528793334964,-1.2593826055526736,-3.6746990680694585,1.3830821514129639
26.38540840148926,4.207051753997804,27.801578521728516,-0.5406487584114076,1.978760004043579,0.3422758281230927
-13.005862236022951,-11.712190628051758,-3.560060501098633,-0.2938444316387177,-0.08202077448368073,0.27873194217681885
8.390388488769531,-3.4926929473876953,17.79772186279297,-0.0866105854511261,-0.7872096896171571,0.03836621344089508
-2.65552306175232,-2.1703135967254643,6.640647888183594,0.14061604440212253,-0.3364517986774445,-0.4934173822402954
8.313634872436523,-4.613427639007569,12.089977264404297,0.058321516960859306,-0.2884438633918762,-0.7806400656700135
6.705252647399902,1.879272699356079,8.566992759704592,0.34372061491012573,-0.09320936352014543,-0.660541594028473
7.951332569122315,6.141440868377686,9.54972553253174,0.02617973275482655,0.17875120043754578,-0.3163157999515534
7.274293899536133,1.0510324239730837,9.985026359558107,-0.17013759911060336,0.3168189227581025,0.0770319253206253
4.551705360412598,-2.1508193016052246,9.450131416320803,-0.13262332975864413,0.3377370238304138,0.17607550323009494
3.8438358306884766,-3.999641656875611,9.378394126892092,-0.015096878632903099,0.2829942405223847,0.04583649709820748
3.8819990158081055,-1.7398575544357302,9.93428134918213,0.10312847793102264,0.19920466840267184,-0.08799515664577484
4.642380237579347,0.10468626022338867,10.08615016937256,0.03136435151100159,0.13760989904403687,-0.06174214556813241
4.60489320755005,0.5249544382095337,10.088489532470703,-0.0732593685388565,0.07759208232164384,0.03354842960834503
4.389721393585206,-0.5152314901351929,9.934174537658693,-0.13499073684215548,0.024744238704442978,0.09448665380477905
4.184632301330566,-1.2380162477493288,9.834080696105959,-0.13604246079921725,-0.027678582817316055,0.08736618608236314
4.097371578216554,-1.1866810321807861,9.887304306030273,-0.14525870978832248,-0.09228365868330003,0.05298527330160141
4.220794200897218,-0.852571964263916,9.950453758239748,-0.15884594619274142,-0.15987613797187805,0.032225865870714195
4.460578441619874,-0.8397890329360962,9.79826545715332,-0.18142330646514893,-0.1990749686956406,0.04699209704995156
4.5411953926086435,-1.1594535112380984,9.510008811950685,-0.1883797198534012,-0.20924893021583557,0.05602728947997094
4.537185192108155,-1.426816463470459,9.415966033935547,-0.1736329644918442,-0.19602034986019137,0.052363499999046326
4.624513626098633,-1.7052136659622195,9.30042362213135,-0.1377402096986771,-0.1863536238670349,0.026963220909237865
4.766550064086914,-1.4036192893981934,9.301412582397461,-0.10061576962471008,-0.15983311831951144,0.012659073807299139
4.640356063842773,-1.273252010345459,9.344501495361328,-0.08395363390445709,-0.13384501636028293,0.009657865390181541
4.653787136077882,-1.1443390846252441,9.483239173889162,-0.07533764094114305,-0.12188839167356492,0.009391868487000465
4.666133403778077,-1.1182435750961306,9.575908660888672,-0.07864256203174591,-0.11855652183294298,0.01616773009300232
4.636792659759522,-1.3266282081604004,9.357398986816406,-0.061482023447752006,-0.11503075063228607,0.011256866157054901
4.676813125610352,-1.2250292301177979,9.359124183654787,-0.04475733265280724,-0.10883520543575287,0.005381231661885978
4.566363334655762,-0.9993900060653687,9.459993362426758,-0.06128372251987457,-0.11930854618549347,0.013612016104161741
4.4624834060668945,-1.0395443439483643,9.57511615753174,-0.08221614360809326,-0.13287837803363803,0.025817066431045532
4.229861259460449,-1.1012094020843506,9.717392921447756,-0.08998338878154755,-0.1801329702138901,0.015614277683198454
4.426345348358155,-1.2079825401306152,9.584300994873047,-0.10095897316932678,-0.22945491969585421,-0.002585798967629671
4.507172584533691,-1.2674553394317627,9.325374603271484,-0.09543628245592119,-0.24464167654514316,-0.010106189176440239
4.638334751129151,-1.2263507843017578,9.277878761291506,-0.09602899104356767,-0.24945750832557678,-0.01762029714882374
4.68424129486084,-1.1404454708099365,9.203282356262209,-0.09575432538986206,-0.24726642668247226,-0.021387180313467983
4.417829513549805,-1.5299906730651855,9.03679084777832,-0.0746990814805031,-0.23502621054649353,-0.038094464689493186
4.297551155090332,-1.6416902542114258,9.203252792358398,-0.04429015144705773,-0.25859650969505316,-0.0700540691614151
4.6361083984375,-1.7680981159210205,9.06984615325928,0.012431153096258642,-0.2635631561279297,-0.11494041234254838
4.656474590301515,-1.4221935272216797,9.21694087982178,0.050942394882440574,-0.27810442447662354,-0.14327794313430786
4.5144009590148935,-0.940055549144745,9.436160087585451,0.03902911022305489,-0.3014054298400879,-0.1473846882581711
4.375977516174316,-1.0989414453506472,9.389700889587404,0.01999729499220848,-0.34311729669570923,-0.14844663441181186
4.258038997650147,-1.4128954410552979,9.40270519256592,0.01895710825920105,-0.4117379486560822,-0.17325544357299805
4.406378746032715,-1.5768748521804812,9.31014919281006,0.03920212388038635,-0.4964123666286469,-0.20547883212566379
4.5489563941955575,-0.9746185541152954,9.403779983520508,0.04819785431027413,-0.5939180850982666,-0.2172552198171616
4.406955242156983,-0.7042054533958436,9.69489860534668,0.020538246259093288,-0.6821263432502748,-0.21673884987831116
4.422909736633301,-0.8803822398185731,9.657179832458498,-0.010367108508944511,-0.8143003582954408,-0.218953937292099
4.452781200408936,-0.8161394000053407,9.712072372436523,-0.05176200717687607,-0.9558919072151185,-0.22331981360912326
4.498605251312257,-0.30287957191467285,9.785756111145021,-0.12246339023113251,-1.1214610338211062,-0.18726414442062378
4.479131698608398,-0.5725565552711488,9.766356468200685,-0.2090643048286438,-1.3174152374267578,-0.15106542408466342
4.601479053497315,-0.9843463897705078,9.842532157897951,-0.2675056159496308,-1.4969286918640137,-0.1380645185709
4.4840760231018075,-2.1789112091064453,10.079357147216797,-0.22854915261268616,-1.6897946596145632,-0.17290718853473666
4.286820888519288,-1.411091446876526,9.720753669738771,-0.10208187997341156,-1.9503935575485232,-0.20320314168930054
5.262908935546875,-0.980826735496521,9.802599906921388,-0.11304184794425964,-2.2008514404296875,-0.24691595137119296
5.077240943908691,-0.7815258502960205,9.558529853820803,-0.09414608031511308,-2.447951316833496,-0.2544724047183991
4.849389553070069,-0.7277044057846069,9.223899841308594,-0.02695940248668194,-2.7516465187072754,-0.28701794147491455
5.284883975982667,0.41138607263565063,9.713441848754883,0.015640176832675934,-3.160225152969361,-0.24916353821754456
4.706006526947022,0.29557859897613525,9.73092555999756,0.11429312825202942,-3.625278949737549,-0.20351715385913852
5.819409370422363,-0.3943992853164673,10.372960090637209,0.20421192049980164,-4.114177227020265,-0.11265517771244049
7.524564743041992,-1.6191282272338867,11.569531440734865,0.21966664493083957,-4.490334510803223,-0.0015662536025047302
9.540111541748047,-2.3611440658569336,12.899324417114258,0.1585882008075714,-4.664691448211671,0.08179536461830139
12.140838623046875,-3.749783515930176,13.642406463623047,0.06196130439639092,-4.680956363677979,0.11742013692855835
17.256153106689453,-5.416435241699219,13.316579818725586,0.4357490539550781,-4.62331247329712,-0.11891765892505646
25.227981567382812,-5.756574630737305,11.847705841064453,1.1707710027694704,-4.392839431762695,-0.510871171951294
31.896770477294922,-1.2873854637145996,8.871155738830568,1.1816126108169558,-4.231424331665039,-0.8580185770988465
32.94752502441406,0.5026687383651733,4.829083919525147,1.3280003070831299,-3.896714687347412,-1.4664889574050906
33.753063201904304,3.801111459732056,5.153257846832276,1.0548046827316286,-3.4779410362243652,-1.8643213510513308
30.26787376403809,7.072610855102539,3.838051557540894,0.40988156199455267,-3.598888397216797,-2.673811435699463
43.4639892578125,3.063187599182129,18.81846427917481,-0.7817810773849487,-3.069076299667359,-3.0108585357666016
30.301597595214844,-0.6834706664085389,16.48935317993164,-1.6022984981536865,-1.5077989101409912,-2.878496885299683
24.12686538696289,-3.960962533950806,13.720285415649414,-2.182517290115357,-0.9478946924209595,-2.7153513431549077
19.721519470214844,-8.928627014160156,13.002904891967773,-1.927814245223999,-0.6207481026649476,-2.585856199264527
12.812263488769531,-12.831910133361818,10.62131118774414,-0.7934314012527466,-0.5793866515159608,-2.3909473419189453
9.60942268371582,-13.041221618652344,11.316068649291992,0.784476935863495,-0.6752427220344545,-2.194091796875
8.018793106079102,-8.434752464294435,13.599793434143068,1.786173224449158,-0.5102071762084961,-1.8217431306838991
5.429325103759766,-4.592289447784425,14.996935844421388,1.8799835443496706,-0.07680851221084595,-1.3276243209838867
2.1971290111541752,-2.716693878173828,14.451086997985842,1.4649369716644287,0.5644506812095643,-0.9041085243225098
-2.363001108169556,-3.6995375156402592,11.766914367675781,1.069979786872864,1.1243211030960085,-0.6622012853622437
-6.196704864501953,-4.246438503265382,8.924859046936037,0.9643663167953491,1.4222236871719363,-0.5343118906021118
-8.37043857574463,-3.71628999710083,7.17453670501709,0.8882905840873719,1.4876728057861328,-0.4123510718345642
-9.424279212951662,-3.560217142105103,5.986767768859863,0.7440294027328491,1.478307366371155,-0.26889508962631226
-10.153393745422365,-3.791290760040283,5.152795791625977,0.5741887688636781,1.4978321790695193,-0.09121385216712952
-10.374755859375,-3.1637313365936284,5.245570182800293,0.32889801263809204,1.5054270029067995,0.14073112607002258
-10.162182807922365,-2.848264217376709,5.090943336486816,-0.012585489079356194,1.6191948652267458,0.4214084446430207
-10.31380367279053,-3.1396541595458984,4.597098827362061,-0.29823961853981024,1.7691199779510498,0.6917039752006532
-9.00900650024414,-2.6405434608459473,5.188044071197511,-0.5571365952491761,1.9487558603286745,0.9733567237854004
-7.616084575653077,-2.2353827953338627,5.641660690307617,-0.7826296687126161,2.3075966835021973,1.2327550649642947
-7.865725994110108,-2.16141414642334,4.403305530548097,-0.8959202766418457,2.6966650485992436,1.423849701881409
-7.6229705810546875,-1.584482192993164,3.2214305400848393,-0.915771484375,2.9331037998199467,1.5553133487701416
-6.447685241699219,-0.6751000285148622,2.8459990024566655,-0.9293591380119325,3.11072850227356,1.6198148727416992
-4.808098316192628,0.15468199551105502,3.1961958408355717,-0.9827560186386108,3.312358617782593,1.6637303829193115
-2.452708959579468,1.225311517715454,3.796629667282105,-1.1039913892745974,3.5913619995117188,1.711287260055542
-0.8306357860565186,1.870055913925171,3.0879795551300053,-1.2213898897171023,3.900838851928711,1.7329522371292116
0.2796131372451782,2.2560925483703613,1.725466847419739,-1.2464854717254639,4.046820640563965,1.693111062049866
2.3309192657470703,2.8245105743408203,1.0061177015304568,-1.17183256149292,4.032735347747804,1.5879969596862793
5.02559518814087,3.4242174625396733,1.0643253326416016,-1.0786840915679932,3.958288431167603,1.4261263608932497
7.9817657470703125,3.7347121238708496,0.9923553466796875,-0.9599280953407289,3.8738322257995605,1.2225486040115359
10.94398593902588,3.236912250518799,0.3705281615257263,-0.7616099119186401,3.743206024169922,0.9779208302497865
13.479783058166506,2.276469469070435,-0.6463799476623535,-0.42730906605720526,3.487947463989258,0.71761292219162
15.577037811279297,1.9266018867492676,-1.1887522935867312,-0.03649163618683816,3.0890016555786133,0.5059783458709717
17.765056610107422,1.6026743650436404,-1.132171630859375,0.2429768443107605,2.5928890705108647,0.37384867668151855
20.365549087524418,1.1364709138870241,-0.17573103308677673,0.4163818359375,2.104780673980713,0.32961842417716986
21.703529357910156,0.5970793962478638,0.12739858031272888,0.5819692611694336,1.7474650144577029,0.36435467004776
20.81686782836914,0.010418413206934929,-0.30446338653564453,0.7405331134796143,1.3940359354019167,0.49368116259574896
18.49051284790039,-0.5238351225852967,-1.296675682067871,0.7897643446922303,1.0343284606933594,0.8091765046119691
22.05303764343262,4.6977810859680185,-2.66573977470398,0.5048880577087402,0.5835816860198975,1.2617160081863406
71.1730422973633,23.213302612304688,24.919963836669922,-2.683295011520386,-0.9060702323913574,1.378897309303284
11.464008331298828,22.959634780883793,-1.4714579582214355,-0.913289248943329,2.8019747734069824,0.10707569122314453
12.809977531433107,-10.241586685180664,19.470403671264652,-1.0089768171310427,2.8667755126953125,0.5923507809638978
-8.056153297424318,-4.478569030761719,7.026607513427734,-0.47469115257263184,2.476613998413086,0.8408676981925965
-5.6497817039489755,-5.313112735748292,15.201741218566896,0.008227259851992132,1.1656501293182373,-0.04879043623805047
-1.9768592119216921,-15.375353813171388,12.530618667602539,0.2871058285236359,0.2309468388557434,-0.5385251045227051
-0.7058374881744385,0.07498854398727417,12.830118179321289,0.21107175946235657,-0.503357231616974,-0.5432219505310059
6.052988052368164,-0.04722176492214203,9.693071365356445,0.21407324075698853,-0.6006046533584595,-0.8131920695304872
9.078615188598633,3.244938850402832,8.396971702575685,0.12375061959028245,-0.43607914447784424,-0.4989174902439118
8.699730873107912,3.5280017852783203,8.370825767517092,0.01515473984181881,-0.0646127685904503,-0.15759821236133578
7.15321969985962,-0.8145018815994263,8.493693351745607,-0.019790070131421093,0.3071836829185486,0.043230842798948295
4.959317207336426,-3.0531868934631348,8.917603492736818,0.06889717280864716,0.48270243406295776,-0.011905622668564321
4.085796356201172,-1.627094030380249,9.685651779174805,0.13957087695598605,0.5115126371383667,-0.09802312403917314
4.215086460113526,-0.18428844213485718,10.049239158630373,0.11754925549030304,0.46366420388221746,-0.09035471826791765
4.423457622528077,0.34393909573555,9.93053722381592,0.04144459217786789,0.3978454768657685,-0.017084885388612747
4.328783512115479,0.1172051727771759,9.968703269958498,-0.02903139963746071,0.3518980145454407,0.07313793152570726
4.089151382446289,-0.5291527509689331,9.97984027862549,-0.05102067440748215,0.2719672024250031,0.10406707227230072
3.651532411575318,-1.0804173946380615,10.03575325012207,-0.05255221202969552,0.18388283252716064,0.0802532434463501
3.74193024635315,-1.2085078954696657,9.997369766235352,-0.03947067633271218,0.08520595729351044,0.027460711076855663
4.127131938934327,-0.6281591057777406,9.963379859924318,-0.044594667851924896,0.01404818519949913,0.0033391818869858985
4.190642356872559,-0.5989539623260498,9.824225425720217,-0.06578754633665086,-0.025393322110176086,0.025376880541443828
4.377577304840089,-0.7197415232658387,9.706669807434084,-0.07888033986091614,-0.038949202746152885,0.05239814892411233
4.358720779418945,-0.8317373394966127,9.645864486694336,-0.0772216245532036,-0.04409130662679672,0.06873654574155809
4.458348274230957,-0.8073794841766357,9.76441287994385,-0.08148989826440813,-0.04855007305741311,0.0949084460735321
4.166219234466554,-1.0947924852371218,9.671898841857912,-0.0759180337190628,-0.06942167133092882,0.08938318490982056
4.309652328491211,-1.298449993133545,9.512174606323242,-0.05891824886202813,-0.06885513663291931,0.06550803780555725
4.502252578735352,-1.049626350402832,9.471323013305664,-0.03739386796951294,-0.05586348101496697,0.03581489622592926
4.561160087585449,-0.3581976890563965,9.720212936401367,-0.05894991010427475,-0.051638856530189514,0.05716754868626595
4.317728519439698,-0.6630802154541016,9.72466564178467,-0.09036777913570404,-0.059262696653604514,0.08752651512622833
4.15713930130005,-0.8846132755279541,9.576215744018555,-0.10439356416463853,-0.07282640039920807,0.09178707003593445
4.208946228027344,-0.9128978252410889,9.648092269897461,-0.10687930881977081,-0.09173130244016649,0.08610837161540985
4.163764953613281,-1.1024590730667116,9.588824272155763,-0.10296054929494859,-0.11998922377824785,0.06779201328754425
4.12276554107666,-1.058279871940613,9.459783554077148,-0.10189615190029144,-0.12586186826229098,0.059688158333301544
3.905632972717285,-1.7724056243896484,9.274972915649414,-0.07329759746789934,-0.14248281717300415,0.02109215408563614
3.966871023178101,-1.2495152950286865,9.60625743865967,-0.043712947517633445,-0.18219074606895447,-0.016337515786290172
4.118382453918457,-0.8843929171562196,9.733508110046388,-0.035599417984485626,-0.22190940380096436,-0.021463813260197643
4.208290100097656,-0.9954190850257875,9.517685890197756,-0.028648955747485164,-0.2631332278251648,-0.03047926910221577
4.241928577423097,-1.1669124364852907,9.493659019470217,-0.02938040718436241,-0.2808279097080231,-0.046638298779726035
4.405562400817871,-0.9678337574005127,9.422801971435547,-0.01965857669711113,-0.2956680357456208,-0.0602090060710907
4.347897529602051,-0.7293381690979004,9.47840213775635,-0.013405882753431799,-0.3105154931545258,-0.0681738555431366
4.377402305603027,-1.258543133735657,9.312305450439453,6.294733611866832e-05,-0.32384601235389715,-0.08419337868690491
4.241962909698487,-1.1852288246154785,9.558245658874513,0.006146533414721489,-0.34874758124351507,-0.10823840647935869
4.159502029418945,-1.2639408111572266,9.573654174804688,0.012703374028205872,-0.38569930195808416,-0.13782250881195068
4.313793182373047,-1.380678653717041,9.566024780273438,0.04813870042562485,-0.43792569637298584,-0.17150069773197177
4.45042610168457,-1.0446823835372927,9.545674324035646,0.07957784086465837,-0.4898449778556824,-0.2011872082948685
4.004197120666504,-1.26048481464386,9.755965232849123,0.11352930963039398,-0.5648222565650941,-0.21181590855121615
4.231392860412598,-0.8128377199172974,9.88930416107178,0.11981128901243211,-0.692489504814148,-0.21503524482250216
4.411757946014405,-0.6086446046829224,9.73609256744385,0.11368624866008759,-0.8170692920684814,-0.20896525681018832
4.217028141021729,-0.4908097982406616,9.964253425598146,0.06398022919893266,-0.9376977682113647,-0.18300972878932956
4.211169719696046,-0.46167850494384766,9.81503677368164,0.05934229493141174,-1.0976437330245974,-0.15809307992458346
4.177312374114991,-0.6965810060501099,9.874220848083498,0.02378165535628796,-1.251688003540039,-0.154808446764946
4.327780723571777,-0.9916408061981201,9.426815032958984,0.028261845931410793,-1.440150856971741,-0.15904849767684937
4.797001361846925,-0.613104283809662,9.440380096435547,0.004452980589121581,-1.6026690006256104,-0.1553018540143967
4.976259231567383,-0.5697406530380249,9.508605003356935,-0.0910935625433922,-1.734931468963623,-0.17393964529037476
5.553873538970948,-2.040736675262451,9.953575134277344,-0.0290618259459734,-1.8231093883514404,-0.20588298141956332
4.837897777557374,-0.5828548669815063,9.74171543121338,0.05616513639688492,-1.9841396808624268,-0.22016303241252902
5.40579652786255,-0.8379750847816468,9.728830337524414,-0.0017397465417161586,-2.122044086456299,-0.24976725876331332
5.212284564971925,-0.3942377865314484,9.732424736022951,-0.030255967751145366,-2.3180084228515625,-0.27566784620285034
4.825894355773926,-0.39900764822959905,9.784071922302248,-0.021121222525835037,-2.5849301815032963,-0.31601303815841675
4.3667969703674325,-0.5762293338775635,9.84664535522461,0.11815474182367326,-3.025908708572388,-0.3710950016975403
4.3459577560424805,-1.104563355445862,10.155364990234375,0.3608793914318085,-3.6248040199279785,-0.44045534729957586
5.4574551582336435,-1.960416555404663,10.473306655883789,0.5834169387817383,-4.191236972808839,-0.48196724057197576
7.886762619018555,-1.4872229099273682,12.36236572265625,0.6300818920135498,-4.582879543304444,-0.44655388593673706
11.212035179138185,-1.6683201789855957,14.02270030975342,0.46126794815063477,-4.776186943054199,-0.3200089037418366
13.95397472381592,-2.9591989517211914,14.467897415161133,0.467521071434021,-4.795927524566651,-0.3256341814994812
19.439292907714844,-3.415775537490845,15.809724807739258,0.5801742672920228,-4.610272407531738,-0.5293411016464233
24.899494171142578,-3.433813810348511,14.628034591674805,0.6405346393585205,-4.359586238861085,-0.7414631843566895
27.03023719787598,-3.5046496391296387,11.330192565917969,0.6937639117240907,-4.101419925689698,-0.8316875696182251
29.846708297729496,-5.848495960235597,10.891504287719727,1.2512407302856445,-3.606277227401734,-0.9408450126647949
27.47310066223145,-5.680502891540527,6.816559791564941,2.0928699970245366,-3.2185654640197754,-0.9424004554748535
33.781654357910156,1.8126282691955566,11.502666473388672,1.8591583967208865,-3.430082321166992,-0.9193542599678041
33.71599197387696,2.3132460117340092,19.59714126586914,0.7677198052406312,-2.0261981487274174,-0.7840780019760132
23.111568450927734,2.454927444458008,14.74290657043457,-0.48511537909507757,-1.1386854648590088,-0.5659626126289369
18.78240966796875,0.7112993001937866,11.157804489135742,-1.5040695667266846,-0.8989855647087098,-0.6443422436714173
13.559004783630373,-2.17569637298584,8.264525413513185,-1.7784212827682497,-0.943185567855835,-0.8624851107597352
11.276674270629883,-5.376323699951172,7.619444370269776,-1.411379337310791,-1.14463472366333,-1.1131490468978884
11.272879600524904,-7.686725616455078,9.014971733093263,-0.5386316180229188,-1.2265214920043945,-1.2633823156356814
9.577865600585938,-7.463191032409668,10.47707271575928,0.520581841468811,-1.026609778404236,-1.2306474447250368
6.921380043029785,-4.425073623657227,11.018321990966797,1.1537935733795166,-0.6389779448509217,-1.0606787204742432
3.557369470596314,-1.7075451612472536,10.478930473327638,1.186557173728943,-0.2234364300966263,-0.853071928024292
0.3918079733848572,-0.2956029176712036,9.720910072326662,0.7773247361183168,0.12908130884170532,-0.6723173260688783
-1.2487241029739382,-0.1660164445638657,8.75159549713135,0.2380645722150803,0.47021055221557617,-0.47993940114974976
-3.932876825332642,-1.291459918022156,6.612902164459229,-0.024339716881513596,0.7896692156791688,-0.31488561630249023
-5.794251441955566,-2.1302678585052495,5.323602199554444,0.0003086938813794405,0.9524314999580384,-0.2074146568775177
-5.620654106140137,-2.1888916492462163,5.688471794128418,0.10011900961399078,1.080907702445984,-0.06547664105892181
-5.711164474487305,-1.7789400815963747,5.624761581420898,0.18825732171535495,1.325700283050537,0.11518144607543945
-6.809616565704347,-1.2562552690505984,4.9165496826171875,0.20295257866382602,1.5610222816467285,0.2877530157566071
-7.0337281227111825,-0.8001397252082826,4.3682522773742685,0.11590785533189775,1.7501350641250613,0.44155561923980713
-7.289900302886964,-0.5917033553123475,3.5097234249114995,0.009867656975984573,1.931082367897034,0.5361627340316772
-7.528029441833496,-0.47187277674674993,2.6331915855407715,-0.09215913712978363,2.057198286056519,0.5955269932746888
-7.07886552810669,-0.3068546354770661,2.409427404403687,-0.19301997125148776,2.158196449279785,0.6560388207435609
-6.185038089752198,-0.31049299240112305,2.751474380493164,-0.29568025469779974,2.327572107315064,0.7270362377166748
-5.277968883514405,-0.5759211778640747,2.9984540939331055,-0.36447060108184814,2.5760977268219,0.7952276468276978
-4.354311943054199,-0.6078925728797914,2.9075074195861816,-0.3766192495822907,2.8739218711853027,0.8713310956954956
-3.3535356521606445,0.02256454899907112,2.7553653717041016,-0.4147718548774719,3.1701819896698002,0.9725154638290405
-2.248753070831299,1.0710753202438357,2.3761146068573002,-0.5394144654273988,3.445015192031861,1.057610273361206
-0.5236563682556152,1.9668807983398438,2.1384584903717045,-0.7575238347053529,3.687643051147461,1.0960572957992556
1.1026618480682373,1.226264476776123,1.5397610664367676,-0.8593566417694092,3.857263326644898,1.0443302392959597
2.5135202407836914,0.93986976146698,0.9882370829582215,-0.7422460913658143,3.8692941665649414,0.9557864069938661
4.519386291503906,1.8671134710311892,1.5572190284729004,-0.6297446489334106,3.8015289306640625,0.8605802655220033
7.612576484680176,2.3657233715057377,2.7614197731018066,-0.6380699872970581,3.789181470870972,0.7459114789962769
10.431094169616701,1.4849308729171755,2.7519021034240723,-0.5766803026199341,3.8358714580535893,0.6108241677284242
12.351140022277834,0.21848273277282715,1.4102013111114502,-0.335152417421341,3.765961170196533,0.48318389058113104
14.048332214355469,-0.18454989790916443,-0.17182913422584534,-0.063399575650692,3.484242677688599,0.46927791833877563
15.100014686584474,-0.35135975480079656,-1.3760366439819336,0.12505377829074862,3.0169014930725098,0.571784794330597
16.089962005615234,0.023986902087926865,-1.7605183124542236,0.17901793122291565,2.4554884433746342,0.7720702290534974
16.869596481323246,0.22640788555145264,-1.4973678588867188,0.14772342145442965,1.9438135623931885,1.0009292364120486
15.956766128540039,0.603699803352356,-2.569960594177246,0.10038285702466966,1.5071378946304324,1.199784517288208
12.963247299194336,0.7602842450141908,-5.198272705078125,-0.018113471567630768,0.9318072199821473,1.377669095993042
49.96250915527344,17.37980461120606,-3.485176324844361,-1.942213773727417,-0.8791170716285707,1.3620263338088991
64.12448883056642,25.879024505615234,33.47111892700196,-1.5007600784301758,1.525330424308777,-0.24304699897766113
5.322084426879883,3.0042734146118164,-5.382594585418702,-0.6331928968429565,2.439296245574951,-0.26713463664054876
6.012767791748047,-7.303594112396241,16.363500595092777,-0.6717584133148193,2.865322351455689,0.7971694469451904
-6.138016223907472,4.664976119995117,13.462029457092287,-0.248908206820488,2.427982807159424,0.16618874669075012
1.2706617116928103,-10.392932891845703,11.722033500671388,0.17804746329784396,2.114964008331299,-0.8254122138023378
0.7729079723358154,-9.325721740722656,13.197603225708008,0.37456947565078735,1.0017387866973877,-0.2545676529407502
-2.458348989486695,2.4553554058074956,13.230936050415039,0.30763912200927734,0.11496815830469133,-0.3568691611289978
2.6741833686828613,-2.4084324836730957,10.789685249328615,0.21000878512859347,-0.3586050271987915,-0.5237138271331787
7.240684509277344,1.1028106212615967,9.206871032714844,0.15311317145824435,-0.4001271724700928,-0.4212887585163117
7.380888938903809,2.067240476608277,8.399274826049805,0.033644232898950584,-0.20827706158161166,-0.14081719517707825
6.939861297607422,-0.6765282154083252,8.053162574768068,-0.005003899801522494,0.09960180521011353,-0.005439710337668658
5.343894958496094,-1.7670050859451296,8.68600845336914,0.06446555256843567,0.29372105002403265,-0.0026985688600689177
4.1949663162231445,-0.5445693135261537,9.818231582641602,0.07059792429208757,0.3325960040092468,-0.002396973548457027
4.097133636474609,-0.35381585359573364,10.066076278686523,0.021900499239563945,0.2565812170505524,0.03106449544429779
4.2076992988586435,-0.6646618247032167,9.93785285949707,-0.019219482317566875,0.19184601306915283,0.05489796027541161
4.442561626434327,-0.6728606820106507,9.63955593109131,-0.02870924957096577,0.15127375721931458,0.05824076384305954
4.3489346504211435,-0.44038474559783936,9.88845443725586,-0.038258135318756104,0.10507304221391679,0.06457497179508209
3.9694054126739506,-0.6138252019882202,9.985013008117678,-0.06523625552654266,0.035490743815898895,0.07126539200544359
3.9433083534240723,-0.8631024360656738,9.949386596679688,-0.07853159308433533,-0.05349483713507653,0.055419616401195526
4.121979713439941,-0.7946721315383911,9.904464721679688,-0.09966586530208588,-0.14040373265743258,0.03815101459622384
4.4808349609375,-0.5338177680969238,9.831022262573242,-0.13380318880081177,-0.18792717158794406,0.05665183812379837
4.386970043182374,-0.7206967473030091,9.597273826599123,-0.1462394893169403,-0.21956521272659302,0.06785350292921068
4.517790794372559,-0.6446357369422914,9.71687412261963,-0.17596261203289035,-0.24431201815605164,0.07706262916326524
4.555310249328613,-0.9801079630851747,9.580533981323242,-0.1837643533945084,-0.25429844856262207,0.0909520834684372
4.665213584899902,-1.2372381687164307,9.370174407958984,-0.15929079055786133,-0.2655430734157563,0.06786511838436127
4.776810646057129,-0.7939496636390687,9.443626403808594,-0.18251936137676242,-0.25635179877281195,0.05722823739051819
4.64406681060791,-1.0200097560882568,9.380984306335451,-0.18656314909458163,-0.24648532271385193,0.06805271655321123
4.590149402618409,-0.8633669018745423,9.473760604858398,-0.19726283848285678,-0.2578151822090149,0.05047651380300522
4.649327754974366,-1.1116292476654053,9.521517753601076,-0.23161646723747253,-0.25666639208793646,0.06368596851825714
4.611088275909425,-1.1799548864364626,9.426762580871584,-0.21637961268424988,-0.27163779735565186,0.049692261964082725
4.938430309295655,-0.8194025754928589,9.339695930480959,-0.24446693062782288,-0.2594352066516877,0.061985231935977936
4.993847370147706,-1.0007753372192383,9.250676155090334,-0.25878855586051946,-0.23768717050552368,0.06964139640331268
5.049159526824952,-0.820720911026001,9.239557266235352,-0.28096598386764526,-0.19085295498371127,0.10848072171211243
4.8448076248168945,-1.1124383211135866,9.241114616394045,-0.27409705519676214,-0.1646225601434708,0.13572058081626892
4.722882270812988,-1.3723801374435427,9.320249557495117,-0.25889441370964056,-0.1335756480693817,0.14974941313266757
4.462518215179444,-1.6484479904174805,9.13941764831543,-0.1964663863182068,-0.1298426538705826,0.11636454612016679
4.796924114227296,-1.998589873313904,9.03794574737549,-0.12548224627971652,-0.11278803646564484,0.06499146670103075
4.865621566772461,-1.5430703163146973,8.987852096557617,-0.07796606421470642,-0.08906890451908112,0.038698520511388786
4.994582653045655,-1.1601536273956299,8.957515716552734,-0.06315075606107713,-0.05380159616470337,0.030688231810927395
4.9539532661438,-1.1711490154266357,9.00030517578125,-0.04852453246712685,-0.006869036704301834,0.044291071593761444
4.537381172180176,-1.6185842752456667,9.101737976074219,-0.04536549746990204,0.03279262408614159,0.0353972464799881
4.597610950469972,-1.8779293298721316,9.212672233581545,-0.02071644365787506,0.015266966074705124,-0.005432945210486651
4.5735321044921875,-1.481199622154236,9.246335983276367,0.0072583407163619995,-0.0001784814667189494,-0.03456151485443115
4.534074306488038,-1.0196270942687988,9.462821960449219,0.005011669360101223,-0.034934733062982566,-0.036756832152605064
4.357087135314941,-1.2029483318328857,9.450385093688967,0.004556206054985523,-0.07153329998254777,-0.038237929344177246
4.2788405418396005,-1.1117522716522217,9.614984512329102,0.0167772900313139,-0.14894978702068332,-0.05916848033666611
4.003100395202637,-1.4033991098403933,9.58412837982178,0.012481302954256536,-0.230633944272995,-0.09101032465696336
4.139545917510987,-0.8543912172317505,9.780941009521484,0.005338490940630436,-0.352752834558487,-0.1154148504137993
4.490701198577882,-0.7490865588188172,9.788062095642092,-0.032711897045373924,-0.4706254005432129,-0.1072947457432747
4.121423721313477,-0.8521808385848999,9.951610565185547,-0.05200853943824768,-0.595659613609314,-0.08831230551004411
3.864715099334717,-1.2508258819580078,9.980903625488281,-0.09092515707015991,-0.765436351299286,-0.09187211096286774
3.995447397232056,-1.303413271903992,9.843347549438477,-0.10387703776359558,-0.9841282963752748,-0.11198423057794572
3.9627227783203125,-1.0638232231140137,9.885091781616211,-0.1232079416513443,-1.2035735845565798,-0.12261529266834259
3.9827315807342534,-1.1776515245437624,9.758766174316406,-0.18752342462539673,-1.4458060264587402,-0.1472955495119095
4.250072956085206,-0.9709894061088563,9.935957908630373,-0.26671811938285833,-1.667834997177124,-0.15444655716419223
4.416369915008546,-1.140190601348877,9.743606567382812,-0.25555849075317383,-1.9105428457260134,-0.15117113292217257
5.246182918548585,-1.8762720823287966,10.287842750549318,-0.22836466133594516,-2.089097499847412,-0.17273907363414767
4.115595340728761,-1.1483005285263064,9.264472007751467,-0.07667392492294312,-2.382847785949707,-0.1809867173433304
4.989936828613281,-1.4715824127197266,9.832128524780273,-0.0281553715467453,-2.6884291172027592,-0.2798488736152649
4.309146881103516,-1.147494673728943,10.117272377014162,0.11184001713991167,-3.108631134033203,-0.31305742263793945
4.4842238426208505,-0.9518978595733643,10.51788330078125,0.22236749529838562,-3.5818340778350835,-0.31107228994369507
5.4038147926330575,-2.3756124973297124,10.665223121643068,0.36143243312835693,-4.087373733520508,-0.33184280991554266
7.515748023986816,-2.680349349975586,11.782986640930178,0.4318874478340149,-4.422742366790772,-0.3485623598098755
9.160243034362795,-2.8697788715362553,12.52935314178467,0.4143970906734467,-4.549437522888184,-0.34594297409057617
11.800547599792482,-3.639126062393189,13.024123191833498,0.42130494117736816,-4.481098651885987,-0.3643262982368469
15.909571647644045,-4.6917738914489755,13.671514511108398,0.6425510048866273,-4.357405185699464,-0.5474495887756348
22.057308197021484,-3.529155492782593,13.955363273620607,0.8809986710548402,-4.1220903396606445,-0.7608078122138978
27.01286125183106,-2.1300086975097656,12.460423469543459,0.6846709847450257,-3.694819450378418,-0.8676115274429321
24.794952392578125,-1.206456184387207,6.867755413055421,0.6029807329177856,-3.2998778820037846,-1.0881600379943848
25.006561279296875,0.511272668838501,6.793137073516847,0.5544850230216981,-3.1950609683990483,-1.457028865814209
23.839523315429688,2.8651449680328374,6.021906852722168,0.11807060241699219,-3.4413220882415776,-1.8935341835021973
35.24821853637696,0.15684664249420166,17.548503875732422,-0.6178032755851747,-2.967231273651123,-2.0054526329040527
24.316242218017578,-2.371634006500244,14.324029922485352,-1.09623122215271,-1.874742388725281,-1.8886151313781738
21.449169158935547,-4.3595428466796875,12.893133163452148,-1.3806756734848025,-1.5928643941879275,-1.8327968120574951
18.13436317443848,-5.896759033203125,11.37652587890625,-1.127986788749695,-1.3880670070648193,-1.8772319555282595
14.124181747436523,-6.50410032272339,9.47476100921631,-0.6931393742561341,-1.3909311294555664,-1.872229814529419
11.435256958007812,-6.4704298973083505,8.494551658630373,-0.1454073637723923,-1.4852979183197021,-1.8716078996658327
8.9957275390625,-5.863859653472901,8.060214042663576,0.24799028038978577,-1.6336407661437988,-1.7558311223983767
7.614626884460449,-5.300020217895508,9.0235595703125,0.41661414504051214,-1.7800140380859375,-1.4643102884292605
7.971976280212402,-4.913169860839844,10.978251457214357,0.3799708187580109,-1.6834080219268799,-0.9819833040237427
7.022153854370117,-4.939496040344238,11.713752746582031,0.3618504703044892,-1.2715134620666504,-0.4505291879177094
3.761287927627564,-4.839289188385011,10.871070861816406,0.4853185713291169,-0.7675459980964662,-0.02314705401659012
0.5841748118400575,-3.8669011592864995,9.207616806030273,0.6213488578796387,-0.42624148726463323,0.3380151391029358
-1.2589209079742432,-2.298959732055664,7.997862339019776,0.6248094439506532,-0.23399761319160461,0.6526815891265869
-1.6779565811157227,-1.537384867668152,7.8760881423950195,0.5039087533950806,-0.025151183828711513,0.9163898229598999
-1.200873851776123,-1.4072357416152956,8.557968139648438,0.3884283006191254,0.3443556129932404,1.123262643814087
-2.3448765277862553,-1.546736717224121,8.120609283447266,0.43764141201972967,0.8583197593688965,1.246610999107361
-4.300646305084229,-0.868895411491394,7.215967655181886,0.582009255886078,1.2644634246826172,1.2303955554962158
-4.683181285858155,0.7319648861885072,6.791948795318604,0.5389267802238465,1.6161651611328125,1.1494175195693972
-4.825366020202637,1.42814302444458,6.495441436767578,0.3523098528385163,2.010611772537232,1.0165209770202637
-4.903857231140137,0.8342337012290956,5.930317401885987,0.1949106752872467,2.4168589115142827,0.8537006378173828
-5.225237369537354,0.31917509436607366,4.704277992248535,0.17775672674179077,2.776525735855103,0.66621071100235
-5.49160099029541,0.5068581104278564,3.5448610782623295,0.18351131677627563,3.0374238491058354,0.48527204990386963
-5.245326519012452,0.3908262252807617,2.7870643138885502,0.0837295800447464,3.2239174842834473,0.35889258980751043
-4.375970363616944,-0.4035677611827851,2.766542196273804,-0.026554357260465622,3.384048223495484,0.3037876486778259
-3.0037455558776855,-1.0459455251693728,2.7626655101776127,-0.10579868406057359,3.6084909439086914,0.3582857847213745
-2.542393684387207,-0.9696321487426758,1.6236630678176882,-0.17377047240734103,3.8202075958251953,0.48914572596549993
-1.657826066017151,-0.038956210017204285,1.1462233066558838,-0.350780725479126,3.8947596549987793,0.6788393855094911
0.3706288635730744,1.0002335309982302,1.2841831445693972,-0.6612933278083802,3.962282657623291,0.8500600457191468
2.672026872634888,0.5383121967315674,1.2100160121917725,-0.911602556705475,4.052411079406738,0.9131847620010376
4.369815826416016,-0.44223651289939886,0.6885279417037964,-0.8731353878974916,4.0854902267456055,0.9172597527503968
5.762233257293702,-0.0036246739327907562,0.38792526721954346,-0.6825957894325257,4.004480838775636,0.887291669845581
7.756248474121094,1.4304586648941042,0.7579138278961182,-0.6229818463325502,3.8469009399414062,0.864666521549225
9.800085067749023,1.473199009895325,0.35498297214508057,-0.6725202202796937,3.6682095527648926,0.7969636917114258
12.142188072204592,-0.030320057645440105,0.18482717871665955,-0.5781536698341371,3.3953113555908203,0.6974186301231385
14.319020271301271,-0.33290609717369085,-0.05702158063650131,-0.3337301909923554,3.064712762832642,0.7161624431610107
16.12633514404297,0.3034566640853882,-0.6219630837440492,-0.2077549397945404,2.684427976608277,0.7928704023361206
17.754329681396484,-0.28838220238685613,-1.0321199893951416,-0.1703494042158127,2.247129440307617,0.9190419912338257
18.309162139892578,-0.39002165198326116,-1.5438151359558105,-0.038971338421106345,1.809840440750122,1.084522604942322
17.18148422241211,0.6085643768310547,-3.031726360321045,0.05187191814184189,1.3794889450073242,1.2433587312698366
12.893423080444336,2.0032274723052983,-7.918282508850098,0.020183641463518143,0.7868998646736146,1.3715929985046387
6.300615787506104,3.464360237121582,-13.690320014953615,-0.19918766617774963,-0.4115221202373505,1.3804196119308474
93.6312255859375,17.726490020751953,43.5785255432129,-1.0067859888076784,-2.409623622894287,-0.5208604931831361
9.353517532348633,23.38955879211426,-7.540911674499512,-0.07820964604616167,4.033762454986573,-1.031421422958374
9.95943355560303,-11.520553588867188,12.79500484466553,-1.2373589277267458,2.0278282165527344,0.2143840938806534
-2.353860378265381,7.618262767791749,16.133548736572266,-0.21251648664474487,2.304764032363892,0.5646048188209535
-3.6728873252868652,-2.301494598388672,13.712753295898438,-0.19718709588050842,1.9557729959487917,0.046085625886917114
2.032858371734619,-15.173463821411133,9.85182857513428,0.23463140428066256,1.3176988363265993,-0.5563806295394897
3.479681730270386,-4.269469738006593,11.882151603698732,0.49405315518379217,0.49410027265548706,-0.45649233460426336
2.0812709331512456,0.10570093989372253,11.013747215270998,0.5491126775741577,0.20109812915325168,-0.6181311011314393
7.109347820281983,1.5050547122955322,9.292251586914062,0.4135152995586396,0.14934217929840088,-0.5111276507377626
7.279999256134034,3.1429619789123535,9.232012748718263,0.14403299987316134,0.21126638352870944,-0.17965558171272278
6.025029182434082,-0.400240570306778,8.84984874725342,0.07150346040725708,0.3577044308185578,0.022572744637727737
5.293400764465332,-2.104955434799195,8.704987525939943,0.09996023774147034,0.47710576653480535,0.04406017437577248
4.566334247589112,-1.5813336372375488,9.237516403198242,0.11610127240419389,0.5214719772338867,0.0004108548455405981
4.340260982513429,-1.2889102697372439,9.627143859863281,0.11904846131801605,0.46530985832214355,-0.0275984350591898
4.1807312965393075,-0.003484293818473816,10.117361068725586,0.05817587301135064,0.37688910961151123,0.021623736247420314
4.230075359344483,-0.43428128957748413,9.894010543823242,-0.011111591942608358,0.2782912254333496,0.09671150147914886
4.3348493576049805,-0.6028670668601991,9.918021202087404,-0.05265571177005768,0.1922906190156937,0.12908366322517395
4.184023857116699,-0.827380895614624,10.014785766601562,-0.10361514985561371,0.09941934049129486,0.15910510718822482
4.048112392425538,-1.153144717216492,9.833244323730469,-0.13098832964897156,0.004125060047954322,0.13927921652793884
4.47451114654541,-0.9179242849349976,9.737725257873537,-0.14805743098258972,-0.06745416671037675,0.1200365647673607
4.585337162017823,-0.4571654796600342,9.765682220458984,-0.19640330970287326,-0.0973450243473053,0.15036253631114962
4.763859748840332,-0.5789089202880859,9.750469207763672,-0.23518069088459018,-0.13627304136753085,0.16707390546798706
4.586139678955078,-0.7772375941276551,9.661182403564453,-0.29034245014190674,-0.14917208254337314,0.1982322633266449
4.587433338165284,-1.3628774881362917,9.563767433166506,-0.2879231572151184,-0.16283760964870456,0.201326921582222
4.5693559646606445,-1.549184799194336,9.355611801147461,-0.2885378301143647,-0.153517484664917,0.20131357014179233
4.736899375915527,-1.017001509666443,9.579750061035156,-0.28863963484764105,-0.15984545648097995,0.2098574936389923
4.703875064849854,-1.3369580507278445,9.369456291198732,-0.3141273856163025,-0.15790684521198275,0.2074933648109436
4.810172557830811,-1.647420883178711,9.285113334655763,-0.29743304848670965,-0.13813051581382751,0.22625702619552612
4.54548215866089,-1.4402999877929688,9.275170326232912,-0.2925901412963867,-0.13609988987445834,0.22249844670295715
4.718754768371582,-1.6676623821258545,9.22400760650635,-0.2702853381633759,-0.11126642674207689,0.1962614357471466
4.775255680084229,-1.904259204864502,9.047195434570312,-0.23320022225379944,-0.0837850645184517,0.17410865426063538
4.58046817779541,-1.8892135620117188,9.094166755676271,-0.21511586010456088,-0.046243198215961456,0.16008302569389343
4.6628994941711435,-2.201432704925537,9.042717933654787,-0.17018751800060275,-0.026733562350273132,0.12314812093973161
4.640386104583741,-2.2645106315612793,8.930727005004883,-0.12485530227422716,0.015448478050529959,0.1059177815914154
4.588736057281495,-2.2261409759521484,8.959967613220217,-0.0670018568634987,0.023860856890678406,0.07048987597227098
4.902060508728027,-1.8280769586563113,9.253129959106445,-0.040044523775577545,0.058720860630273826,0.0492696724832058
4.537405014038086,-2.085743665695191,9.034915924072266,-0.01635132543742657,0.08866491913795471,0.04136366024613381
4.756180763244629,-2.0178542137145996,9.028327941894531,0.01930932514369488,0.0962471440434456,0.023737043142318726
4.647513389587402,-1.410382390022278,9.296366691589357,0.032226450741291046,0.12475294619798662,0.020233504474163055
4.504152297973633,-1.5626701116561892,9.16553592681885,0.032470103353261955,0.14443880319595337,0.040922872722148895
4.169860363006593,-1.5541868209838867,9.206334114074709,0.026159131899476055,0.1312761902809143,0.049701418727636344
4.060981750488281,-1.4608076810836794,9.460853576660156,0.0011318814940750599,0.09116937220096588,0.05751666799187661
3.8138604164123535,-1.591923713684082,9.425230026245117,-0.04385446757078171,0.01752731762826443,0.04396715760231018
3.9983129501342773,-1.6900146007537842,9.570173263549805,-0.06674591451883317,-0.06703594326972961,0.026886150240898132
3.9655129909515385,-1.6438250541687012,9.414792060852053,-0.07361321896314622,-0.13551273941993713,0.0003819191188085825
3.8192191123962402,-1.6800947189331055,9.375032424926758,-0.08337398618459703,-0.22423289716243747,-0.022196423262357712
3.233704805374146,-1.8693382740020752,9.48953151702881,-0.08215361833572388,-0.35526987910270696,-0.06277091801166534
3.5468826293945312,-2.3995482921600346,9.828803062438967,-0.02803338505327702,-0.5324225425720215,-0.14346617460250854
4.585688114166261,-1.7239910364151003,9.7527551651001,-0.022051528096199036,-0.635896146297455,-0.1861691176891327
4.674295425415039,-1.0518120527267458,9.794529914855959,-0.07419660687446594,-0.6979392766952515,-0.19575305283069613
4.531588554382324,-1.3214545249938965,9.603014945983888,-0.12061703205108643,-0.7786220908164979,-0.17594972252845764
4.157445907592773,-1.6626219749450684,9.760695457458498,-0.18582557141780856,-0.8922247886657715,-0.18147292733192444
4.589056015014648,-0.5514183044433594,10.234272956848146,-0.22640147805213928,-1.088597893714905,-0.1550343632698059
4.600852966308594,-0.6643382906913758,10.106848716735842,-0.3476120531558991,-1.2614790201187136,-0.12861251831054688
3.4196386337280273,-0.6243805885314941,10.04777240753174,-0.3766021728515625,-1.5292140245437624,-0.10379095375537872
4.02698564529419,-0.8236581087112427,9.650785446166992,-0.4396800100803376,-1.8693547248840332,-0.1075190007686615
3.6308059692382812,-1.4719818830490115,9.670565605163576,-0.45637160539627075,-2.151011228561402,-0.12154610455036163
4.344374656677246,-2.2581300735473633,10.14132308959961,-0.3865156471729279,-2.482002973556519,-0.16029110550880432
3.835631132125855,-2.0328505039215092,9.268773078918459,-0.18040196597576144,-2.8602776527404785,-0.21232642233371737
5.14857053756714,-1.2083003520965576,9.766216278076172,-0.13414119184017184,-3.2512426376342773,-0.222724050283432
5.157373905181886,-1.0289278030395508,10.336967468261719,-0.07980816066265106,-3.6614663600921635,-0.18779751658439636
5.448951721191406,-2.614760398864746,10.723422050476076,-0.031511683017015464,-4.085040569305421,-0.14113658666610718
6.674865245819093,-4.419032096862793,11.755006790161133,0.04126032069325448,-4.435446739196777,-0.12368457764387132
7.916182041168214,-4.379175186157227,12.20756721496582,0.06006056442856789,-4.617703437805176,-0.13586655259132385
10.43722438812256,-4.1877150535583505,13.323565483093263,0.14728341996669772,-4.681317329406738,-0.22547765076160434
14.844149589538576,-7.267478942871094,11.711446762084961,0.6441450715065004,-4.755943775177003,-0.46292203664779663
22.55889701843262,-8.52869987487793,13.534395217895508,1.6248701810836794,-4.754856109619141,-0.6752639412879945
26.183860778808594,-4.997285842895508,11.12861728668213,2.1181979179382324,-4.4696316719055185,-0.8645151257514955
25.197843551635746,-1.4024230241775515,6.852107524871827,1.9240176677703857,-4.317847728729249,-1.1060538291931152
27.81036376953125,-0.6237296462059022,6.6616106033325195,1.3292009830474854,-4.3719940185546875,-1.3265253305435183
22.39920425415039,-0.07086598873138428,3.43907904624939,1.0594238042831423,-4.472689628601074,-1.752019762992859
33.26466369628906,-0.31554192304611206,8.636828422546388,0.2624305188655854,-5.072840690612793,-2.1145243644714355
34.27593231201172,-3.314865350723267,16.84380340576172,-0.12719297409057617,-3.7772500514984135,-2.23989200592041
25.46898651123047,-2.560497045516968,12.941642761230469,-0.5973457098007202,-2.935438632965088,-2.1967031955719
22.89567375183106,-2.6439156532287598,13.463953018188477,-1.0112348794937136,-2.3336997032165527,-2.2375023365020756
18.55107879638672,-2.769689798355103,12.18372917175293,-1.461970925331116,-1.9034702777862549,-2.1799092292785645
15.277236938476562,-4.092894554138184,11.191362380981445,-1.781177639961243,-1.5481030941009521,-2.081910848617554
12.07293701171875,-6.398204803466797,10.082583427429201,-1.663773775100708,-1.2251896858215332,-1.9460555315017702
